x,y,timestamp,pressure,fingerarea,velocityx,velocityy,accelx,accely,accelz,gyrox,gyroy,gyroz
213.90823,299.302,71937685,0.6875,0.12765957,0.0,0.0,-0.0124402195,0.003351748,0.0398283,0.0,0.0,0.0
213.90823,299.302,71937712,0.725,0.12765957,0.0017139985,0.0022033395,-0.0124402195,0.003351748,0.0398283,0.0,0.0,0.0
213.90823,299.302,71937729,0.725,0.12765957,0.010648751,0.014690028,-0.0124402195,0.003351748,0.0398283,0.0,0.0,0.0
213.90823,299.302,71937746,0.7375,0.12765957,0.01077559,0.015735747,-0.0124402195,0.003351748,0.0398283,0.0,0.0,0.0
213.90823,299.302,71937762,0.7375,0.11702127,-0.020168794,-0.027715808,-0.0124402195,0.003351748,0.0398283,0.0,0.0,0.0
207.302,275.95483,71937779,0.7375,0.08510638,-175.50752,-610.93646,-0.0124402195,0.003351748,0.0398283,0.0,0.0,0.0
204.04495,259.1427,71937796,0.75,0.09574468,-328.12943,-1295.1875,-0.0124402195,0.003351748,0.0398283,0.0,0.0,0.0
200.39014,242.34778,71937812,0.7625,0.10638297,-339.27545,-1515.5059,-0.0124402195,0.003351748,0.0398283,0.0,0.0,0.0
195.1109,221.59656,71937829,0.7375,0.07446808,-331.3139,-1469.8986,-0.0124402195,0.003351748,0.0398283,0.0,0.0,0.0
190.06161,203.8612,71937846,0.7625,0.10638297,-311.84964,-1254.0697,-0.0124402195,0.003351748,0.0398283,0.0,0.0,0.0
186.01755,188.12158,71937863,0.7625,0.09574468,-296.293,-1042.1167,-0.0124402195,0.003351748,0.0398283,0.0,0.0,0.0
180.96375,173.97266,71937879,0.75,0.08510638,-309.94406,-942.616,-0.0124402195,0.003351748,0.0398283,0.0,0.0,0.0
177.81297,162.81128,71937896,0.7625,0.08510638,-236.3959,-701.5401,-0.0124402195,0.003351748,0.0398283,0.0,0.0,0.0
175.17546,155.83337,71937913,0.77500004,0.08510638,-168.46738,-417.67874,-0.0124402195,0.003351748,0.0398283,0.0,0.0,0.0
174.42108,152.20032,71937929,0.7875,0.08510638,-82.94055,-199.0209,-0.0124402195,0.003351748,0.0398283,0.0,0.0,0.0
174.73415,150.36536,71937946,0.7875,0.08510638,34.048588,38.865746,-0.0124402195,0.003351748,0.0398283,0.0,0.0,0.0
178.16486,150.65356,71937963,0.77500004,0.08510638,185.76099,195.41046,-0.0124402195,0.003351748,0.0398283,0.0,0.0,0.0
188.24414,156.38391,71937980,0.8,0.08510638,476.42667,338.2896,-0.0124402195,0.003351748,0.0398283,0.0,0.0,0.0
204.35599,168.0011,71937996,0.8,0.09574468,892.0344,639.2376,-0.0124402195,0.003351748,0.0398283,0.0,0.0,0.0
229.95273,182.65198,71938013,0.8,0.10638297,1497.1473,1010.51263,-0.0124402195,0.003351748,0.0398283,0.0,0.0,0.0
251.3569,192.89697,71938030,0.77500004,0.09574468,1807.8131,1073.3562,-0.0124402195,0.003351748,0.0398283,0.0,0.0,0.0
275.8254,204.00989,71938046,0.7875,0.08510638,1804.6095,894.2635,0.0060478263,0.0026814044,0.03186226,0.0,0.0,0.0
299.05624,210.14307,71938063,0.7875,0.09574468,1634.3049,552.0183,0.0060478263,0.0026814044,0.03186226,0.0,0.0,0.0
316.35803,211.34009,71938080,0.77500004,0.08510638,1284.0945,160.25967,0.0060478263,0.0026814044,0.03186226,0.0,0.0,0.0
330.23187,211.34009,71938097,0.77500004,0.08510638,936.1653,-118.67419,0.0060478263,0.0026814044,0.03186226,0.0,0.0,0.0
339.13992,211.34009,71938113,0.7625,0.08510638,576.2762,-237.6328,0.0060478263,0.0026814044,0.03186226,0.0,0.0,0.0
342.8917,211.34009,71938130,0.7625,0.06382979,126.611374,-180.46825,0.0060478263,0.0026814044,0.03186226,0.0,0.0,0.0
343.8659,211.34009,71938147,0.77500004,0.08510638,-135.52037,-58.517635,0.0060478263,0.0026814044,0.03186226,0.0,0.0,0.0
343.53592,211.34009,71938163,0.77500004,0.08510638,-299.2874,-9.659158,0.0060478263,0.0026814044,0.03186226,0.0,0.0,0.0
342.48557,211.34009,71938180,0.7875,0.08510638,-293.54144,0.022550553,0.0060478263,0.0026814044,0.03186226,0.0,0.0,0.0
340.113,213.71436,71938197,0.8,0.08510638,-239.61076,52.85342,0.0060478263,0.0026814044,0.03186226,0.0,0.0,0.0
335.52164,222.48279,71938213,0.7875,0.10638297,-275.3904,294.29025,0.0060478263,0.0026814044,0.03186226,0.0,0.0,0.0
332.3631,238.94226,71938230,0.8,0.10638297,-306.2441,831.1103,0.0060478263,0.0026814044,0.03186226,0.0,0.0,0.0
333.97656,267.50903,71938247,0.7875,0.08510638,-147.05786,1571.4183,0.0060478263,0.0026814044,0.03186226,0.0,0.0,0.0
338.6965,294.53174,71938264,0.8,0.09574468,169.29375,2078.3567,0.0060478263,0.0026814044,0.03186226,0.0,0.0,0.0
347.08127,326.47412,71938280,0.7875,0.08510638,528.8903,2326.0598,0.0060478263,0.0026814044,0.03186226,0.0,0.0,0.0
352.90887,357.03394,71938297,0.8,0.08510638,662.14655,2252.748,0.0060478263,0.0026814044,0.03186226,0.0,0.0,0.0
359.6289,390.95947,71938314,0.7875,0.12765957,593.8904,2157.651,0.0060478263,0.0026814044,0.03186226,0.0,0.0,0.0
366.55515,426.86707,71938330,0.77500004,0.09574468,448.45197,2168.5605,0.0060478263,0.0026814044,0.03186226,0.0,0.0,0.0
372.2854,459.16077,71938347,0.77500004,0.12765957,364.32407,2140.5146,0.0060478263,0.0026814044,0.03186226,0.0,0.0,0.0
379.5099,491.77148,71938364,0.77500004,0.08510638,378.34976,2071.928,0.0060478263,0.0026814044,0.03186226,0.0,0.0,0.0
386.841,517.83484,71938381,0.77500004,0.10638297,420.9967,1738.3073,0.0060478263,0.0026814044,0.03186226,0.0,0.0,0.0
392.41812,542.4177,71938397,0.7625,0.08510638,412.98355,1427.6228,0.0060478263,0.0026814044,0.03186226,0.0,0.0,0.0
394.28015,558.52405,71938414,0.77500004,0.10638297,273.69733,1021.314,0.0060478263,0.0026814044,0.03186226,0.0,0.0,0.0
393.39243,575.2855,71938431,0.77500004,0.08510638,3.8249028,743.80316,0.0060478263,0.0026814044,0.03186226,0.0,0.0,0.0
388.75482,590.9712,71938447,0.7625,0.08510638,-307.10086,689.44666,0.0060478263,0.0026814044,0.03186226,0.0,0.0,0.0
383.0443,599.94543,71938464,0.7625,0.11702127,-504.89703,553.1346,0.0060478263,0.0026814044,0.03186226,0.0,0.0,0.0
373.36935,608.3141,71938481,0.75,0.12765957,-650.5423,409.66107,0.0060478263,0.0026814044,0.03186226,0.0,0.0,0.0
355.65778,615.1782,71938498,0.77500004,0.10638297,-944.21454,262.2517,0.0060478263,0.0026814044,0.03186226,0.0,0.0,0.0
334.1185,617.66113,71938514,0.7625,0.12765957,-1339.6971,78.17036,0.0060478263,0.0026814044,0.03186226,0.0,0.0,0.0
316.6475,616.60693,71938531,0.7625,0.12765957,-1513.7583,-81.603714,0.0060478263,0.0026814044,0.03186226,0.0,0.0,0.0
300.50528,612.91406,71938548,0.77500004,0.09574468,-1316.3945,-303.95645,0.0060478263,0.0026814044,0.03186226,0.0,0.0,0.0
287.91998,607.8093,71938564,0.77500004,0.08510638,-902.3349,-482.87238,0.0060478263,0.0026814044,0.03186226,0.0,0.0,0.0
280.3833,602.2787,71938581,0.75,0.08510638,-479.3976,-514.7064,0.02083826,0.018145114,-0.006509781,0.0,0.0,0.0
276.7704,596.30676,71938598,0.75,0.07446808,-154.06145,-460.34634,0.02083826,0.018145114,-0.006509781,0.0,0.0,0.0
278.10336,584.96875,71938615,0.6875,0.08510638,160.7607,-544.32623,0.02083826,0.018145114,-0.006509781,0.0,0.0,0.0
278.38724,583.62305,71938616,0.5375,0.10638297,188.65298,-584.5288,0.02083826,0.018145114,-0.006509781,0.0,0.0,0.0
278.38724,583.62305,71938623,0.5375,0.10638297,188.65298,-584.5288,0.02083826,0.018145114,-0.006509781,0.0,0.0,0.0
303.3791,491.21863,71938923,0.75,0.08510638,0.0,0.0,0.02083826,0.018145114,-0.006509781,0.0,0.0,0.0
303.3791,491.21863,71938949,0.75,0.07446808,-0.026294533,-0.04331325,0.02083826,0.018145114,-0.006509781,0.0,0.0,0.0
303.3791,491.21863,71938965,0.75,0.09574468,0.003123344,0.009707696,0.02083826,0.018145114,-0.006509781,0.0,0.0,0.0
340.68237,477.24597,71938982,0.7625,0.08510638,2018.5197,-765.2633,0.02083826,0.018145114,-0.006509781,0.0,0.0,0.0
362.3048,470.7229,71938999,0.7375,0.09574468,2224.77,-763.0427,0.02083826,0.018145114,-0.006509781,0.0,0.0,0.0
386.23026,465.2777,71939016,0.7375,0.09574468,2177.124,-652.00073,0.02083826,0.018145114,-0.006509781,0.0,0.0,0.0
401.2832,463.10168,71939032,0.65000004,0.10638297,1667.6656,-336.49762,0.02083826,0.018145114,-0.006509781,0.0,0.0,0.0
402.3469,462.7865,71939035,0.4625,0.12765957,1533.2505,-291.60724,0.02083826,0.018145114,-0.006509781,0.0,0.0,0.0
402.3469,462.7865,71939044,0.4625,0.12765957,1533.2505,-291.60724,0.02083826,0.018145114,-0.006509781,0.0,0.0,0.0
482.82068,504.54614,71939946,0.6875,0.11702127,0.0,0.0,-0.034663513,0.0020129085,0.015033722,0.0,0.0,0.0
482.82068,504.54614,71939970,0.71250004,0.11702127,-4.9712363E-4,7.433627E-4,-0.034663513,0.0020129085,0.015033722,0.0,0.0,0.0
482.82068,504.54614,71940001,0.7,0.11702127,0.010354561,0.012685915,-0.034663513,0.0020129085,0.015033722,0.0,0.0,0.0
482.82068,504.54614,71940006,0.725,0.11702127,-0.00606639,-0.006859668,-0.034663513,0.0020129085,0.015033722,0.0,0.0,0.0
482.82068,504.54614,71940035,0.725,0.12765957,0.017594755,0.017553316,-0.034663513,0.0020129085,0.015033722,0.0,0.0,0.0
482.82068,504.54614,71940052,0.725,0.12765957,0.017541274,0.016929282,-0.034663513,0.0020129085,0.015033722,0.0,0.0,0.0
482.82068,504.54614,71940068,0.725,0.09574468,-0.021811191,-0.023926347,-0.034663513,0.0020129085,0.015033722,0.0,0.0,0.0
485.98334,535.3053,71940085,0.71250004,0.07446808,110.80138,1045.1143,-0.034663513,0.0020129085,0.015033722,0.0,0.0,0.0
488.36505,546.47,71940102,0.71250004,0.08510638,164.28133,1338.551,-0.034663513,0.0020129085,0.015033722,0.0,0.0,0.0
491.87726,555.67334,71940118,0.7375,0.12765957,240.36023,1242.5698,-0.034663513,0.0020129085,0.015033722,0.0,0.0,0.0
496.9508,563.48535,71940135,0.7375,0.09574468,302.32004,635.53796,-0.034663513,0.0020129085,0.015033722,0.0,0.0,0.0
505.50873,572.9564,71940152,0.7375,0.08510638,439.89554,169.00119,-0.034663513,0.0020129085,0.015033722,0.0,0.0,0.0
514.8388,580.68384,71940169,0.71250004,0.07446808,635.24725,402.05548,-0.034663513,0.0020129085,0.015033722,0.0,0.0,0.0
523.60626,585.7549,71940185,0.7375,0.08510638,683.1576,363.29965,-0.0117308125,0.0016103387,0.012026787,0.0,0.0,0.0
531.1543,587.177,71940202,0.725,0.08510638,617.1443,194.3993,-0.0117308125,0.0016103387,0.012026787,0.0,0.0,0.0
539.507,586.3634,71940219,0.7375,0.08510638,508.9987,-75.34518,-0.0117308125,0.0016103387,0.012026787,0.0,0.0,0.0
545.30566,581.8412,71940235,0.725,0.09574468,389.7842,-335.00565,-0.0117308125,0.0016103387,0.012026787,0.0,0.0,0.0
550.5171,574.34973,71940252,0.725,0.10638297,303.08862,-530.76154,-0.0117308125,0.0016103387,0.012026787,0.0,0.0,0.0
558.55035,558.88354,71940269,0.725,0.08510638,325.71808,-840.28143,-0.0117308125,0.0016103387,0.012026787,0.0,0.0,0.0
564.5159,539.2977,71940285,0.725,0.08510638,366.79886,-1250.283,-0.0117308125,0.0016103387,0.012026787,0.0,0.0,0.0
565.2938,525.5038,71940302,0.7375,0.10638297,254.5471,-1363.7247,-0.0117308125,0.0016103387,0.012026787,0.0,0.0,0.0
566.10406,518.6404,71940319,0.7375,0.10638297,71.070366,-1015.83344,-0.0117308125,0.0016103387,0.012026787,0.0,0.0,0.0
564.3418,513.1139,71940336,0.75,0.09574468,-200.60484,-317.79068,-0.0117308125,0.0016103387,0.012026787,0.0,0.0,0.0
562.753,510.28442,71940352,0.75,0.09574468,-267.14426,65.411865,-0.0117308125,0.0016103387,0.012026787,0.0,0.0,0.0
561.16675,508.43042,71940369,0.75,0.09574468,-200.7114,124.16232,-0.0117308125,0.0016103387,0.012026787,0.0,0.0,0.0
559.0806,507.21167,71940386,0.75,0.09574468,-164.01346,72.8857,-0.0117308125,0.0016103387,0.012026787,0.0,0.0,0.0
557.90216,507.21167,71940403,0.7375,0.12765957,-115.434074,75.94728,-0.0117308125,0.0016103387,0.012026787,0.0,0.0,0.0
556.8653,510.52136,71940419,0.7375,0.10638297,-73.054695,154.1959,-0.0117308125,0.0016103387,0.012026787,0.0,0.0,0.0
557.7601,519.45764,71940436,0.75,0.08510638,-10.4426565,386.5093,-0.0117308125,0.0016103387,0.012026787,0.0,0.0,0.0
561.3884,531.4916,71940453,0.7375,0.08510638,159.09964,763.4699,-0.0117308125,0.0016103387,0.012026787,0.0,0.0,0.0
566.6207,545.34314,71940469,0.75,0.09574468,334.26172,1022.34894,-0.0117308125,0.0016103387,0.012026787,0.0,0.0,0.0
571.3604,551.55664,71940486,0.7375,0.12765957,420.904,877.66486,-0.0117308125,0.0016103387,0.012026787,0.0,0.0,0.0
576.6231,561.11365,71940503,0.7375,0.11702127,427.5483,625.5617,-0.0117308125,0.0016103387,0.012026787,0.0,0.0,0.0
582.0166,569.4486,71940520,0.7375,0.09574468,371.34912,428.8524,-0.0117308125,0.0016103387,0.012026787,0.0,0.0,0.0
588.2988,577.16223,71940536,0.725,0.08510638,365.58878,387.04486,-0.0117308125,0.0016103387,0.012026787,0.0,0.0,0.0
595.34,583.6727,71940553,0.7375,0.07446808,441.0209,464.9954,-0.0117308125,0.0016103387,0.012026787,0.0,0.0,0.0
601.1004,586.827,71940570,0.725,0.06382979,428.0516,283.47015,-0.0117308125,0.0016103387,0.012026787,0.0,0.0,0.0
607.2914,587.177,71940586,0.725,0.06382979,391.13913,41.50704,-0.0117308125,0.0016103387,0.012026787,0.0,0.0,0.0
613.574,584.9286,71940603,0.725,0.08510638,351.1873,-204.30739,-0.0117308125,0.0016103387,0.012026787,0.0,0.0,0.0
619.2508,578.18164,71940620,0.725,0.09574468,332.81866,-437.53976,-0.0117308125,0.0016103387,0.012026787,0.0,0.0,0.0
626.45514,564.78394,71940636,0.725,0.10638297,374.93936,-728.4899,-0.0117308125,0.0016103387,0.012026787,0.0,0.0,0.0
632.7862,542.69653,71940653,0.725,0.08510638,403.57745,-1283.9773,-0.0117308125,0.0016103387,0.012026787,0.0,0.0,0.0
634.8567,523.3336,71940670,0.725,0.12765957,285.4798,-1600.1622,-0.0117308125,0.0016103387,0.012026787,0.0,0.0,0.0
634.77124,501.5559,71940687,0.7375,0.08510638,68.90993,-1642.1748,-0.0117308125,0.0016103387,0.012026787,0.0,0.0,0.0
634.00433,476.16895,71940703,0.725,0.10638297,-130.51253,-1656.8094,-0.0117308125,0.0016103387,0.012026787,0.0,0.0,0.0
632.3934,454.6438,71940720,0.725,0.08510638,-240.43272,-1495.6256,0.038615346,0.017288268,0.02562046,0.0,0.0,0.0
628.16974,429.5326,71940737,0.71250004,0.08510638,-296.58655,-1496.8075,0.038615346,0.017288268,0.02562046,0.0,0.0,0.0
624.595,409.30737,71940753,0.725,0.10638297,-306.63425,-1389.5629,0.038615346,0.017288268,0.02562046,0.0,0.0,0.0
619.87244,387.49695,71940770,0.725,0.08510638,-341.32727,-1237.856,0.038615346,0.017288268,0.02562046,0.0,0.0,0.0
614.7069,368.91162,71940787,0.7375,0.08510638,-344.17184,-1195.6572,0.038615346,0.017288268,0.02562046,0.0,0.0,0.0
610.3452,352.84692,71940804,0.7375,0.12765957,-320.34357,-959.1655,0.038615346,0.017288268,0.02562046,0.0,0.0,0.0
606.19727,338.98865,71940820,0.725,0.08510638,-287.88492,-784.7854,0.038615346,0.017288268,0.02562046,0.0,0.0,0.0
602.47675,327.4231,71940837,0.7375,0.08510638,-234.7551,-624.76074,0.038615346,0.017288268,0.02562046,0.0,0.0,0.0
600.3243,319.88623,71940854,0.7375,0.08510638,-159.89711,-420.9741,0.038615346,0.017288268,0.02562046,0.0,0.0,0.0
598.76263,316.1112,71940870,0.75,0.09574468,-84.65983,-204.98639,0.038615346,0.017288268,0.02562046,0.0,0.0,0.0
597.7218,314.29724,71940887,0.725,0.09574468,-26.838285,16.297752,0.038615346,0.017288268,0.02562046,0.0,0.0,0.0
596.6805,313.51794,71940904,0.7375,0.09574468,-0.35220742,140.22606,0.038615346,0.017288268,0.02562046,0.0,0.0,0.0
596.78357,314.52173,71940921,0.7375,0.07446808,14.374343,184.55856,0.038615346,0.017288268,0.02562046,0.0,0.0,0.0
596.78357,328.58374,71940937,0.7375,0.09574468,25.674126,492.01828,0.038615346,0.017288268,0.02562046,0.0,0.0,0.0
598.41895,344.3164,71940954,0.7375,0.12765957,69.78733,964.80206,0.038615346,0.017288268,0.02562046,0.0,0.0,0.0
601.7289,366.07727,71940971,0.7375,0.08510638,177.62666,1543.9608,0.038615346,0.017288268,0.02562046,0.0,0.0,0.0
605.66956,387.55957,71940987,0.75,0.10638297,279.13208,1768.4049,0.038615346,0.017288268,0.02562046,0.0,0.0,0.0
610.7955,407.75793,71941004,0.7375,0.09574468,354.8393,1477.0663,0.038615346,0.017288268,0.02562046,0.0,0.0,0.0
616.15155,430.79724,71941021,0.7375,0.08510638,391.32968,1391.8163,0.038615346,0.017288268,0.02562046,0.0,0.0,0.0
621.73303,449.62952,71941038,0.7375,0.12765957,382.15295,1246.1802,0.038615346,0.017288268,0.02562046,0.0,0.0,0.0
627.4769,471.32996,71941054,0.7375,0.08510638,375.3318,1179.2593,0.038615346,0.017288268,0.02562046,0.0,0.0,0.0
632.77563,492.1206,71941071,0.7375,0.10638297,358.97525,1268.1604,0.038615346,0.017288268,0.02562046,0.0,0.0,0.0
636.9292,505.92822,71941088,0.725,0.11702127,294.94193,1049.9641,0.038615346,0.017288268,0.02562046,0.0,0.0,0.0
640.5121,520.801,71941104,0.725,0.09574468,233.41776,858.17065,0.038615346,0.017288268,0.02562046,0.0,0.0,0.0
644.21985,538.3384,71941121,0.7375,0.09574468,175.36563,807.2812,0.038615346,0.017288268,0.02562046,0.0,0.0,0.0
646.6351,550.0436,71941138,0.75,0.11702127,137.32855,710.8271,0.038615346,0.017288268,0.02562046,0.0,0.0,0.0
648.4623,556.5807,71941155,0.725,0.12765957,105.17129,568.0574,0.038615346,0.017288268,0.02562046,0.0,0.0,0.0
649.7411,563.0978,71941171,0.71250004,0.10638297,55.390175,283.66934,0.038615346,0.017288268,0.02562046,0.0,0.0,0.0
651.0407,568.60657,71941188,0.725,0.10638297,33.56176,123.28075,0.038615346,0.017288268,0.02562046,0.0,0.0,0.0
651.7657,572.296,71941205,0.75,0.08510638,24.27513,119.9213,0.038615346,0.017288268,0.02562046,0.0,0.0,0.0
652.5154,574.2937,71941220,0.7375,0.08510638,22.398046,93.645836,0.038615346,0.017288268,0.02562046,0.0,0.0,0.0
652.2655,573.8495,71941238,0.75,0.08510638,-5.0712647,-47.02541,0.038615346,0.017288268,0.02562046,0.0,0.0,0.0
652.2655,573.8495,71941255,0.7375,0.08510638,-28.21211,-126.932076,-0.017107718,-0.0021693707,0.0044965744,0.0,0.0,0.0
652.2655,573.8495,71941271,0.725,0.10638297,-26.647373,-122.78165,-0.017107718,-0.0021693707,0.0044965744,0.0,0.0,0.0
652.2655,572.04504,71941288,0.7375,0.12765957,-13.483721,-110.39415,-0.017107718,-0.0021693707,0.0044965744,0.0,0.0,0.0
653.38086,564.34766,71941305,0.725,0.08510638,22.5894,-271.52905,-0.017107718,-0.0021693707,0.0044965744,0.0,0.0,0.0
658.2476,542.2925,71941322,0.7375,0.08510638,194.27673,-1005.30475,-0.017107718,-0.0021693707,0.0044965744,0.0,0.0,0.0
662.96844,525.3878,71941338,0.7375,0.12765957,324.9821,-1421.761,-0.017107718,-0.0021693707,0.0044965744,0.0,0.0,0.0
671.00946,507.65588,71941354,0.71250004,0.08510638,459.67007,-1497.5732,-0.017107718,-0.0021693707,0.0044965744,0.0,0.0,0.0
677.649,497.6305,71941372,0.7375,0.07446808,555.9582,-1188.0214,-0.017107718,-0.0021693707,0.0044965744,0.0,0.0,0.0
685.51636,483.64563,71941388,0.7375,0.09574468,549.3091,-689.1766,-0.017107718,-0.0021693707,0.0044965744,0.0,0.0,0.0
694.1197,472.59583,71941405,0.725,0.12765957,564.17944,-625.7477,-0.017107718,-0.0021693707,0.0044965744,0.0,0.0,0.0
704.1721,464.03162,71941422,0.725,0.12765957,590.48926,-545.6161,-0.017107718,-0.0021693707,0.0044965744,0.0,0.0,0.0
716.06903,458.1427,71941439,0.725,0.12765957,677.3044,-349.8194,-0.017107718,-0.0021693707,0.0044965744,0.0,0.0,0.0
728.25586,455.85352,71941455,0.725,0.12765957,786.9434,-83.4659,-0.017107718,-0.0021693707,0.0044965744,0.0,0.0,0.0
736.8082,456.47156,71941472,0.7375,0.12765957,732.20074,115.73756,-0.017107718,-0.0021693707,0.0044965744,0.0,0.0,0.0
743.706,460.10352,71941489,0.75,0.12765957,539.8838,307.38913,-0.017107718,-0.0021693707,0.0044965744,0.0,0.0,0.0
748.89294,465.67786,71941505,0.725,0.09574468,290.39255,462.9542,-0.017107718,-0.0021693707,0.0044965744,0.0,0.0,0.0
756.436,483.3921,71941522,0.7375,0.09574468,224.73816,819.03406,-0.017107718,-0.0021693707,0.0044965744,0.0,0.0,0.0
759.5827,498.21838,71941539,0.725,0.12765957,218.55688,1172.914,-0.017107718,-0.0021693707,0.0044965744,0.0,0.0,0.0
759.2307,517.06213,71941556,0.71250004,0.09574468,88.48908,1402.1067,-0.017107718,-0.0021693707,0.0044965744,0.0,0.0,0.0
759.7305,538.6865,71941572,0.7375,0.09574468,-52.766502,1523.1842,-0.017107718,-0.0021693707,0.0044965744,0.0,0.0,0.0
760.45465,553.93835,71941589,0.7375,0.12765957,-140.35677,1250.0929,-0.017107718,-0.0021693707,0.0044965744,0.0,0.0,0.0
762.5415,566.9614,71941606,0.725,0.10638297,-22.663515,925.831,-0.017107718,-0.0021693707,0.0044965744,0.0,0.0,0.0
765.7712,577.05383,71941622,0.7375,0.08510638,162.1425,593.9204,-0.017107718,-0.0021693707,0.0044965744,0.0,0.0,0.0
769.7645,583.96326,71941639,0.71250004,0.06382979,272.98407,306.57562,-0.017107718,-0.0021693707,0.0044965744,0.0,0.0,0.0
776.71265,589.16797,71941656,0.71250004,0.06382979,384.24924,151.26176,-0.017107718,-0.0021693707,0.0044965744,0.0,0.0,0.0
785.9983,589.9855,71941673,0.725,0.07446808,540.795,21.32011,-0.017107718,-0.0021693707,0.0044965744,0.0,0.0,0.0
795.9325,583.8773,71941689,0.71250004,0.08510638,690.7167,-283.2115,-0.017107718,-0.0021693707,0.0044965744,0.0,0.0,0.0
805.2879,572.87537,71941706,0.65000004,0.11702127,722.16345,-719.19073,-0.017107718,-0.0021693707,0.0044965744,0.0,0.0,0.0
812.9975,561.0062,71941723,0.3125,0.08510638,629.84863,-1011.05756,-0.017107718,-0.0021693707,0.0044965744,0.0,0.0,0.0
814.21277,558.7449,71941730,0.175,0.07446808,532.04626,-1041.1024,-0.017107718,-0.0021693707,0.0044965744,0.0,0.0,0.0
814.21277,558.7449,71941737,0.175,0.07446808,532.04626,-1041.1024,-0.017107718,-0.0021693707,0.0044965744,0.0,0.0,0.0
904.18353,492.9956,71942044,0.4875,0.06382979,0.0,0.0,-0.013686173,-0.0017355084,0.05159664,0.0,0.0,0.0
904.18353,492.9956,71942074,0.6625,0.06382979,0.012135487,0.004319443,-0.013686173,-0.0017355084,0.05159664,0.0,0.0,0.0
904.18353,492.9956,71942090,0.7,0.06382979,0.008039662,0.0043823393,-0.013686173,-0.0017355084,0.05159664,0.0,0.0,0.0
904.18353,492.9956,71942107,0.7,0.06382979,0.048204016,0.025045302,-0.013686173,-0.0017355084,0.05159664,0.0,0.0,0.0
904.18353,492.9956,71942113,0.7,0.08510638,-0.016032057,-0.009902503,-0.013686173,-0.0017355084,0.05159664,0.0,0.0,0.0
876.02985,468.00623,71942157,0.7,0.12765957,-825.75635,-743.00555,-0.013686173,-0.0017355084,0.05159664,0.0,0.0,0.0
865.16833,463.50452,71942174,0.71250004,0.12765957,-973.1242,-687.2974,-0.013686173,-0.0017355084,0.05159664,0.0,0.0,0.0
850.2717,462.7865,71942191,0.71250004,0.09574468,-966.75806,-237.5867,-0.013686173,-0.0017355084,0.05159664,0.0,0.0,0.0
836.4146,466.13403,71942207,0.725,0.08510638,-936.7823,181.88463,-0.013686173,-0.0017355084,0.05159664,0.0,0.0,0.0
823.8627,472.8651,71942224,0.71250004,0.09574468,-864.6301,560.1428,-0.013686173,-0.0017355084,0.05159664,0.0,0.0,0.0
815.539,482.78687,71942241,0.725,0.09574468,-697.43945,753.9204,-0.013686173,-0.0017355084,0.05159664,0.0,0.0,0.0
806.2565,497.35303,71942257,0.725,0.12765957,-451.8174,918.5397,-0.013686173,-0.0017355084,0.05159664,0.0,0.0,0.0
797.78296,516.6233,71942274,0.7375,0.08510638,-391.87543,1253.2594,-0.013686173,-0.0017355084,0.05159664,0.0,0.0,0.0
794.5589,534.7042,71942291,0.7375,0.08510638,-282.97266,1392.5441,-0.013686173,-0.0017355084,0.05159664,0.0,0.0,0.0
794.08636,548.442,71942308,0.7375,0.10638297,-78.374756,1248.0201,-0.013686173,-0.0017355084,0.05159664,0.0,0.0,0.0
796.42224,559.4686,71942324,0.725,0.12765957,224.43077,838.5788,0.0050510615,-0.033388436,-0.022722244,0.0,0.0,0.0
799.1101,566.5503,71942341,0.725,0.10638297,397.7508,430.75696,0.0050510615,-0.033388436,-0.022722244,0.0,0.0,0.0
803.6565,572.876,71942358,0.71250004,0.09574468,397.47723,204.24538,0.0050510615,-0.033388436,-0.022722244,0.0,0.0,0.0
811.4326,581.1521,71942374,0.725,0.07446808,467.69293,220.15837,0.0050510615,-0.033388436,-0.022722244,0.0,0.0,0.0
819.76086,585.6443,71942391,0.71250004,0.06382979,569.2964,259.48862,0.0050510615,-0.033388436,-0.022722244,0.0,0.0,0.0
830.1663,587.8762,71942408,0.71250004,0.06382979,691.3699,189.5803,0.0050510615,-0.033388436,-0.022722244,0.0,0.0,0.0
840.3264,584.40295,71942424,0.71250004,0.08510638,744.11487,-57.383446,0.0050510615,-0.033388436,-0.022722244,0.0,0.0,0.0
848.7239,576.93945,71942441,0.7,0.12765957,659.8816,-462.28604,0.0050510615,-0.033388436,-0.022722244,0.0,0.0,0.0
854.559,566.99146,71942458,0.71250004,0.11702127,457.1918,-774.7481,0.0050510615,-0.033388436,-0.022722244,0.0,0.0,0.0
865.02344,542.9492,71942475,0.71250004,0.08510638,433.0553,-1268.1102,0.0050510615,-0.033388436,-0.022722244,0.0,0.0,0.0
869.11255,526.85315,71942491,0.7,0.10638297,377.78168,-1508.6041,0.0050510615,-0.033388436,-0.022722244,0.0,0.0,0.0
871.88165,514.81885,71942508,0.71250004,0.12765957,229.5119,-1308.3835,0.0050510615,-0.033388436,-0.022722244,0.0,0.0,0.0
872.6938,507.17163,71942525,0.7,0.08510638,31.906643,-756.38336,0.0050510615,-0.033388436,-0.022722244,0.0,0.0,0.0
872.6938,501.28687,71942541,0.7,0.08510638,-147.92934,-193.75255,0.0050510615,-0.033388436,-0.022722244,0.0,0.0,0.0
871.7292,499.2776,71942558,0.6875,0.08510638,-185.32837,89.129944,0.0050510615,-0.033388436,-0.022722244,0.0,0.0,0.0
870.68915,497.42896,71942575,0.7,0.09574468,-141.07422,88.06163,0.0050510615,-0.033388436,-0.022722244,0.0,0.0,0.0
870.1946,496.54968,71942592,0.725,0.09574468,-109.460236,89.15519,0.0050510615,-0.033388436,-0.022722244,0.0,0.0,0.0
870.1946,496.54968,71942608,0.7,0.11702127,-45.070717,93.264084,0.0050510615,-0.033388436,-0.022722244,0.0,0.0,0.0
870.5154,498.57874,71942625,0.71250004,0.10638297,8.272926,117.30509,0.0050510615,-0.033388436,-0.022722244,0.0,0.0,0.0
873.1085,506.90918,71942642,0.71250004,0.12765957,95.760544,296.78983,0.0050510615,-0.033388436,-0.022722244,0.0,0.0,0.0
877.645,517.7621,71942658,0.71250004,0.12765957,224.4367,630.5632,0.0050510615,-0.033388436,-0.022722244,0.0,0.0,0.0
884.4439,533.57996,71942675,0.71250004,0.08510638,430.69434,1059.1918,0.0050510615,-0.033388436,-0.022722244,0.0,0.0,0.0
890.3794,546.7594,71942692,0.725,0.09574468,515.4153,1165.771,0.0050510615,-0.033388436,-0.022722244,0.0,0.0,0.0
894.9302,554.18286,71942709,0.71250004,0.10638297,408.14737,790.4984,0.0050510615,-0.033388436,-0.022722244,0.0,0.0,0.0
899.57886,559.714,71942725,0.71250004,0.10638297,305.29138,405.16586,0.0050510615,-0.033388436,-0.022722244,0.0,0.0,0.0
903.74396,564.57385,71942742,0.71250004,0.10638297,224.80753,136.88312,0.0050510615,-0.033388436,-0.022722244,0.0,0.0,0.0
906.92395,567.4767,71942759,0.71250004,0.11702127,188.09557,40.620228,0.0050510615,-0.033388436,-0.022722244,0.0,0.0,0.0
910.6239,569.3815,71942775,0.71250004,0.11702127,187.57413,49.456394,0.0050510615,-0.033388436,-0.022722244,0.0,0.0,0.0
915.3004,568.4756,71942792,0.7,0.12765957,221.51059,-32.126568,0.0050510615,-0.033388436,-0.022722244,0.0,0.0,0.0
921.0348,563.7589,71942809,0.7,0.10638297,297.5338,-249.59525,0.0050510615,-0.033388436,-0.022722244,0.0,0.0,0.0
927.9224,552.08716,71942826,0.7,0.07446808,405.80765,-589.76843,0.0050510615,-0.033388436,-0.022722244,0.0,0.0,0.0
937.1728,529.86865,71942841,0.7,0.09574468,517.34485,-1091.7904,-0.01195915,0.0052892566,0.013821602,0.0,0.0,0.0
941.67126,512.09863,71942859,0.675,0.09574468,499.33774,-1487.4817,-0.01195915,0.0052892566,0.013821602,0.0,0.0,0.0
941.17145,496.74292,71942876,0.6875,0.06382979,200.02252,-1459.6431,-0.01195915,0.0052892566,0.013821602,0.0,0.0,0.0
938.1761,481.0122,71942892,0.71250004,0.08510638,-166.51344,-1168.6853,-0.01195915,0.0052892566,0.013821602,0.0,0.0,0.0
933.4946,469.94043,71942909,0.71250004,0.12765957,-459.8123,-784.17053,-0.01195915,0.0052892566,0.013821602,0.0,0.0,0.0
929.6701,461.2937,71942926,0.7,0.12765957,-493.50302,-470.85294,-0.01195915,0.0052892566,0.013821602,0.0,0.0,0.0
927.4183,456.99768,71942943,0.71250004,0.11702127,-336.26352,-207.75363,-0.01195915,0.0052892566,0.013821602,0.0,0.0,0.0
925.7635,454.05603,71942959,0.71250004,0.11702127,-154.76463,11.876167,-0.01195915,0.0052892566,0.013821602,0.0,0.0,0.0
924.72003,452.20142,71942976,0.6875,0.11702127,-17.284868,84.97126,-0.01195915,0.0052892566,0.013821602,0.0,0.0,0.0
923.6814,450.3551,71942993,0.7,0.11702127,9.586362,68.587845,-0.01195915,0.0052892566,0.013821602,0.0,0.0,0.0
923.6772,450.34753,71943009,0.7,0.12765957,11.354168,42.10892,-0.01195915,0.0052892566,0.013821602,0.0,0.0,0.0
925.2916,451.30408,71943026,0.7,0.12765957,67.46869,66.73056,-0.01195915,0.0052892566,0.013821602,0.0,0.0,0.0
930.7975,457.76392,71943043,0.71250004,0.09574468,225.33955,249.28731,-0.01195915,0.0052892566,0.013821602,0.0,0.0,0.0
942.05255,469.2865,71943059,0.6875,0.06382979,556.7017,605.2659,-0.01195915,0.0052892566,0.013821602,0.0,0.0,0.0
953.32294,483.73303,71943076,0.7,0.08510638,852.1588,975.25287,-0.01195915,0.0052892566,0.013821602,0.0,0.0,0.0
962.48035,496.3938,71943093,0.7,0.12765957,847.3939,1093.2512,-0.01195915,0.0052892566,0.013821602,0.0,0.0,0.0
971.3119,508.77808,71943110,0.71250004,0.11702127,637.7527,923.94745,-0.01195915,0.0052892566,0.013821602,0.0,0.0,0.0
979.3605,521.78564,71943126,0.71250004,0.08510638,477.56332,799.8502,-0.01195915,0.0052892566,0.013821602,0.0,0.0,0.0
987.9413,538.2617,71943143,0.71250004,0.08510638,404.6226,796.038,-0.01195915,0.0052892566,0.013821602,0.0,0.0,0.0
993.0144,549.1559,71943160,0.725,0.09574468,387.1119,852.0153,-0.01195915,0.0052892566,0.013821602,0.0,0.0,0.0
995.9575,558.9365,71943176,0.725,0.10638297,234.92177,734.8426,-0.01195915,0.0052892566,0.013821602,0.0,0.0,0.0
996.18115,566.5449,71943193,0.71250004,0.09574468,32.013897,500.34558,-0.01195915,0.0052892566,0.013821602,0.0,0.0,0.0
994.6373,572.1172,71943210,0.7,0.08510638,-180.50972,255.86125,-0.01195915,0.0052892566,0.013821602,0.0,0.0,0.0
991.5032,576.69507,71943227,0.6875,0.07446808,-308.8114,146.43416,-0.01195915,0.0052892566,0.013821602,0.0,0.0,0.0
985.0907,582.34924,71943243,0.675,0.08510638,-411.10495,199.31035,-0.01195915,0.0052892566,0.013821602,0.0,0.0,0.0
977.16174,584.7648,71943260,0.6625,0.07446808,-546.17993,161.25926,-0.01195915,0.0052892566,0.013821602,0.0,0.0,0.0
972.20215,585.4,71943277,0.6875,0.07446808,-530.022,70.27702,-0.01195915,0.0052892566,0.013821602,0.0,0.0,0.0
969.2523,584.1472,71943293,0.675,0.08510638,-385.3672,-72.63246,-0.01195915,0.0052892566,0.013821602,0.0,0.0,0.0
968.4009,581.8876,71943310,0.6625,0.08510638,-94.580315,-229.14987,-0.01195915,0.0052892566,0.013821602,0.0,0.0,0.0
970.24,578.1533,71943327,0.575,0.11702127,144.70084,-303.509,-0.01195915,0.0052892566,0.013821602,0.0,0.0,0.0
981.15845,572.0725,71943338,0.275,0.12765957,395.54724,-384.36108,-0.01195915,0.0052892566,0.013821602,0.0,0.0,0.0
981.15845,572.0725,71943345,0.275,0.12765957,395.54724,-384.36108,-0.01195915,0.0052892566,0.013821602,0.0,0.0,0.0
1020.6456,503.6577,71943637,0.6625,0.10638297,0.0,0.0,-0.00956732,0.0042313933,-0.0049419403,0.0,0.0,0.0
1020.6456,503.6577,71943661,0.675,0.08510638,-0.030165762,-0.011828221,-0.00956732,0.0042313933,-0.0049419403,0.0,0.0,0.0
1020.6456,503.6577,71943673,0.6875,0.08510638,-0.0667809,-0.032812685,-0.00956732,0.0042313933,-0.0049419403,0.0,0.0,0.0
1020.6456,503.6577,71943693,0.675,0.08510638,0.077178665,0.039269514,-0.00956732,0.0042313933,-0.0049419403,0.0,0.0,0.0
1020.6456,503.6577,71943711,0.6875,0.08510638,0.01098895,0.0068185846,-0.00956732,0.0042313933,-0.0049419403,0.0,0.0,0.0
1020.6456,503.6577,71943728,0.675,0.08510638,0.025044475,0.01193325,-0.00956732,0.0042313933,-0.0049419403,0.0,0.0,0.0
1037.8267,489.38245,71943745,0.6875,0.06382979,529.3309,-445.5159,-0.00956732,0.0042313933,-0.0049419403,0.0,0.0,0.0
1048.8599,485.8877,71943761,0.675,0.06382979,995.9652,-678.431,-0.00956732,0.0042313933,-0.0049419403,0.0,0.0,0.0
1058.2363,489.72046,71943778,0.675,0.08510638,1069.0259,-312.55942,-0.00956732,0.0042313933,-0.0049419403,0.0,0.0,0.0
1066.9216,502.09424,71943795,0.675,0.12765957,817.7379,380.9403,-0.00956732,0.0042313933,-0.0049419403,0.0,0.0,0.0
1072.7351,531.6376,71943811,0.675,0.07446808,351.71835,1612.5592,-0.00956732,0.0042313933,-0.0049419403,0.0,0.0,0.0
1071.906,559.8369,71943828,0.6875,0.12765957,5.6371245,2400.8416,-0.00956732,0.0042313933,-0.0049419403,0.0,0.0,0.0
1065.0148,592.6293,71943845,0.7,0.06382979,-326.29648,2577.2844,-0.00956732,0.0042313933,-0.0049419403,0.0,0.0,0.0
1055.8323,617.78174,71943862,0.7,0.10638297,-754.5847,2312.1353,-0.00956732,0.0042313933,-0.0049419403,0.0,0.0,0.0
1044.8584,642.0073,71943878,0.7,0.07446808,-954.12354,1662.3107,-0.00956732,0.0042313933,-0.0049419403,0.0,0.0,0.0
1036.742,655.1753,71943895,0.71250004,0.12765957,-859.22174,1049.9158,-0.00956732,0.0042313933,-0.0049419403,0.0,0.0,0.0
1029.1208,667.8844,71943912,0.7,0.10638297,-639.60486,624.984,-0.00956732,0.0042313933,-0.0049419403,0.0,0.0,0.0
1024.306,674.3551,71943928,0.725,0.08510638,-371.8059,196.21146,0.008346144,0.0193851,0.01204586,0.0,0.0,0.0
1020.0863,679.3557,71943945,0.6875,0.08510638,-190.63643,-1.1148438,0.008346144,0.0193851,0.01204586,0.0,0.0,0.0
1017.698,681.3584,71943962,0.6875,0.08510638,-74.0998,-112.75197,0.008346144,0.0193851,0.01204586,0.0,0.0,0.0
1015.8828,681.3584,71943979,0.6875,0.09574468,-36.349506,-123.774925,0.008346144,0.0193851,0.01204586,0.0,0.0,0.0
1015.95593,679.3723,71943995,0.6875,0.12765957,14.269759,-190.79033,0.008346144,0.0193851,0.01204586,0.0,0.0,0.0
1017.3452,674.786,71944012,0.6875,0.10638297,115.329185,-345.41882,0.008346144,0.0193851,0.01204586,0.0,0.0,0.0
1020.5863,669.5156,71944029,0.6875,0.09574468,203.86154,-426.13123,0.008346144,0.0193851,0.01204586,0.0,0.0,0.0
1026.6245,663.9835,71944045,0.6875,0.09574468,357.30124,-460.06323,0.008346144,0.0193851,0.01204586,0.0,0.0,0.0
1035.3447,659.2627,71944062,0.7,0.08510638,541.48114,-426.40332,0.008346144,0.0193851,0.01204586,0.0,0.0,0.0
1048.2415,657.3688,71944079,0.7,0.08510638,780.9199,-244.3847,0.008346144,0.0193851,0.01204586,0.0,0.0,0.0
1061.2804,659.2344,71944096,0.7,0.08510638,944.57605,13.146547,0.008346144,0.0193851,0.01204586,0.0,0.0,0.0
1074.3903,662.1317,71944112,0.7,0.11702127,972.6732,244.96465,0.008346144,0.0193851,0.01204586,0.0,0.0,0.0
1089.0531,663.8169,71944129,0.71250004,0.10638297,963.1149,323.71442,0.008346144,0.0193851,0.01204586,0.0,0.0,0.0
1104.8635,665.6472,71944146,0.71250004,0.09574468,984.3235,261.10486,0.008346144,0.0193851,0.01204586,0.0,0.0,0.0
1116.6901,667.14233,71944162,0.7,0.12765957,906.1266,148.67131,0.008346144,0.0193851,0.01204586,0.0,0.0,0.0
1124.0673,667.14233,71944179,0.7,0.12765957,636.0734,28.05942,0.008346144,0.0193851,0.01204586,0.0,0.0,0.0
1128.2346,666.64294,71944196,0.6625,0.11702127,238.57675,-37.404285,0.008346144,0.0193851,0.01204586,0.0,0.0,0.0
1130.437,663.89526,71944213,0.6375,0.09574468,-43.38382,-146.76334,0.008346144,0.0193851,0.01204586,0.0,0.0,0.0
1130.6097,663.58826,71944215,0.425,0.09574468,-64.301,-160.5731,0.008346144,0.0193851,0.01204586,0.0,0.0,0.0
1130.6097,663.58826,71944223,0.425,0.09574468,-64.301,-160.5731,0.008346144,0.0193851,0.01204586,0.0,0.0,0.0
1017.1467,560.52185,71944352,0.6875,0.10638297,0.0,0.0,0.008346144,0.0193851,0.01204586,0.0,0.0,0.0
1017.1467,560.52185,71944380,0.6875,0.11702127,0.03680413,0.025082229,0.008346144,0.0193851,0.01204586,0.0,0.0,0.0
1051.1405,555.63477,71944396,0.71250004,0.08510638,2589.6375,-385.77618,0.008346144,0.0193851,0.01204586,0.0,0.0,0.0
1080.9874,555.1909,71944413,0.6875,0.09574468,2794.9968,-220.22653,0.008346144,0.0193851,0.01204586,0.0,0.0,0.0
1117.0637,555.1909,71944430,0.65000004,0.08510638,3009.6067,-75.221085,0.008346144,0.0193851,0.01204586,0.0,0.0,0.0
1141.1063,556.9679,71944441,0.3,0.12765957,2989.4026,15.860636,0.008346144,0.0193851,0.01204586,0.0,0.0,0.0
1141.1063,556.9679,71944448,0.3,0.12765957,2989.4026,15.860636,0.008346144,0.0193851,0.01204586,0.0,0.0,0.0
