x,y,timestamp,pressure,fingerarea,velocityx,velocityy,accelx,accely,accelz,gyrox,gyroy,gyroz
247.39731,268.20435,13078794,0.5375,0.06382979,0.0,0.0,-0.014478676,0.002222836,0.008552551,0.0,0.0,0.0
247.39731,268.20435,13078819,0.6125,0.06382979,-0.032161504,-0.034160383,-0.014478676,0.002222836,0.008552551,0.0,0.0,0.0
247.39731,268.20435,13078835,0.6375,0.053191487,-0.010196311,-0.014789635,-0.014478676,0.002222836,0.008552551,0.0,0.0,0.0
247.39731,268.20435,13078852,0.6625,0.06382979,-2.98858E-4,1.4445624E-4,-0.014478676,0.002222836,0.008552551,0.0,0.0,0.0
247.39731,268.20435,13078869,0.6625,0.06382979,-0.006825234,-0.010031245,-0.014478676,0.002222836,0.008552551,0.0,0.0,0.0
247.39731,268.20435,13078884,0.71250004,0.06382979,-6.9890346E-4,-3.4278803E-4,-0.014478676,0.002222836,0.008552551,0.0,0.0,0.0
247.39731,268.20435,13078902,0.725,0.08510638,-0.0019428028,-0.0013998938,-0.011582941,-0.014221728,-0.009158134,0.0,0.0,0.0
232.90067,258.22925,13078919,0.7375,0.08510638,-301.33755,-207.34607,-0.011582941,-0.014221728,-0.009158134,0.0,0.0,0.0
224.0907,251.46423,13078935,0.7375,0.10638297,-773.7118,-550.6343,-0.011582941,-0.014221728,-0.009158134,0.0,0.0,0.0
219.36105,246.83997,13078952,0.77500004,0.12765957,-741.14154,-576.5902,-0.011582941,-0.014221728,-0.009158134,0.0,0.0,0.0
215.76205,242.26526,13078969,0.7625,0.11702127,-443.51572,-429.5024,-0.011582941,-0.014221728,-0.009158134,0.0,0.0,0.0
212.60794,238.52759,13078986,0.7875,0.11702127,-0.8237645,-144.95819,-0.011582941,-0.014221728,-0.009158134,0.0,0.0,0.0
209.46045,233.90894,13079002,0.77500004,0.09574468,25.249792,-141.00916,-0.011582941,-0.014221728,-0.009158134,0.0,0.0,0.0
205.5788,226.74292,13079019,0.8,0.09574468,-116.925896,-284.3682,-0.011582941,-0.014221728,-0.009158134,0.0,0.0,0.0
202.76956,220.86084,13079036,0.7875,0.08510638,-180.07637,-397.1761,-0.011582941,-0.014221728,-0.009158134,0.0,0.0,0.0
199.64844,213.97144,13079052,0.7875,0.08510638,-201.53096,-468.78165,-0.011582941,-0.014221728,-0.009158134,0.0,0.0,0.0
197.32205,207.9862,13079069,0.8,0.08510638,-168.72237,-441.96738,-0.011582941,-0.014221728,-0.009158134,0.0,0.0,0.0
195.57904,202.44531,13079086,0.8,0.10638297,-113.16163,-365.5168,-0.011582941,-0.014221728,-0.009158134,0.0,0.0,0.0
194.54828,196.94861,13079103,0.8125,0.12765957,-48.522255,-300.45837,-0.011582941,-0.014221728,-0.009158134,0.0,0.0,0.0
194.41458,191.39478,13079119,0.8,0.12765957,4.45403,-298.59747,-0.011582941,-0.014221728,-0.009158134,0.0,0.0,0.0
194.86676,186.71606,13079136,0.8125,0.12765957,50.115692,-279.5128,-0.011582941,-0.014221728,-0.009158134,0.0,0.0,0.0
195.41425,182.04272,13079153,0.8125,0.10638297,81.3157,-282.85565,-0.011582941,-0.014221728,-0.009158134,0.0,0.0,0.0
196.44888,177.3905,13079169,0.8125,0.08510638,89.85043,-258.12534,-0.011582941,-0.014221728,-0.009158134,0.0,0.0,0.0
197.4884,171.84717,13079186,0.825,0.09574468,89.618706,-283.1467,-0.011582941,-0.014221728,-0.009158134,0.0,0.0,0.0
198.52878,168.28137,13079203,0.825,0.09574468,80.52484,-272.45703,-0.011582941,-0.014221728,-0.009158134,0.0,0.0,0.0
200.7508,164.53687,13079220,0.825,0.09574468,104.891975,-235.93918,-0.011582941,-0.014221728,-0.009158134,0.0,0.0,0.0
202.99396,160.89429,13079236,0.8125,0.09574468,138.98392,-199.63385,-0.011582941,-0.014221728,-0.009158134,0.0,0.0,0.0
206.33862,158.50623,13079253,0.83750004,0.08510638,195.60323,-147.62355,-0.011582941,-0.014221728,-0.009158134,0.0,0.0,0.0
210.50156,156.65625,13079270,0.825,0.08510638,261.25513,-113.204765,-0.011582941,-0.014221728,-0.009158134,0.0,0.0,0.0
215.18192,156.25293,13079286,0.825,0.08510638,304.83292,-35.226135,-0.011582941,-0.014221728,-0.009158134,0.0,0.0,0.0
221.12503,156.86401,13079303,0.83750004,0.08510638,369.24066,56.616383,-0.011582941,-0.014221728,-0.009158134,0.0,0.0,0.0
227.24442,159.41626,13079320,0.8125,0.08510638,406.0926,155.50273,-0.011582941,-0.014221728,-0.009158134,0.0,0.0,0.0
233.47842,163.1101,13079336,0.8125,0.08510638,423.11014,257.81473,-0.011582941,-0.014221728,-0.009158134,0.0,0.0,0.0
239.25604,167.70117,13079353,0.8,0.10638297,407.97043,348.96442,-0.011582941,-0.014221728,-0.009158134,0.0,0.0,0.0
244.974,171.4115,13079370,0.8,0.10638297,360.40088,336.41843,-0.011582941,-0.014221728,-0.009158134,0.0,0.0,0.0
249.60507,175.09668,13079387,0.7875,0.12765957,306.9096,282.8128,-0.011582941,-0.014221728,-0.009158134,0.0,0.0,0.0
254.85828,178.7948,13079403,0.8,0.12765957,276.629,229.39748,-0.011582941,-0.014221728,-0.009158134,0.0,0.0,0.0
260.09064,182.51526,13079420,0.7875,0.12765957,278.114,207.61188,-0.011582941,-0.014221728,-0.009158134,0.0,0.0,0.0
266.5597,186.26562,13079437,0.7875,0.12765957,328.1396,212.39105,0.0067336485,0.020622611,0.024673462,0.0,0.0,0.0
274.37177,189.50403,13079453,0.8,0.09574468,424.9474,215.80428,0.0067336485,0.020622611,0.024673462,0.0,0.0,0.0
282.65097,191.3518,13079470,0.8,0.09574468,528.0439,156.91823,0.0067336485,0.020622611,0.024673462,0.0,0.0,0.0
292.00085,192.68152,13079487,0.8,0.10638297,599.85657,82.78404,0.0067336485,0.020622611,0.024673462,0.0,0.0,0.0
300.62375,193.57007,13079504,0.8,0.10638297,608.60205,15.663797,0.0067336485,0.020622611,0.024673462,0.0,0.0,0.0
307.9376,194.21997,13079520,0.8,0.11702127,527.45044,-19.85048,0.0067336485,0.020622611,0.024673462,0.0,0.0,0.0
315.60858,196.0653,13079537,0.8,0.10638297,442.0443,29.644712,0.0067336485,0.020622611,0.024673462,0.0,0.0,0.0
326.20084,196.2356,13079554,0.8125,0.09574468,474.28174,51.7191,0.0067336485,0.020622611,0.024673462,0.0,0.0,0.0
337.72052,197.10022,13079570,0.8,0.09574468,630.93054,44.190727,0.0067336485,0.020622611,0.024673462,0.0,0.0,0.0
348.74814,197.12402,13079587,0.8,0.10638297,748.1453,16.376572,0.0067336485,0.020622611,0.024673462,0.0,0.0,0.0
359.01898,197.12402,13079604,0.8,0.11702127,746.27515,-15.057045,0.0067336485,0.020622611,0.024673462,0.0,0.0,0.0
368.33154,197.12402,13079621,0.8125,0.10638297,635.1828,-17.5978,0.0067336485,0.020622611,0.024673462,0.0,0.0,0.0
381.46414,197.12402,13079637,0.825,0.10638297,627.01166,-11.179178,0.0067336485,0.020622611,0.024673462,0.0,0.0,0.0
392.35037,196.79077,13079654,0.825,0.09574468,686.7555,-17.908342,0.0067336485,0.020622611,0.024673462,0.0,0.0,0.0
402.40906,194.93994,13079671,0.8,0.10638297,693.4085,-66.29852,0.0067336485,0.020622611,0.024673462,0.0,0.0,0.0
409.9633,193.09058,13079687,0.8125,0.12765957,577.44604,-130.78891,0.0067336485,0.020622611,0.024673462,0.0,0.0,0.0
415.02112,192.15808,13079704,0.8125,0.12765957,330.56403,-134.49586,0.0067336485,0.020622611,0.024673462,0.0,0.0,0.0
418.71982,191.18079,13079721,0.8125,0.12765957,132.0706,-90.233696,0.0067336485,0.020622611,0.024673462,0.0,0.0,0.0
421.61508,190.21643,13079738,0.8125,0.12765957,46.401257,-38.62582,0.0067336485,0.020622611,0.024673462,0.0,0.0,0.0
423.26044,190.01599,13079754,0.825,0.12765957,9.160823,-18.351614,0.0067336485,0.020622611,0.024673462,0.0,0.0,0.0
424.30112,189.19617,13079771,0.825,0.12765957,2.0317872,-14.198391,0.0067336485,0.020622611,0.024673462,0.0,0.0,0.0
424.83957,189.12756,13079788,0.8125,0.12765957,-14.290678,-14.343853,0.0067336485,0.020622611,0.024673462,0.0,0.0,0.0
424.83957,189.12756,13079804,0.8125,0.12765957,-39.040386,0.6577132,0.0067336485,0.020622611,0.024673462,0.0,0.0,0.0
424.83957,189.12756,13079821,0.825,0.12765957,-39.665394,8.032876,0.0067336485,0.020622611,0.024673462,0.0,0.0,0.0
424.83957,189.12756,13079838,0.8,0.12765957,-32.58312,10.72122,0.0067336485,0.020622611,0.024673462,0.0,0.0,0.0
424.83957,189.12756,13079854,0.8,0.12765957,-21.832497,13.998465,0.0067336485,0.020622611,0.024673462,0.0,0.0,0.0
424.83957,189.12756,13079864,0.825,0.12765957,-14.255422,8.720253,0.0067336485,0.020622611,0.024673462,0.0,0.0,0.0
424.83957,188.61829,13079905,0.8125,0.12765957,0.008292397,-10.183839,0.0067336485,0.020622611,0.024673462,0.0,0.0,0.0
424.83957,188.23901,13079921,0.8125,0.12765957,-0.022732692,-31.075106,0.0067336485,0.020622611,0.024673462,0.0,0.0,0.0
424.83957,188.23901,13079938,0.8,0.12765957,0.00897992,-17.896862,0.0067336485,0.020622611,0.024673462,0.0,0.0,0.0
424.83957,188.23901,13079955,0.8125,0.12765957,-0.0029977541,-3.620885,0.0067336485,0.020622611,0.024673462,0.0,0.0,0.0
424.83957,188.23901,13079960,0.825,0.12765957,-0.0059414413,0.5117302,-0.010613084,-0.015501916,0.019739151,0.0,0.0,0.0
424.83957,188.23901,13079981,0.8125,0.12765957,-0.0140752755,13.431106,-0.010613084,-0.015501916,0.019739151,0.0,0.0,0.0
424.83957,188.23901,13080005,0.8125,0.12765957,-0.034172427,-0.015706744,-0.010613084,-0.015501916,0.019739151,0.0,0.0,0.0
424.83957,188.23901,13080017,0.825,0.12765957,-0.011396729,-0.004404924,-0.010613084,-0.015501916,0.019739151,0.0,0.0,0.0
424.83957,188.23901,13080037,0.8125,0.12765957,-0.018722963,-0.009149959,-0.010613084,-0.015501916,0.019739151,0.0,0.0,0.0
424.83957,187.35059,13080105,0.8125,0.12765957,-0.098843895,-0.040990528,-0.010613084,-0.015501916,0.019739151,0.0,0.0,0.0
424.83957,186.46204,13080139,0.8125,0.12765957,-0.1034143,-41.84841,-0.010613084,-0.015501916,0.019739151,0.0,0.0,0.0
424.83957,186.46204,13080155,0.825,0.12765957,0.028144108,-3.4969964,-0.010613084,-0.015501916,0.019739151,0.0,0.0,0.0
424.83957,186.46204,13080172,0.825,0.12765957,-0.01340978,7.769316,-0.010613084,-0.015501916,0.019739151,0.0,0.0,0.0
424.83957,185.57349,13080205,0.825,0.12765957,0.005287,-32.85472,-0.010613084,-0.015501916,0.019739151,0.0,0.0,0.0
423.80273,185.57349,13080222,0.825,0.12765957,-33.56167,-18.990334,-0.010613084,-0.015501916,0.019739151,0.0,0.0,0.0
422.76364,185.57349,13080239,0.8125,0.12765957,-68.081276,-2.293674,-0.010613084,-0.015501916,0.019739151,0.0,0.0,0.0
421.72522,185.57349,13080255,0.825,0.12765957,-88.0136,10.137505,-0.010613084,-0.015501916,0.019739151,0.0,0.0,0.0
420.6874,185.57349,13080272,0.8125,0.12765957,-77.72354,0.014033846,-0.010613084,-0.015501916,0.019739151,0.0,0.0,0.0
419.6467,185.57349,13080289,0.8125,0.12765957,-74.664375,0.015042025,-0.010613084,-0.015501916,0.019739151,0.0,0.0,0.0
418.6072,185.57349,13080306,0.825,0.12765957,-62.78964,-0.002680539,-0.010613084,-0.015501916,0.019739151,0.0,0.0,0.0
417.0677,185.57349,13080322,0.8125,0.12765957,-77.2612,0.021937996,-0.010613084,-0.015501916,0.019739151,0.0,0.0,0.0
415.21915,185.57349,13080339,0.825,0.12765957,-101.40736,0.0037222274,-0.010613084,-0.015501916,0.019739151,0.0,0.0,0.0
413.13522,186.20276,13080356,0.825,0.12765957,-131.81787,11.112507,-0.010613084,-0.015501916,0.019739151,0.0,0.0,0.0
411.05203,188.0542,13080372,0.825,0.09574468,-148.10443,72.00182,-0.010613084,-0.015501916,0.019739151,0.0,0.0,0.0
409.01495,189.86475,13080389,0.825,0.10638297,-140.15413,131.12984,-0.010613084,-0.015501916,0.019739151,0.0,0.0,0.0
406.90747,191.73792,13080406,0.825,0.09574468,-130.53136,160.75897,-0.010613084,-0.015501916,0.019739151,0.0,0.0,0.0
403.80695,196.28235,13080423,0.8125,0.08510638,-154.98346,228.12567,-0.010613084,-0.015501916,0.019739151,0.0,0.0,0.0
401.73105,201.87598,13080439,0.8125,0.08510638,-162.41527,320.36893,-0.010613084,-0.015501916,0.019739151,0.0,0.0,0.0
399.06363,208.45984,13080456,0.825,0.08510638,-162.86795,426.0299,-0.010613084,-0.015501916,0.019739151,0.0,0.0,0.0
397.0847,215.83215,13080473,0.825,0.08510638,-143.94896,511.07288,-0.010613084,-0.015501916,0.019739151,0.0,0.0,0.0
395.67944,222.01782,13080489,0.825,0.10638297,-106.2648,500.33627,-0.010613084,-0.015501916,0.019739151,0.0,0.0,0.0
394.84933,227.58044,13080506,0.825,0.10638297,-60.04142,417.0431,0.023509532,-0.012401521,-2.07901E-4,0.0,0.0,0.0
394.84933,233.56348,13080523,0.8125,0.10638297,7.3119864,324.27686,0.023509532,-0.012401521,-2.07901E-4,0.0,0.0,0.0
394.84933,240.43774,13080540,0.825,0.09574468,44.709507,340.61096,0.023509532,-0.012401521,-2.07901E-4,0.0,0.0,0.0
395.16995,247.38293,13080556,0.8125,0.09574468,48.55102,401.6985,0.023509532,-0.012401521,-2.07901E-4,0.0,0.0,0.0
395.849,256.7245,13080573,0.825,0.08510638,55.94006,498.60156,0.023509532,-0.012401521,-2.07901E-4,0.0,0.0,0.0
396.34885,267.86523,13080590,0.825,0.08510638,54.249657,634.1776,0.023509532,-0.012401521,-2.07901E-4,0.0,0.0,0.0
396.34885,278.2611,13080606,0.825,0.09574468,34.658848,724.963,0.023509532,-0.012401521,-2.07901E-4,0.0,0.0,0.0
396.34885,285.89404,13080623,0.8125,0.10638297,5.435328,681.7215,0.023509532,-0.012401521,-2.07901E-4,0.0,0.0,0.0
395.81946,296.063,13080640,0.825,0.09574468,-29.11148,567.22375,0.023509532,-0.012401521,-2.07901E-4,0.0,0.0,0.0
395.849,308.15833,13080657,0.8125,0.08510638,-31.199924,596.75214,0.023509532,-0.012401521,-2.07901E-4,0.0,0.0,0.0
395.9588,322.18726,13080673,0.825,0.08510638,-19.368996,767.3237,0.023509532,-0.012401521,-2.07901E-4,0.0,0.0,0.0
397.17432,335.9796,13080690,0.8,0.10638297,29.50269,926.0065,0.023509532,-0.012401521,-2.07901E-4,0.0,0.0,0.0
399.222,350.82874,13080707,0.8125,0.09574468,108.95981,983.9089,0.023509532,-0.012401521,-2.07901E-4,0.0,0.0,0.0
402.03064,369.50574,13080723,0.825,0.08510638,195.31635,1048.272,0.023509532,-0.012401521,-2.07901E-4,0.0,0.0,0.0
404.11063,385.69043,13080740,0.825,0.09574468,214.73343,1126.1298,0.023509532,-0.012401521,-2.07901E-4,0.0,0.0,0.0
405.15594,399.667,13080757,0.8125,0.12765957,137.8713,1026.7086,0.023509532,-0.012401521,-2.07901E-4,0.0,0.0,0.0
406.54547,414.807,13080774,0.825,0.08510638,59.234135,870.4353,0.023509532,-0.012401521,-2.07901E-4,0.0,0.0,0.0
407.73306,431.87305,13080790,0.8,0.08510638,34.241127,853.66724,0.023509532,-0.012401521,-2.07901E-4,0.0,0.0,0.0
408.76736,445.0796,13080807,0.8,0.10638297,39.73513,875.71735,0.023509532,-0.012401521,-2.07901E-4,0.0,0.0,0.0
409.3446,457.12036,13080824,0.8,0.12765957,52.069324,825.3482,0.023509532,-0.012401521,-2.07901E-4,0.0,0.0,0.0
407.82162,470.06152,13080840,0.8125,0.08510638,-31.19526,694.6511,0.023509532,-0.012401521,-2.07901E-4,0.0,0.0,0.0
404.15958,482.91418,13080857,0.7875,0.08510638,-176.63243,664.1439,0.023509532,-0.012401521,-2.07901E-4,0.0,0.0,0.0
398.5413,492.3656,13080874,0.8125,0.09574468,-333.1306,627.3907,0.023509532,-0.012401521,-2.07901E-4,0.0,0.0,0.0
391.71152,497.3086,13080891,0.8125,0.12765957,-477.68756,453.53912,0.023509532,-0.012401521,-2.07901E-4,0.0,0.0,0.0
380.27603,505.13477,13080907,0.7875,0.12765957,-665.7138,296.84393,0.023509532,-0.012401521,-2.07901E-4,0.0,0.0,0.0
364.37466,512.25635,13080924,0.8,0.10638297,-908.8742,262.01965,0.023509532,-0.012401521,-2.07901E-4,0.0,0.0,0.0
346.15457,517.8655,13080941,0.8125,0.09574468,-1232.4287,354.35284,0.023509532,-0.012401521,-2.07901E-4,0.0,0.0,0.0
329.3232,518.7622,13080957,0.7875,0.10638297,-1323.619,224.89207,0.023509532,-0.012401521,-2.07901E-4,0.0,0.0,0.0
313.84286,518.18396,13080974,0.7875,0.10638297,-1158.0519,-52.183086,0.023509532,-0.012401521,-2.07901E-4,0.0,0.0,0.0
294.5543,514.14355,13080991,0.8125,0.10638297,-1050.265,-315.96988,0.023509532,-0.012401521,-2.07901E-4,0.0,0.0,0.0
277.0369,509.5382,13081008,0.7875,0.12765957,-1041.7349,-454.56424,0.023509532,-0.012401521,-2.07901E-4,0.0,0.0,0.0
262.6981,503.98816,13081024,0.8,0.11702127,-1022.41315,-472.16864,0.023509532,-0.012401521,-2.07901E-4,0.0,0.0,0.0
249.04694,495.75647,13081041,0.8,0.08510638,-881.7176,-516.80145,-0.0131923705,-0.02592121,0.03183365,0.0,0.0,0.0
239.17264,487.46265,13081058,0.8125,0.08510638,-626.3545,-580.00226,-0.0131923705,-0.02592121,0.03183365,0.0,0.0,0.0
232.48975,480.068,13081074,0.8125,0.09574468,-379.05374,-566.3599,-0.0131923705,-0.02592121,0.03183365,0.0,0.0,0.0
229.08093,474.65283,13081091,0.8125,0.10638297,-164.059,-465.7113,-0.0131923705,-0.02592121,0.03183365,0.0,0.0,0.0
227.73798,472.2655,13081108,0.8,0.09574468,43.11712,-246.72348,-0.0131923705,-0.02592121,0.03183365,0.0,0.0,0.0
227.40384,469.49744,13081125,0.77500004,0.09574468,159.95087,-77.6523,-0.0131923705,-0.02592121,0.03183365,0.0,0.0,0.0
227.90366,469.89453,13081131,0.6125,0.09574468,184.987,-16.701412,-0.0131923705,-0.02592121,0.03183365,0.0,0.0,0.0
227.90366,469.89453,13081137,0.6125,0.09574468,184.987,-16.701412,-0.0131923705,-0.02592121,0.03183365,0.0,0.0,0.0
348.8643,374.8247,13081428,0.71250004,0.06382979,0.0,0.0,-0.0131923705,-0.02592121,0.03183365,0.0,0.0,0.0
348.8643,374.8247,13081459,0.77500004,0.08510638,-0.036632728,-0.03662272,-0.0131923705,-0.02592121,0.03183365,0.0,0.0,0.0
348.8643,374.8247,13081475,0.7875,0.08510638,-0.034359243,-0.038401887,-0.0131923705,-0.02592121,0.03183365,0.0,0.0,0.0
348.8643,374.8247,13081492,0.8125,0.08510638,6.09022E-4,6.7856937E-4,-0.0131923705,-0.02592121,0.03183365,0.0,0.0,0.0
371.24966,364.9203,13081509,0.8125,0.10638297,865.101,-390.01746,-0.0131923705,-0.02592121,0.03183365,0.0,0.0,0.0
390.0393,362.26843,13081526,0.8125,0.09574468,1329.4954,-425.21152,-0.0131923705,-0.02592121,0.03183365,0.0,0.0,0.0
407.8451,360.60864,13081541,0.7875,0.11702127,1571.4008,-350.55457,-0.0131923705,-0.02592121,0.03183365,0.0,0.0,0.0
431.33743,360.60864,13081557,0.625,0.09574468,1785.4749,-179.65483,0.037446097,0.02726303,-0.006532669,0.0,0.0,0.0
431.33743,360.60864,13081564,0.625,0.09574468,1785.4749,-179.65483,0.037446097,0.02726303,-0.006532669,0.0,0.0,0.0
508.31238,388.15222,13083044,0.6125,0.07446808,0.0,0.0,-0.014434494,-0.011351645,-9.803772E-4,0.0,0.0,0.0
508.31238,388.15222,13083063,0.6625,0.07446808,-0.024247898,-0.01737803,-0.014434494,-0.011351645,-9.803772E-4,0.0,0.0,0.0
508.31238,388.15222,13083080,0.7,0.08510638,-0.03043804,-0.023932043,-0.014434494,-0.011351645,-9.803772E-4,0.0,0.0,0.0
508.31238,388.15222,13083096,0.75,0.08510638,-0.013162375,-0.010472237,-0.014434494,-0.011351645,-9.803772E-4,0.0,0.0,0.0
508.31238,388.15222,13083113,0.7625,0.08510638,0.0027377892,0.0037048892,-0.014434494,-0.011351645,-9.803772E-4,0.0,0.0,0.0
508.31238,388.15222,13083130,0.77500004,0.09574468,-0.07806419,-0.059914865,-0.014434494,-0.011351645,-9.803772E-4,0.0,0.0,0.0
508.31238,388.15222,13083144,0.77500004,0.10638297,-0.024741923,-0.018779356,-0.014434494,-0.011351645,-9.803772E-4,0.0,0.0,0.0
501.08917,407.85632,13083163,0.7875,0.09574468,-219.16649,599.1787,0.0044524036,0.022918686,0.01521492,0.0,0.0,0.0
498.85712,420.76782,13083180,0.77500004,0.08510638,-320.49384,1041.9023,0.0044524036,0.022918686,0.01521492,0.0,0.0,0.0
498.3156,432.00818,13083197,0.8,0.08510638,-211.3001,1099.1326,0.0044524036,0.022918686,0.01521492,0.0,0.0,0.0
499.38324,441.05713,13083213,0.8,0.09574468,-0.24393612,843.06335,0.0044524036,0.022918686,0.01521492,0.0,0.0,0.0
501.53247,447.37427,13083230,0.7875,0.10638297,195.05048,450.03983,0.0044524036,0.022918686,0.01521492,0.0,0.0,0.0
504.8166,452.72058,13083247,0.8125,0.09574468,259.23196,239.78757,0.0044524036,0.022918686,0.01521492,0.0,0.0,0.0
510.7152,460.0067,13083263,0.7875,0.10638297,343.506,202.27132,0.0044524036,0.022918686,0.01521492,0.0,0.0,0.0
517.6769,466.6671,13083280,0.77500004,0.08510638,463.45593,321.03235,0.0044524036,0.022918686,0.01521492,0.0,0.0,0.0
524.6723,471.7301,13083297,0.7875,0.09574468,537.36554,383.11472,0.0044524036,0.022918686,0.01521492,0.0,0.0,0.0
532.0655,473.99365,13083314,0.8,0.09574468,534.19464,260.27133,0.0044524036,0.022918686,0.01521492,0.0,0.0,0.0
540.54114,473.72864,13083330,0.7875,0.08510638,522.96234,26.032541,0.0044524036,0.022918686,0.01521492,0.0,0.0,0.0
549.6089,470.3645,13083347,0.7875,0.09574468,532.16626,-246.99655,0.0044524036,0.022918686,0.01521492,0.0,0.0,0.0
558.52057,464.364,13083364,0.7875,0.10638297,575.75555,-436.105,0.0044524036,0.022918686,0.01521492,0.0,0.0,0.0
566.07,457.65417,13083380,0.7625,0.12765957,552.2072,-569.75037,0.0044524036,0.022918686,0.01521492,0.0,0.0,0.0
571.3201,449.4087,13083397,0.8,0.08510638,398.80838,-607.818,0.0044524036,0.022918686,0.01521492,0.0,0.0,0.0
579.3292,431.20667,13083414,0.77500004,0.09574468,344.01532,-857.5147,0.0044524036,0.022918686,0.01521492,0.0,0.0,0.0
582.02466,419.7672,13083431,0.77500004,0.11702127,242.64983,-992.4156,0.0044524036,0.022918686,0.01521492,0.0,0.0,0.0
583.5223,410.21228,13083447,0.77500004,0.12765957,119.75001,-935.66626,0.0044524036,0.022918686,0.01521492,0.0,0.0,0.0
584.28766,402.14624,13083464,0.7875,0.11702127,1.9010582,-689.7189,0.0044524036,0.022918686,0.01521492,0.0,0.0,0.0
584.28766,395.5874,13083481,0.77500004,0.09574468,-104.64778,-366.5184,0.0044524036,0.022918686,0.01521492,0.0,0.0,0.0
584.28766,389.96045,13083497,0.7875,0.09574468,-89.895325,-213.57126,0.0044524036,0.022918686,0.01521492,0.0,0.0,0.0
584.28766,387.65186,13083514,0.7875,0.09574468,-49.074368,-126.41054,0.0044524036,0.022918686,0.01521492,0.0,0.0,0.0
584.28766,385.8048,13083531,0.8,0.09574468,-23.298065,-32.39918,0.0044524036,0.022918686,0.01521492,0.0,0.0,0.0
583.92645,385.48682,13083547,0.77500004,0.09574468,-6.344225,57.338394,0.0044524036,0.022918686,0.01521492,0.0,0.0,0.0
583.39056,388.67603,13083564,0.8,0.11702127,-25.742426,181.9627,0.0044524036,0.022918686,0.01521492,0.0,0.0,0.0
581.85345,395.68652,13083581,0.7875,0.12765957,-71.02604,372.35156,0.0044524036,0.022918686,0.01521492,0.0,0.0,0.0
580.81024,404.84363,13083598,0.7875,0.10638297,-98.85532,617.6441,0.0044524036,0.022918686,0.01521492,0.0,0.0,0.0
578.75104,415.0122,13083614,0.7875,0.08510638,-122.23616,780.102,0.0044524036,0.022918686,0.01521492,0.0,0.0,0.0
579.3264,424.97644,13083631,0.8125,0.08510638,-66.526375,786.09467,0.0044524036,0.022918686,0.01521492,0.0,0.0,0.0
579.8935,436.3562,13083648,0.7875,0.08510638,16.374342,753.52124,0.0044524036,0.022918686,0.01521492,0.0,0.0,0.0
581.44037,443.42993,13083664,0.7875,0.12765957,107.34278,610.9399,0.0044524036,0.022918686,0.01521492,0.0,0.0,0.0
584.13947,450.7091,13083681,0.77500004,0.12765957,183.62206,463.28738,0.0044524036,0.022918686,0.01521492,0.0,0.0,0.0
586.72266,457.72876,13083698,0.7875,0.11702127,218.43044,371.97186,0.0035619251,0.034334958,0.028172493,0.0,0.0,0.0
588.79956,461.92175,13083715,0.8,0.09574468,191.4096,260.43628,0.0035619251,0.034334958,0.028172493,0.0,0.0,0.0
591.76636,466.75964,13083731,0.77500004,0.08510638,167.97415,217.8577,0.0035619251,0.034334958,0.028172493,0.0,0.0,0.0
595.62286,471.67896,13083748,0.7875,0.08510638,199.87628,199.72939,0.0035619251,0.034334958,0.028172493,0.0,0.0,0.0
600.13696,476.5437,13083765,0.7875,0.08510638,259.10153,235.3935,0.0035619251,0.034334958,0.028172493,0.0,0.0,0.0
605.1389,479.47803,13083781,0.77500004,0.08510638,323.6136,245.70927,0.0035619251,0.034334958,0.028172493,0.0,0.0,0.0
611.01135,480.55664,13083798,0.7875,0.08510638,374.2543,136.82584,0.0035619251,0.034334958,0.028172493,0.0,0.0,0.0
617.7255,480.55664,13083815,0.77500004,0.08510638,411.82565,-28.756046,0.0035619251,0.034334958,0.028172493,0.0,0.0,0.0
623.9153,478.73804,13083832,0.77500004,0.08510638,435.32928,-151.22484,0.0035619251,0.034334958,0.028172493,0.0,0.0,0.0
629.8757,474.86853,13083848,0.7625,0.09574468,400.34042,-259.39,0.0035619251,0.034334958,0.028172493,0.0,0.0,0.0
634.238,471.25708,13083865,0.7625,0.11702127,332.1442,-318.5118,0.0035619251,0.034334958,0.028172493,0.0,0.0,0.0
637.7886,467.50354,13083882,0.7625,0.12765957,233.71141,-325.4318,0.0035619251,0.034334958,0.028172493,0.0,0.0,0.0
641.33154,463.89722,13083898,0.77500004,0.12765957,165.28145,-292.8696,0.0035619251,0.034334958,0.028172493,0.0,0.0,0.0
643.7279,460.19275,13083915,0.77500004,0.12765957,125.73614,-232.81288,0.0035619251,0.034334958,0.028172493,0.0,0.0,0.0
646.2141,457.05872,13083932,0.77500004,0.12765957,103.40898,-206.71909,0.0035619251,0.034334958,0.028172493,0.0,0.0,0.0
649.3824,454.2428,13083949,0.77500004,0.10638297,134.7612,-179.21716,0.0035619251,0.034334958,0.028172493,0.0,0.0,0.0
651.44775,451.80115,13083965,0.7875,0.10638297,135.83107,-131.94885,0.0035619251,0.034334958,0.028172493,0.0,0.0,0.0
653.8778,449.0293,13083982,0.77500004,0.08510638,131.22614,-120.6907,0.0035619251,0.034334958,0.028172493,0.0,0.0,0.0
655.18195,446.9402,13083999,0.77500004,0.08510638,110.52385,-128.29546,0.0035619251,0.034334958,0.028172493,0.0,0.0,0.0
656.2215,445.0924,13084015,0.7875,0.08510638,54.032814,-117.728714,0.0035619251,0.034334958,0.028172493,0.0,0.0,0.0
657.76556,443.2362,13084032,0.77500004,0.08510638,49.760143,-100.10265,0.0035619251,0.034334958,0.028172493,0.0,0.0,0.0
659.91345,441.32886,13084049,0.7875,0.08510638,77.211494,-87.81019,0.0035619251,0.034334958,0.028172493,0.0,0.0,0.0
661.4831,439.48938,13084065,0.77500004,0.08510638,101.29254,-98.209526,0.0035619251,0.034334958,0.028172493,0.0,0.0,0.0
663.6794,437.53748,13084082,0.75,0.08510638,133.18558,-112.52994,0.0035619251,0.034334958,0.028172493,0.0,0.0,0.0
664.9248,435.8412,13084099,0.8,0.08510638,121.4885,-113.38634,0.0035619251,0.034334958,0.028172493,0.0,0.0,0.0
666.66895,433.62915,13084116,0.77500004,0.08510638,101.14625,-118.7073,0.0035619251,0.034334958,0.028172493,0.0,0.0,0.0
668.72266,429.97864,13084132,0.77500004,0.08510638,105.022606,-176.97215,0.0035619251,0.034334958,0.028172493,0.0,0.0,0.0
670.25183,426.37195,13084149,0.77500004,0.08510638,100.93432,-236.89685,0.0035619251,0.034334958,0.028172493,0.0,0.0,0.0
672.0328,422.71973,13084166,0.77500004,0.08510638,109.14639,-262.81808,0.0035619251,0.034334958,0.028172493,0.0,0.0,0.0
673.9876,418.84265,13084182,0.77500004,0.09574468,109.149055,-262.99716,0.0035619251,0.034334958,0.028172493,0.0,0.0,0.0
675.98016,415.30066,13084199,0.77500004,0.12765957,110.70381,-233.16733,0.0035619251,0.034334958,0.028172493,0.0,0.0,0.0
678.6472,410.5598,13084216,0.7875,0.12765957,145.23262,-251.84764,0.0035619251,0.034334958,0.028172493,0.0,0.0,0.0
681.2257,405.11487,13084233,0.77500004,0.12765957,170.3824,-298.79764,0.0028495416,0.05146797,0.08653736,2.5165823E-6,0.0,0.0
683.29944,399.58545,13084249,0.7875,0.08510638,158.25906,-352.53946,0.0028495416,0.05146797,0.08653736,2.5165823E-6,0.0,0.0
687.9945,387.51086,13084266,0.77500004,0.09574468,209.0599,-561.96893,0.0028495416,0.05146797,0.08653736,2.5165823E-6,0.0,0.0
692.7825,375.2827,13084283,0.7625,0.09574468,278.25055,-770.9421,0.0028495416,0.05146797,0.08653736,2.5165823E-6,0.0,0.0
694.9995,364.61816,13084299,0.7625,0.12765957,266.07913,-853.90546,0.0028495416,0.05146797,0.08653736,0.0,0.0,0.0
698.3591,353.115,13084316,0.7625,0.12765957,222.60643,-825.1987,0.0028495416,0.05146797,0.08653736,0.0,0.0,0.0
700.8417,339.84644,13084333,0.7375,0.09574468,121.49098,-724.1731,0.0028495416,0.05146797,0.08653736,0.0,0.0,0.0
704.7481,323.29382,13084350,0.7875,0.08510638,167.4763,-912.4733,0.0028495416,0.05146797,0.08653736,0.0,0.0,0.0
707.1359,309.83484,13084366,0.7625,0.10638297,188.5199,-1004.62964,0.0028495416,0.05146797,0.08653736,0.0,0.0,0.0
709.72845,297.59033,13084383,0.7625,0.12765957,167.82607,-908.1006,0.0028495416,0.05146797,0.08653736,0.0,0.0,0.0
714.1074,285.29285,13084400,0.77500004,0.08510638,186.91621,-714.1193,0.0028495416,0.05146797,0.08653736,0.0,0.0,0.0
718.8803,272.00037,13084416,0.77500004,0.08510638,251.18787,-641.09326,0.0028495416,0.05146797,0.08653736,0.0,0.0,0.0
722.05475,260.76465,13084433,0.77500004,0.10638297,287.0827,-689.0256,0.0028495416,0.05146797,0.08653736,0.0,0.0,0.0
724.2268,249.61365,13084450,0.77500004,0.12765957,219.1191,-690.85535,0.0028495416,0.05146797,0.08653736,0.0,0.0,0.0
725.27826,241.28967,13084467,0.77500004,0.10638297,82.994255,-570.50385,0.0028495416,0.05146797,0.08653736,0.0,0.0,0.0
726.88245,232.92542,13084483,0.77500004,0.08510638,12.560047,-442.45966,0.0028495416,0.05146797,0.08653736,0.0,0.0,0.0
726.7413,225.67322,13084500,0.7625,0.06382979,-16.697172,-380.3806,0.0028495416,0.05146797,0.08653736,0.0,0.0,0.0
726.7413,218.12073,13084517,0.77500004,0.08510638,-31.918201,-366.3989,0.0028495416,0.05146797,0.08653736,0.0,0.0,0.0
726.24146,213.0133,13084533,0.7625,0.08510638,-50.317787,-330.57968,0.0028495416,0.05146797,0.08653736,0.0,0.0,0.0
726.1017,209.06616,13084550,0.77500004,0.08510638,-53.144646,-250.00302,0.0028495416,0.05146797,0.08653736,0.0,0.0,0.0
724.97626,206.42566,13084567,0.77500004,0.08510638,-58.429653,-136.0711,0.0028495416,0.05146797,0.08653736,0.0,0.0,0.0
723.63367,204.57983,13084583,0.7875,0.10638297,-79.103775,-41.215714,0.0028495416,0.05146797,0.08653736,0.0,0.0,0.0
721.7543,203.34363,13084600,0.7875,0.08510638,-112.23515,-3.5436134,0.0028495416,0.05146797,0.08653736,0.0,0.0,0.0
718.6052,203.34363,13084617,0.7875,0.08510638,-175.72368,36.029564,0.0028495416,0.05146797,0.08653736,0.0,0.0,0.0
715.9949,204.08398,13084634,0.7875,0.08510638,-206.20195,63.592064,0.0028495416,0.05146797,0.08653736,0.0,0.0,0.0
710.0736,211.73071,13084650,0.8,0.09574468,-273.82755,243.73946,0.0028495416,0.05146797,0.08653736,0.0,0.0,0.0
704.7089,222.9784,13084667,0.7875,0.11702127,-380.21173,653.1297,0.0028495416,0.05146797,0.08653736,0.0,0.0,0.0
700.5525,232.21411,13084684,0.77500004,0.12765957,-372.81433,842.4808,0.0028495416,0.05146797,0.08653736,0.0,0.0,0.0
695.8471,243.2998,13084700,0.7875,0.11702127,-328.9139,880.3462,0.0028495416,0.05146797,0.08653736,0.0,0.0,0.0
691.1513,254.81006,13084717,0.8,0.08510638,-276.32764,791.9484,0.0028495416,0.05146797,0.08653736,0.0,0.0,0.0
686.5699,269.74854,13084734,0.7875,0.08510638,-248.87842,795.7162,0.0028495416,0.05146797,0.08653736,0.0,0.0,0.0
682.67664,283.38696,13084751,0.8125,0.12765957,-261.91107,903.7619,0.0028495416,0.05146797,0.08653736,0.0,0.0,0.0
679.5654,297.65564,13084767,0.7875,0.10638297,-203.50243,934.4305,-0.045720365,-0.046825618,-0.074769974,0.0,0.0,0.0
676.4047,314.1277,13084784,0.7875,0.08510638,-157.12073,965.6141,-0.045720365,-0.046825618,-0.074769974,0.0,0.0,0.0
673.02576,329.79138,13084801,0.8,0.09574468,-153.37471,990.7392,-0.045720365,-0.046825618,-0.074769974,0.0,0.0,0.0
669.3824,344.1803,13084817,0.8,0.10638297,-185.228,956.35046,-0.045720365,-0.046825618,-0.074769974,0.0,0.0,0.0
666.1363,357.94177,13084834,0.8,0.08510638,-209.3064,859.22034,-0.045720365,-0.046825618,-0.074769974,0.0,0.0,0.0
662.99664,374.3235,13084851,0.7875,0.08510638,-202.10281,822.27594,-0.045720365,-0.046825618,-0.074769974,0.0,0.0,0.0
661.3136,386.99158,13084868,0.8125,0.10638297,-146.44849,831.5578,-0.045720365,-0.046825618,-0.074769974,0.0,0.0,0.0
660.7444,398.1217,13084884,0.8,0.12765957,-53.21996,768.61896,-0.045720365,-0.046825618,-0.074769974,0.0,0.0,0.0
659.201,409.25183,13084901,0.8,0.08510638,-22.649773,649.13,-0.045720365,-0.046825618,-0.074769974,0.0,0.0,0.0
659.26324,422.24036,13084918,0.8,0.08510638,8.3816805,625.9453,-0.045720365,-0.046825618,-0.074769974,0.0,0.0,0.0
659.26324,434.92993,13084934,0.8125,0.10638297,24.84782,700.20624,-0.045720365,-0.046825618,-0.074769974,0.0,0.0,0.0
659.26324,443.5371,13084951,0.7875,0.12765957,27.378899,688.9273,-0.045720365,-0.046825618,-0.074769974,0.0,0.0,0.0
659.26324,451.7577,13084968,0.8,0.12765957,29.92503,533.38916,-0.045720365,-0.046825618,-0.074769974,0.0,0.0,0.0
659.26324,459.26843,13084985,0.7875,0.10638297,5.1125956,350.17444,-0.045720365,-0.046825618,-0.074769974,0.0,0.0,0.0
659.76306,466.67578,13085001,0.7875,0.08510638,14.778622,325.65625,-0.045720365,-0.046825618,-0.074769974,0.0,0.0,0.0
659.76306,473.95935,13085018,0.8,0.08510638,19.120937,390.15314,-0.045720365,-0.046825618,-0.074769974,0.0,0.0,0.0
659.76306,479.86548,13085035,0.7875,0.08510638,11.304134,386.3881,-0.045720365,-0.046825618,-0.074769974,0.0,0.0,0.0
659.76306,484.6692,13085051,0.8125,0.08510638,-0.8330748,307.81165,-0.045720365,-0.046825618,-0.074769974,0.0,0.0,0.0
660.26294,487.55884,13085068,0.7875,0.08510638,5.974295,197.84427,-0.045720365,-0.046825618,-0.074769974,0.0,0.0,0.0
660.26294,489.4265,13085085,0.7875,0.08510638,13.262324,70.42774,-0.045720365,-0.046825618,-0.074769974,0.0,0.0,0.0
660.26294,491.27356,13085102,0.7875,0.08510638,9.501673,16.75046,-0.045720365,-0.046825618,-0.074769974,0.0,0.0,0.0
660.26294,491.21863,13085118,0.7875,0.08510638,-0.9590174,-24.02064,-0.045720365,-0.046825618,-0.074769974,0.0,0.0,0.0
660.26294,491.21863,13085135,0.8,0.08510638,-7.9072995,-49.011185,-0.045720365,-0.046825618,-0.074769974,0.0,0.0,0.0
660.26294,491.21863,13085158,0.7875,0.08510638,0.013646208,-56.366062,-0.045720365,-0.046825618,-0.074769974,0.0,0.0,0.0
660.26294,491.21863,13085185,0.8,0.08510638,0.039917227,-11.6624565,-0.045720365,-0.046825618,-0.074769974,0.0,0.0,0.0
660.26294,491.21863,13085202,0.7875,0.08510638,-0.044239484,-0.032084163,-0.045720365,-0.046825618,-0.074769974,0.0,0.0,0.0
660.26294,491.21863,13085219,0.8,0.08510638,0.04173066,0.028701507,-0.045720365,-0.046825618,-0.074769974,0.0,0.0,0.0
661.10583,490.60876,13085235,0.7875,0.08510638,28.580853,-15.160104,-0.045720365,-0.046825618,-0.074769974,0.0,0.0,0.0
662.5309,488.75854,13085252,0.7875,0.08510638,67.71581,-74.58412,-0.045720365,-0.046825618,-0.074769974,0.0,0.0,0.0
664.1799,486.9214,13085269,0.8125,0.08510638,126.281586,-143.03682,-0.045720365,-0.046825618,-0.074769974,0.0,0.0,0.0
666.1826,485.06873,13085285,0.77500004,0.08510638,145.26936,-159.92798,-0.045720365,-0.046825618,-0.074769974,0.0,0.0,0.0
668.2783,483.20618,13085302,0.77500004,0.08510638,149.88219,-145.14642,0.011423707,0.026539505,0.052184105,0.0,0.0,0.0
670.3525,481.36255,13085319,0.8,0.08510638,143.93706,-121.43373,0.011423707,0.026539505,0.052184105,0.0,0.0,0.0
673.516,479.51562,13085335,0.7875,0.08510638,168.05475,-113.10718,0.011423707,0.026539505,0.052184105,0.0,0.0,0.0
676.75653,476.5592,13085352,0.77500004,0.08510638,197.77257,-137.72813,0.011423707,0.026539505,0.052184105,0.0,0.0,0.0
678.4168,475.08362,13085369,0.8,0.08510638,177.23033,-138.87276,0.011423707,0.026539505,0.052184105,0.0,0.0,0.0
681.1628,473.08728,13085386,0.77500004,0.10638297,163.14674,-130.56784,0.011423707,0.026539505,0.052184105,0.0,0.0,0.0
683.74286,471.2384,13085402,0.7875,0.10638297,136.75124,-109.51848,0.011423707,0.026539505,0.052184105,0.0,0.0,0.0
686.108,469.38904,13085419,0.7875,0.10638297,134.83043,-96.1802,0.011423707,0.026539505,0.052184105,0.0,0.0,0.0
688.356,467.58252,13085436,0.7875,0.11702127,139.70187,-101.32758,0.011423707,0.026539505,0.052184105,0.0,0.0,0.0
690.972,464.81323,13085452,0.77500004,0.12765957,142.87502,-135.06117,0.011423707,0.026539505,0.052184105,0.0,0.0,0.0
693.0366,462.97815,13085469,0.7875,0.12765957,138.9979,-143.87894,0.011423707,0.026539505,0.052184105,0.0,0.0,0.0
695.5478,460.3623,13085486,0.7625,0.12765957,131.2548,-143.1273,0.011423707,0.026539505,0.052184105,0.0,0.0,0.0
698.20245,456.65247,13085503,0.7625,0.12765957,147.0144,-181.574,0.011423707,0.026539505,0.052184105,0.0,0.0,0.0
701.8008,452.95215,13085519,0.7625,0.10638297,193.12027,-234.68726,0.011423707,0.026539505,0.052184105,0.0,0.0,0.0
704.9183,449.2577,13085536,0.7625,0.08510638,216.68123,-264.2765,0.011423707,0.026539505,0.052184105,0.0,0.0,0.0
709.12695,444.51013,13085553,0.7625,0.08510638,246.45985,-285.2847,0.011423707,0.026539505,0.052184105,0.0,0.0,0.0
714.8911,439.11145,13085569,0.7625,0.08510638,305.77594,-315.08286,0.011423707,0.026539505,0.052184105,0.0,0.0,0.0
719.7541,433.2771,13085586,0.7625,0.08510638,341.9807,-359.75906,0.011423707,0.026539505,0.052184105,0.0,0.0,0.0
725.52686,426.6123,13085603,0.7625,0.08510638,372.82526,-412.58972,0.011423707,0.026539505,0.052184105,0.0,0.0,0.0
731.75916,419.6681,13085620,0.7625,0.10638297,397.45245,-454.42355,0.011423707,0.026539505,0.052184105,0.0,0.0,0.0
736.6479,414.19275,13085636,0.7625,0.12765957,360.65558,-417.52902,0.011423707,0.026539505,0.052184105,0.0,0.0,0.0
741.0663,409.18347,13085653,0.77500004,0.12765957,305.17694,-349.14514,0.011423707,0.026539505,0.052184105,0.0,0.0,0.0
745.56616,403.9701,13085670,0.7625,0.12765957,231.89632,-265.57715,0.011423707,0.026539505,0.052184105,0.0,0.0,0.0
750.74994,399.32983,13085686,0.77500004,0.11702127,234.94392,-232.79967,0.011423707,0.026539505,0.052184105,0.0,0.0,0.0
757.3743,393.80054,13085703,0.7625,0.10638297,325.78033,-275.2701,0.011423707,0.026539505,0.052184105,0.0,0.0,0.0
763.67316,388.19495,13085720,0.7625,0.08510638,396.50656,-319.04095,0.011423707,0.026539505,0.052184105,0.0,0.0,0.0
770.9574,384.4812,13085737,0.7625,0.08510638,463.79135,-300.87216,0.011423707,0.026539505,0.052184105,0.0,0.0,0.0
777.6496,380.7926,13085753,0.7625,0.08510638,466.59998,-237.43567,0.011423707,0.026539505,0.052184105,0.0,0.0,0.0
785.498,377.0963,13085770,0.77500004,0.08510638,471.42636,-188.96011,0.011423707,0.026539505,0.052184105,0.0,0.0,0.0
793.0822,373.6808,13085787,0.7875,0.09574468,476.68866,-169.37105,0.011423707,0.026539505,0.052184105,0.0,0.0,0.0
798.691,371.81323,13085803,0.77500004,0.09574468,419.07614,-139.63115,0.011423707,0.026539505,0.052184105,0.0,0.0,0.0
804.8504,370.3822,13085820,0.7875,0.09574468,352.26666,-85.57548,0.011423707,0.026539505,0.052184105,0.0,0.0,0.0
810.9117,370.3822,13085837,0.77500004,0.08510638,313.15686,6.875355,0.009138968,0.03723161,-0.0062532425,0.0,0.0,0.0
816.54816,370.3822,13085853,0.7875,0.08510638,312.94296,61.742943,0.009138968,0.03723161,-0.0062532425,0.0,0.0,0.0
822.94604,371.8877,13085870,0.7875,0.08510638,359.75946,98.622765,0.009138968,0.03723161,-0.0062532425,0.0,0.0,0.0
829.8333,375.2693,13085887,0.77500004,0.08510638,387.51965,183.8585,0.009138968,0.03723161,-0.0062532425,0.0,0.0,0.0
834.8235,377.3202,13085904,0.7875,0.08510638,374.63507,226.16698,0.009138968,0.03723161,-0.0062532425,0.0,0.0,0.0
839.03265,380.89148,13085920,0.77500004,0.08510638,296.03763,245.56874,0.009138968,0.03723161,-0.0062532425,0.0,0.0,0.0
842.219,383.7279,13085937,0.7875,0.10638297,191.04648,222.32278,0.009138968,0.03723161,-0.0062532425,0.0,0.0,0.0
844.8367,386.5338,13085954,0.77500004,0.10638297,111.79773,185.53503,0.009138968,0.03723161,-0.0062532425,0.0,0.0,0.0
846.86554,390.21973,13085970,0.7875,0.12765957,74.677345,202.4943,0.009138968,0.03723161,-0.0062532425,0.0,0.0,0.0
848.92706,393.88403,13085987,0.7875,0.12765957,78.58847,226.43056,0.009138968,0.03723161,-0.0062532425,0.0,0.0,0.0
852.6994,401.7738,13086004,0.77500004,0.10638297,133.64398,348.28098,0.009138968,0.03723161,-0.0062532425,0.0,0.0,0.0
854.59546,406.97742,13086021,0.77500004,0.11702127,158.60204,429.66815,0.009138968,0.03723161,-0.0062532425,0.0,0.0,0.0
856.4373,412.9469,13086037,0.7625,0.09574468,142.66331,426.40436,0.009138968,0.03723161,-0.0062532425,0.0,0.0,0.0
857.978,419.45935,13086054,0.7875,0.09574468,92.17383,406.47903,0.009138968,0.03723161,-0.0062532425,0.0,0.0,0.0
859.015,425.9441,13086071,0.7625,0.09574468,38.47174,372.3717,0.009138968,0.03723161,-0.0062532425,0.0,0.0,0.0
859.5541,432.6985,13086087,0.7875,0.09574468,24.480436,418.534,0.009138968,0.03723161,-0.0062532425,0.0,0.0,0.0
859.698,437.24353,13086104,0.77500004,0.09574468,-3.1566634,356.367,0.009138968,0.03723161,-0.0062532425,0.0,0.0,0.0
860.11975,441.18506,13086121,0.7875,0.11702127,-16.670147,253.38882,0.009138968,0.03723161,-0.0062532425,0.0,0.0,0.0
860.66394,444.89648,13086138,0.7875,0.11702127,-3.0198996,171.18475,0.009138968,0.03723161,-0.0062532425,0.0,0.0,0.0
860.6977,447.72217,13086154,0.7875,0.12765957,12.99594,135.60527,0.009138968,0.03723161,-0.0062532425,0.0,0.0,0.0
860.6977,450.4442,13086171,0.77500004,0.12765957,8.705734,133.05698,0.009138968,0.03723161,-0.0062532425,0.0,0.0,0.0
860.6977,453.14197,13086188,0.7625,0.12765957,-2.8819118,133.94643,0.009138968,0.03723161,-0.0062532425,0.0,0.0,0.0
860.6977,455.93384,13086204,0.77500004,0.12765957,-13.170049,139.81471,0.009138968,0.03723161,-0.0062532425,0.0,0.0,0.0
861.394,458.69324,13086221,0.77500004,0.11702127,8.339413,147.93958,0.009138968,0.03723161,-0.0062532425,0.0,0.0,0.0
861.1975,460.49866,13086238,0.77500004,0.11702127,18.683777,132.51964,0.009138968,0.03723161,-0.0062532425,0.0,0.0,0.0
861.1975,462.34668,13086255,0.7875,0.11702127,10.505173,102.12464,0.009138968,0.03723161,-0.0062532425,0.0,0.0,0.0
861.1975,463.67505,13086271,0.7875,0.11702127,-2.20377,77.87086,0.009138968,0.03723161,-0.0062532425,0.0,0.0,0.0
861.1975,463.67505,13086288,0.77500004,0.11702127,-10.595155,27.776749,0.009138968,0.03723161,-0.0062532425,0.0,0.0,0.0
861.1975,464.99597,13086305,0.7875,0.11702127,-4.748264,9.887134,0.009138968,0.03723161,-0.0062532425,0.0,0.0,0.0
861.1975,465.72998,13086321,0.77500004,0.09574468,0.03789463,12.986788,0.009138968,0.03723161,-0.0062532425,0.0,0.0,0.0
861.1975,465.45203,13086338,0.7875,0.09574468,-0.005914572,7.3171616,0.009138968,0.03723161,-0.0062532425,0.0,0.0,0.0
861.1975,465.45203,13086342,0.7875,0.11702127,0.03820052,1.4701846,0.009138968,0.03723161,-0.0062532425,0.0,0.0,0.0
861.1975,465.45203,13086372,0.7875,0.09574468,-0.0061422875,-19.142286,-0.008688822,-0.002214715,0.026997566,0.0,0.0,0.0
861.1975,465.45203,13086388,0.77500004,0.09574468,0.017936585,-25.306068,-0.008688822,-0.002214715,0.026997566,0.0,0.0,0.0
861.1975,465.45203,13086405,0.77500004,0.11702127,-0.040337753,1.9304347,-0.008688822,-0.002214715,0.026997566,0.0,0.0,0.0
861.1975,465.45203,13086422,0.7875,0.11702127,-0.028729333,-0.0150619,-0.008688822,-0.002214715,0.026997566,0.0,0.0,0.0
861.1975,465.45203,13086438,0.7875,0.11702127,0.032884344,0.016917136,-0.008688822,-0.002214715,0.026997566,0.0,0.0,0.0
861.1975,465.45203,13086472,0.7875,0.11702127,0.020867988,0.0094040595,-0.008688822,-0.002214715,0.026997566,0.0,0.0,0.0
861.1975,465.45203,13086488,0.7875,0.11702127,-0.033636644,-0.018546589,-0.008688822,-0.002214715,0.026997566,0.0,0.0,0.0
861.1975,465.45203,13086505,0.7875,0.11702127,0.03419,0.01834136,-0.008688822,-0.002214715,0.026997566,0.0,0.0,0.0
861.1975,465.45203,13086521,0.77500004,0.11702127,-0.008259648,-0.005767287,-0.008688822,-0.002214715,0.026997566,0.0,0.0,0.0
861.1975,465.45203,13086539,0.7875,0.11702127,-0.013640997,-0.009318733,-0.008688822,-0.002214715,0.026997566,0.0,0.0,0.0
861.1975,465.45203,13086568,0.7875,0.11702127,-0.009910302,-9.892335E-4,-0.008688822,-0.002214715,0.026997566,0.0,0.0,0.0
861.1975,465.45203,13086589,0.8,0.11702127,-0.053079545,-0.028900992,-0.008688822,-0.002214715,0.026997566,0.0,0.0,0.0
861.1975,465.45203,13086600,0.7875,0.11702127,0.0039807865,0.004169027,-0.008688822,-0.002214715,0.026997566,0.0,0.0,0.0
861.1975,465.45203,13086622,0.7875,0.11702127,0.014674336,0.0103027085,-0.008688822,-0.002214715,0.026997566,0.0,0.0,0.0
861.1975,465.45203,13086639,0.8125,0.11702127,-0.062041692,-0.034107123,-0.008688822,-0.002214715,0.026997566,0.0,0.0,0.0
861.1975,465.75696,13086656,0.7875,0.11702127,-0.012769371,4.352424,-0.008688822,-0.002214715,0.026997566,0.0,0.0,0.0
861.1975,466.99426,13086672,0.7875,0.09574468,-0.025026495,45.871536,-0.008688822,-0.002214715,0.026997566,0.0,0.0,0.0
861.1975,468.11755,13086689,0.8125,0.11702127,-0.056991756,88.150345,-0.008688822,-0.002214715,0.026997566,0.0,0.0,0.0
861.1975,469.0061,13086706,0.8125,0.09574468,-0.04857605,96.54912,-0.008688822,-0.002214715,0.026997566,0.0,0.0,0.0
861.1975,469.0061,13086722,0.8,0.09574468,-0.05750694,53.370644,-0.008688822,-0.002214715,0.026997566,0.0,0.0,0.0
861.1975,469.68103,13086739,0.8,0.09574468,-0.015004823,1.3638016,-0.008688822,-0.002214715,0.026997566,0.0,0.0,0.0
861.1975,469.89453,13086756,0.7875,0.09574468,0.015022472,0.59705716,-0.008688822,-0.002214715,0.026997566,0.0,0.0,0.0
861.1975,471.2273,13086772,0.8,0.09574468,0.01152576,29.331892,-0.008688822,-0.002214715,0.026997566,0.0,0.0,0.0
861.1975,472.65198,13086806,0.825,0.09574468,0.01671011,59.316414,-0.008688822,-0.002214715,0.026997566,0.0,0.0,0.0
861.1975,472.56006,13086823,0.7875,0.09574468,-0.0040559624,31.640808,-0.008688822,-0.002214715,0.026997566,0.0,0.0,0.0
861.1975,472.56006,13086833,0.8,0.09574468,-0.06979325,12.133548,-0.008688822,-0.002214715,0.026997566,0.0,0.0,0.0
861.1975,473.4486,13086856,0.8125,0.09574468,-0.004640408,10.240478,-0.008688822,-0.002214715,0.026997566,0.0,0.0,0.0
861.4059,473.81897,13086873,0.8,0.09574468,4.7192636,23.725288,-0.008688822,-0.002214715,0.026997566,0.0,0.0,0.0
862.44385,474.33704,13086890,0.77500004,0.09574468,38.902,35.629185,-0.008688822,-0.002214715,0.026997566,0.0,0.0,0.0
863.48254,474.84485,13086906,0.7875,0.09574468,76.35208,29.579979,-0.022951059,-0.033771753,-0.02640152,0.0,0.0,0.0
864.48535,476.11414,13086923,0.77500004,0.09574468,88.88075,53.32916,-0.022951059,-0.033771753,-0.02640152,0.0,0.0,0.0
865.54926,476.11414,13086940,0.7875,0.09574468,79.482124,49.132267,-0.022951059,-0.033771753,-0.02640152,0.0,0.0,0.0
866.5857,476.11414,13086956,0.77500004,0.08510638,67.17701,13.61748,-0.022951059,-0.033771753,-0.02640152,0.0,0.0,0.0
868.5762,476.11414,13086973,0.77500004,0.08510638,85.62751,-10.952878,-0.022951059,-0.033771753,-0.02640152,0.0,0.0,0.0
870.65936,476.11414,13086990,0.77500004,0.08510638,124.7975,-30.816757,-0.022951059,-0.033771753,-0.02640152,0.0,0.0,0.0
872.575,474.44263,13087007,0.77500004,0.08510638,148.02742,-51.16387,-0.022951059,-0.033771753,-0.02640152,0.0,0.0,0.0
875.36847,472.45605,13087023,0.7875,0.10638297,163.51323,-114.74638,-0.022951059,-0.033771753,-0.02640152,0.0,0.0,0.0
877.35736,470.63635,13087040,0.77500004,0.10638297,155.41072,-155.71649,-0.022951059,-0.033771753,-0.02640152,0.0,0.0,0.0
878.9455,467.66675,13087057,0.77500004,0.12765957,122.28791,-185.48509,-0.022951059,-0.033771753,-0.02640152,0.0,0.0,0.0
880.8637,463.9502,13087073,0.75,0.12765957,108.00146,-221.787,-0.022951059,-0.033771753,-0.02640152,0.0,0.0,0.0
883.06915,458.94983,13087090,0.7875,0.09574468,98.806564,-281.78555,-0.022951059,-0.033771753,-0.02640152,0.0,0.0,0.0
886.46893,453.40454,13087107,0.77500004,0.09574468,152.31343,-366.1999,-0.022951059,-0.033771753,-0.02640152,0.0,0.0,0.0
890.0707,447.89062,13087123,0.7625,0.08510638,232.489,-398.6054,-0.022951059,-0.033771753,-0.02640152,0.0,0.0,0.0
895.02527,439.3772,13087140,0.7625,0.08510638,294.939,-454.24405,-0.022951059,-0.033771753,-0.02640152,0.0,0.0,0.0
900.02826,430.84546,13087157,0.75,0.08510638,339.57834,-549.2109,-0.022951059,-0.033771753,-0.02640152,0.0,0.0,0.0
905.6769,422.6349,13087174,0.75,0.11702127,359.51212,-581.7641,-0.022951059,-0.033771753,-0.02640152,0.0,0.0,0.0
911.34576,415.2047,13087190,0.7625,0.12765957,373.68726,-543.22845,-0.022951059,-0.033771753,-0.02640152,0.0,0.0,0.0
918.1581,408.60376,13087207,0.7625,0.12765957,385.34644,-436.12354,-0.022951059,-0.033771753,-0.02640152,0.0,0.0,0.0
925.91864,402.18384,13087224,0.77500004,0.10638297,461.54364,-361.49734,-0.022951059,-0.033771753,-0.02640152,0.0,0.0,0.0
936.466,396.65308,13087240,0.77500004,0.09574468,586.97644,-325.47827,-0.022951059,-0.033771753,-0.02640152,0.0,0.0,0.0
947.66785,391.11487,13087257,0.75,0.08510638,721.02515,-297.1499,-0.022951059,-0.033771753,-0.02640152,0.0,0.0,0.0
957.515,386.99744,13087274,0.7625,0.09574468,745.83716,-263.87082,-0.022951059,-0.033771753,-0.02640152,0.0,0.0,0.0
966.56384,385.14905,13087291,0.7625,0.09574468,661.4405,-157.90677,-0.022951059,-0.033771753,-0.02640152,0.0,0.0,0.0
975.2284,384.59827,13087307,0.77500004,0.08510638,522.7191,-20.17993,-0.022951059,-0.033771753,-0.02640152,0.0,0.0,0.0
984.3546,385.07764,13087324,0.77500004,0.08510638,469.1408,99.21956,-0.022951059,-0.033771753,-0.02640152,0.0,0.0,0.0
993.3135,387.42517,13087341,0.7625,0.09574468,501.9264,184.11674,-0.022951059,-0.033771753,-0.02640152,0.0,0.0,0.0
1001.72705,390.54382,13087357,0.7625,0.10638297,524.5256,250.53297,-0.022951059,-0.033771753,-0.02640152,0.0,0.0,0.0
1007.4551,393.07178,13087374,0.77500004,0.12765957,433.09964,261.41656,-0.022951059,-0.033771753,-0.02640152,0.0,0.0,0.0
1012.2743,395.09412,13087391,0.7625,0.12765957,293.5125,209.06638,-0.022951059,-0.033771753,-0.02640152,0.0,0.0,0.0
1015.56433,396.96375,13087408,0.7625,0.12765957,157.48227,133.02638,-0.022951059,-0.033771753,-0.02640152,0.0,0.0,0.0
1017.1194,397.03735,13087424,0.75,0.12765957,47.97241,45.8213,-0.022951059,-0.033771753,-0.02640152,0.0,0.0,0.0
1017.6466,397.03735,13087441,0.77500004,0.12765957,-19.278257,-20.597275,-0.01836085,-0.027017415,0.026878357,0.0,0.0,0.0
1017.6466,397.03735,13087453,0.75,0.12765957,-63.583076,-50.819958,-0.01836085,-0.027017415,0.026878357,0.0,0.0,0.0
1017.6466,395.943,13087474,0.77500004,0.10638297,-84.441315,-73.19481,-0.01836085,-0.027017415,0.026878357,0.0,0.0,0.0
1016.4402,394.00452,13087491,0.7625,0.10638297,-90.09393,-109.174065,-0.01836085,-0.027017415,0.026878357,0.0,0.0,0.0
1010.6288,392.2572,13087508,0.77500004,0.09574468,-199.35075,-131.36057,-0.01836085,-0.027017415,0.026878357,0.0,0.0,0.0
1000.28235,390.39282,13087525,0.77500004,0.08510638,-535.51196,-160.4144,-0.01836085,-0.027017415,0.026878357,0.0,0.0,0.0
988.06494,389.92932,13087541,0.7625,0.09574468,-870.8376,-109.202705,-0.01836085,-0.027017415,0.026878357,0.0,0.0,0.0
976.9795,390.40552,13087558,0.77500004,0.11702127,-995.5009,-5.336647,-0.01836085,-0.027017415,0.026878357,0.0,0.0,0.0
964.00696,392.78943,13087575,0.7625,0.10638297,-893.80963,117.282394,-0.01836085,-0.027017415,0.026878357,0.0,0.0,0.0
951.0124,396.63928,13087591,0.7875,0.10638297,-784.8963,268.0857,-0.01836085,-0.027017415,0.026878357,0.0,0.0,0.0
939.9402,401.95874,13087608,0.77500004,0.12765957,-753.40265,360.35892,-0.01836085,-0.027017415,0.026878357,0.0,0.0,0.0
931.90045,406.69604,13087625,0.77500004,0.11702127,-623.4095,406.8334,-0.01836085,-0.027017415,0.026878357,0.0,0.0,0.0
926.61,411.31226,13087642,0.77500004,0.09574468,-372.93912,369.803,-0.01836085,-0.027017415,0.026878357,0.0,0.0,0.0
921.40045,417.8673,13087658,0.7875,0.09574468,-170.56305,358.3784,-0.01836085,-0.027017415,0.026878357,0.0,0.0,0.0
915.2861,433.08862,13087675,0.77500004,0.09574468,-190.0806,635.47656,-0.01836085,-0.027017415,0.026878357,0.0,0.0,0.0
913.6804,441.51892,13087692,0.77500004,0.12765957,-147.31328,791.8481,-0.01836085,-0.027017415,0.026878357,0.0,0.0,0.0
913.6804,447.67786,13087708,0.7625,0.12765957,-28.02683,699.56384,-0.01836085,-0.027017415,0.026878357,0.0,0.0,0.0
914.85706,452.75366,13087725,0.7625,0.12765957,125.36249,422.89606,-0.01836085,-0.027017415,0.026878357,0.0,0.0,0.0
916.1904,455.2439,13087742,0.77500004,0.12765957,232.33694,43.098347,-0.01836085,-0.027017415,0.026878357,0.0,0.0,0.0
921.1327,457.97253,13087758,0.7625,0.12765957,266.62015,8.185271,-0.01836085,-0.027017415,0.026878357,0.0,0.0,0.0
930.04926,459.23254,13087775,0.77500004,0.10638297,456.35217,18.810946,-0.01836085,-0.027017415,0.026878357,0.0,0.0,0.0
939.5963,456.18762,13087792,0.77500004,0.10638297,672.8131,-105.63748,-0.01836085,-0.027017415,0.026878357,0.0,0.0,0.0
950.8317,450.90503,13087809,0.75,0.10638297,828.5992,-308.61652,-0.01836085,-0.027017415,0.026878357,0.0,0.0,0.0
957.0779,445.5393,13087825,0.7625,0.08510638,700.7084,-469.09305,-0.01836085,-0.027017415,0.026878357,0.0,0.0,0.0
964.0642,438.0266,13087842,0.7625,0.09574468,477.21057,-571.1119,-0.01836085,-0.027017415,0.026878357,0.0,0.0,0.0
968.2864,430.58057,13087859,0.77500004,0.09574468,259.49606,-555.70807,-0.01836085,-0.027017415,0.026878357,0.0,0.0,0.0
972.99304,423.22058,13087875,0.7625,0.11702127,165.18015,-519.4046,-0.01836085,-0.027017415,0.026878357,0.0,0.0,0.0
978.83167,413.81165,13087892,0.75,0.12765957,213.9481,-546.6693,-0.01836085,-0.027017415,0.026878357,0.0,0.0,0.0
983.8695,405.7987,13087909,0.7625,0.10638297,285.1165,-553.4673,-0.01836085,-0.027017415,0.026878357,0.0,0.0,0.0
987.52844,399.5995,13087926,0.7625,0.08510638,285.05908,-481.07336,-0.01836085,-0.027017415,0.026878357,0.0,0.0,0.0
989.60144,395.3568,13087942,0.7625,0.08510638,173.70963,-316.58792,-0.01836085,-0.027017415,0.026878357,0.0,0.0,0.0
990.91895,391.65784,13087959,0.77500004,0.08510638,37.85085,-151.9088,-0.01836085,-0.027017415,0.026878357,0.0,0.0,0.0
991.15515,389.39722,13087976,0.7625,0.08510638,-45.941673,-65.64291,0.0013113208,0.026386067,0.053503036,0.0,0.0,0.0
991.48804,387.56067,13087992,0.7625,0.08510638,-60.40949,-40.274197,0.0013113208,0.026386067,0.053503036,0.0,0.0,0.0
991.655,385.9309,13088008,0.77500004,0.08510638,-50.56805,-29.856773,0.0013113208,0.026386067,0.053503036,0.0,0.0,0.0
992.04626,386.37524,13088026,0.7875,0.08510638,-19.421757,11.619065,0.0013113208,0.026386067,0.053503036,0.0,0.0,0.0
992.1549,386.37524,13088043,0.77500004,0.08510638,7.338177,50.63058,0.0013113208,0.026386067,0.053503036,0.0,0.0,0.0
992.1549,386.37524,13088059,0.77500004,0.10638297,8.250193,53.75881,0.0013113208,0.026386067,0.053503036,0.0,0.0,0.0
992.1549,388.21814,13088076,0.77500004,0.10638297,-4.1554914,91.9844,0.0013113208,0.026386067,0.053503036,0.0,0.0,0.0
992.1549,390.07605,13088093,0.77500004,0.12765957,-4.769797,127.278435,0.0013113208,0.026386067,0.053503036,0.0,0.0,0.0
992.1549,392.8075,13088109,0.77500004,0.12765957,-5.1072497,193.95525,0.0013113208,0.026386067,0.053503036,0.0,0.0,0.0
992.1549,396.714,13088126,0.7625,0.12765957,-0.014597685,243.67165,0.0013113208,0.026386067,0.053503036,0.0,0.0,0.0
991.4601,402.5194,13088143,0.7875,0.10638297,-15.834518,325.0297,0.0013113208,0.026386067,0.053503036,0.0,0.0,0.0
990.9214,408.0575,13088160,0.7625,0.10638297,-41.25937,396.68182,0.0013113208,0.026386067,0.053503036,0.0,0.0,0.0
990.6554,414.89368,13088176,0.77500004,0.08510638,-45.862434,442.50604,0.0013113208,0.026386067,0.053503036,0.0,0.0,0.0
990.9684,423.2527,13088193,0.77500004,0.08510638,-15.964859,512.4932,0.0013113208,0.026386067,0.053503036,0.0,0.0,0.0
992.343,430.5808,13088210,0.7625,0.08510638,53.634373,525.01807,0.0013113208,0.026386067,0.053503036,0.0,0.0,0.0
994.41077,436.37134,13088226,0.77500004,0.10638297,133.58377,468.23215,0.0013113208,0.026386067,0.053503036,0.0,0.0,0.0
996.46814,441.1333,13088243,0.75,0.09574468,171.04807,336.16,0.0013113208,0.026386067,0.053503036,0.0,0.0,0.0
998.11646,444.0631,13088260,0.77500004,0.10638297,165.59995,178.59325,0.0013113208,0.026386067,0.053503036,0.0,0.0,0.0
1001.194,447.71936,13088276,0.7625,0.12765957,159.21701,116.14385,0.0013113208,0.026386067,0.053503036,0.0,0.0,0.0
1005.3508,451.41394,13088293,0.75,0.12765957,215.85481,136.6258,0.0013113208,0.026386067,0.053503036,0.0,0.0,0.0
1010.0879,455.10205,13088310,0.75,0.12765957,294.4703,185.37018,0.0013113208,0.026386067,0.053503036,0.0,0.0,0.0
1015.24915,456.78088,13088327,0.75,0.12765957,359.83438,168.70819,0.0013113208,0.026386067,0.053503036,0.0,0.0,0.0
1019.7401,457.45557,13088343,0.75,0.12765957,357.1189,86.03615,0.0013113208,0.026386067,0.053503036,0.0,0.0,0.0
1024.486,457.45557,13088360,0.75,0.12765957,311.82706,-27.203524,0.0013113208,0.026386067,0.053503036,0.0,0.0,0.0
1028.8674,456.13184,13088377,0.7375,0.12765957,266.18063,-114.98909,0.0013113208,0.026386067,0.053503036,0.0,0.0,0.0
1034.5685,454.2827,13088393,0.7625,0.12765957,285.98074,-160.62653,0.0013113208,0.026386067,0.053503036,0.0,0.0,0.0
1038.8934,452.45605,13088410,0.77500004,0.10638297,304.4558,-175.79666,0.0013113208,0.026386067,0.053503036,0.0,0.0,0.0
1043.0432,449.09924,13088427,0.7625,0.09574468,278.43994,-196.11694,0.0013113208,0.026386067,0.053503036,0.0,0.0,0.0
1047.8175,444.85583,13088444,0.7625,0.08510638,251.97461,-251.20837,0.0013113208,0.026386067,0.053503036,0.0,0.0,0.0
1054.1998,439.18335,13088460,0.75,0.08510638,292.44583,-330.1982,0.0013113208,0.026386067,0.053503036,0.0,0.0,0.0
1058.5496,431.83752,13088477,0.725,0.08510638,330.28964,-442.1002,0.0013113208,0.026386067,0.053503036,0.0,0.0,0.0
1063.2318,424.40295,13088494,0.71250004,0.10638297,323.90652,-524.7482,0.0013113208,0.026386067,0.053503036,0.0,0.0,0.0
1067.9775,415.96704,13088510,0.725,0.12765957,281.69833,-559.207,0.0010490566,-0.026891142,-0.053196907,0.0,0.0,0.0
1072.0168,406.83765,13088527,0.725,0.11702127,240.40845,-593.1986,0.0010490566,-0.026891142,-0.053196907,0.0,0.0,0.0
1078.3046,390.6681,13088544,0.7375,0.09574468,295.7033,-795.6553,0.0010490566,-0.026891142,-0.053196907,0.0,0.0,0.0
1083.3146,376.23486,13088561,0.7375,0.09574468,338.6736,-981.66907,0.0010490566,-0.026891142,-0.053196907,0.0,0.0,0.0
1086.0581,364.51575,13088577,0.7375,0.12765957,272.5168,-980.5973,0.0010490566,-0.026891142,-0.053196907,0.0,0.0,0.0
1087.3826,353.8678,13088594,0.7375,0.12765957,116.6734,-768.1302,0.0010490566,-0.026891142,-0.053196907,0.0,0.0,0.0
1088.419,345.1809,13088611,0.7375,0.09574468,-20.001326,-508.56454,0.0010490566,-0.026891142,-0.053196907,0.0,0.0,0.0
1088.6234,337.5343,13088627,0.7375,0.09574468,-61.174595,-384.99216,0.0010490566,-0.026891142,-0.053196907,0.0,0.0,0.0
1088.6234,332.14624,13088644,0.75,0.09574468,-58.670902,-282.45685,0.0010490566,-0.026891142,-0.053196907,0.0,0.0,0.0
1088.2289,327.21985,13088661,0.7625,0.09574468,-45.30127,-213.7438,0.0010490566,-0.026891142,-0.053196907,0.0,0.0,0.0
1087.1863,324.2909,13088678,0.7375,0.09574468,-68.69229,-139.70226,0.0010490566,-0.026891142,-0.053196907,0.0,0.0,0.0
1086.6241,322.41565,13088694,0.7625,0.09574468,-80.32048,-60.283367,0.0010490566,-0.026891142,-0.053196907,0.0,0.0,0.0
1086.6241,321.0703,13088707,0.7625,0.09574468,-57.245934,-24.928148,0.0010490566,-0.026891142,-0.053196907,0.0,0.0,0.0
1087.198,323.55505,13088728,0.75,0.08510638,8.455366,106.61592,0.0010490566,-0.026891142,-0.053196907,0.0,0.0,0.0
1089.9653,329.43335,13088744,0.77500004,0.10638297,114.10353,295.44037,0.0010490566,-0.026891142,-0.053196907,0.0,0.0,0.0
1096.2949,337.2207,13088761,0.7625,0.10638297,293.4962,513.62885,0.0010490566,-0.026891142,-0.053196907,0.0,0.0,0.0
1107.1971,349.297,13088778,0.7375,0.09574468,583.77167,780.48206,0.0010490566,-0.026891142,-0.053196907,0.0,0.0,0.0
1118.3876,361.66016,13088795,0.75,0.08510638,851.67163,927.8685,0.0010490566,-0.026891142,-0.053196907,0.0,0.0,0.0
1128.9639,374.9474,13088811,0.725,0.09574468,890.3653,966.38226,0.0010490566,-0.026891142,-0.053196907,0.0,0.0,0.0
1137.352,385.8125,13088828,0.71250004,0.12765957,712.7443,850.67,0.0010490566,-0.026891142,-0.053196907,0.0,0.0,0.0
1144.5304,396.41565,13088845,0.71250004,0.12765957,457.17072,662.3268,0.0010490566,-0.026891142,-0.053196907,0.0,0.0,0.0
1152.1862,409.34485,13088861,0.725,0.08510638,336.9551,609.3346,0.0010490566,-0.026891142,-0.053196907,0.0,0.0,0.0
1156.8726,420.8993,13088878,0.7,0.06382979,297.2579,681.17413,0.0010490566,-0.026891142,-0.053196907,0.0,0.0,0.0
1158.5396,429.47717,13088895,0.71250004,0.08510638,158.21434,647.2439,0.0010490566,-0.026891142,-0.053196907,0.0,0.0,0.0
1157.5873,436.2046,13088911,0.7375,0.08510638,-57.252075,466.29053,0.0010490566,-0.026891142,-0.053196907,0.0,0.0,0.0
1154.9675,440.73315,13088928,0.7375,0.10638297,-254.33899,261.6842,0.0010490566,-0.026891142,-0.053196907,0.0,0.0,0.0
1151.7662,443.5387,13088945,0.71250004,0.12765957,-345.4378,84.92781,0.0010490566,-0.026891142,-0.053196907,0.0,0.0,0.0
1145.8165,447.26038,13088962,0.7375,0.12765957,-396.18793,78.46446,0.0010490566,-0.026891142,-0.053196907,0.0,0.0,0.0
1135.5383,450.9674,13088978,0.7375,0.12765957,-567.64526,109.35277,0.0010490566,-0.026891142,-0.053196907,0.0,0.0,0.0
1126.1649,452.41016,13088995,0.7375,0.10638297,-700.2774,114.32702,0.0010490566,-0.026891142,-0.053196907,0.0,0.0,0.0
1118.2269,453.01306,13089012,0.75,0.10638297,-709.84155,74.96731,0.0010490566,-0.026891142,-0.053196907,0.0,0.0,0.0
1113.3525,453.01306,13089028,0.7375,0.10638297,-478.80203,-41.277473,0.0010490566,-0.026891142,-0.053196907,0.0,0.0,0.0
1111.0927,453.01306,13089045,0.725,0.10638297,-165.72858,-82.41377,-0.07916075,-0.11751292,-0.394557,0.0,0.0,0.0
1109.3268,453.01306,13089062,0.5125,0.10638297,24.001968,-56.912224,-0.07916075,-0.11751292,-0.394557,0.0,0.0,0.0
1109.1168,453.01306,13089064,0.2375,0.12765957,31.148666,-53.67692,-0.07916075,-0.11751292,-0.394557,0.0,0.0,0.0
1109.1168,453.01306,13089074,0.2375,0.12765957,31.148666,-53.67692,-0.07916075,-0.11751292,-0.394557,0.0,0.0,0.0
1149.6036,339.28455,13089443,0.625,0.10638297,0.0,0.0,-0.07916075,-0.11751292,-0.394557,0.0,0.0,0.0
1149.6036,339.28455,13089463,0.675,0.08510638,0.2673223,0.08412221,-0.07916075,-0.11751292,-0.394557,0.0,0.0,0.0
1149.6036,339.28455,13089480,0.7,0.09574468,-0.018987173,-0.0071727596,-0.07916075,-0.11751292,-0.394557,0.0,0.0,0.0
1149.6036,339.28455,13089496,0.7,0.08510638,0.055948485,0.015364288,-0.07916075,-0.11751292,-0.394557,0.0,0.0,0.0
1149.6036,339.28455,13089513,0.7,0.08510638,0.006015351,3.407151E-4,-0.07916075,-0.11751292,-0.394557,0.0,0.0,0.0
1156.5118,330.41565,13089530,0.6875,0.08510638,147.32071,-189.08554,-0.07916075,-0.11751292,-0.394557,0.0,0.0,0.0
1169.2637,317.74524,13089546,0.71250004,0.08510638,676.7218,-770.50977,-0.07916075,-0.11751292,-0.394557,0.0,0.0,0.0
1179.7574,313.58435,13089563,0.7,0.09574468,948.643,-847.9853,-0.07916075,-0.11751292,-0.394557,0.0,0.0,0.0
1189.1151,315.3037,13089580,0.71250004,0.08510638,903.7543,-366.51263,0.048671395,0.033989653,0.1563549,0.0,0.0,0.0
1198.4784,323.67737,13089597,0.71250004,0.08510638,714.13727,345.2205,0.048671395,0.033989653,0.1563549,0.0,0.0,0.0
1208.3097,334.81274,13089613,0.71250004,0.10638297,522.51855,969.85315,0.048671395,0.033989653,0.1563549,0.0,0.0,0.0
1217.0975,346.85803,13089630,0.7,0.09574468,522.15625,1098.6543,0.048671395,0.033989653,0.1563549,0.0,0.0,0.0
1226.0787,366.82812,13089646,0.7,0.08510638,523.5095,1221.977,0.048671395,0.033989653,0.1563549,0.0,0.0,0.0
1229.2793,382.30554,13089663,0.7,0.08510638,378.01364,1270.9745,0.048671395,0.033989653,0.1563549,0.0,0.0,0.0
1228.5967,396.01538,13089680,0.71250004,0.10638297,40.218307,1095.1414,0.048671395,0.033989653,0.1563549,0.0,0.0,0.0
1225.1807,410.78674,13089697,0.71250004,0.08510638,-283.79163,923.9425,0.048671395,0.033989653,0.1563549,0.0,0.0,0.0
1218.7544,424.2732,13089714,0.7,0.06382979,-546.99146,766.5883,0.048671395,0.033989653,0.1563549,0.0,0.0,0.0
1212.684,432.95715,13089730,0.71250004,0.08510638,-602.5619,604.53394,0.048671395,0.033989653,0.1563549,0.0,0.0,0.0
1204.9503,440.6942,13089747,0.7,0.11702127,-584.7957,458.8796,0.048671395,0.033989653,0.1563549,0.0,0.0,0.0
1199.3578,445.6648,13089764,0.6875,0.12765957,-512.5833,228.25858,0.048671395,0.033989653,0.1563549,0.0,0.0,0.0
1194.6615,448.5276,13089780,0.6875,0.12765957,-376.24963,73.490364,0.048671395,0.033989653,0.1563549,0.0,0.0,0.0
1192.5515,448.57056,13089797,0.71250004,0.12765957,-181.80559,-50.036243,0.048671395,0.033989653,0.1563549,0.0,0.0,0.0
1191.5375,448.57056,13089814,0.7,0.11702127,-20.99446,-138.2165,0.048671395,0.033989653,0.1563549,0.0,0.0,0.0
1190.8401,448.57056,13089825,0.7,0.11702127,50.813343,-164.83147,0.048671395,0.033989653,0.1563549,0.0,0.0,0.0
1194.6586,448.57056,13089847,0.7,0.10638297,178.652,-90.14368,0.048671395,0.033989653,0.1563549,0.0,0.0,0.0
1207.7864,452.86316,13089864,0.7,0.10638297,515.57587,77.51838,0.048671395,0.033989653,0.1563549,0.0,0.0,0.0
1218.7852,456.78735,13089881,0.7,0.10638297,852.88684,243.33342,0.048671395,0.033989653,0.1563549,0.0,0.0,0.0
1230.7894,461.88574,13089897,0.6875,0.10638297,1055.0653,391.47107,0.048671395,0.033989653,0.1563549,0.0,0.0,0.0
1242.2499,466.4784,13089914,0.6875,0.09574468,943.8714,402.62482,0.048671395,0.033989653,0.1563549,0.0,0.0,0.0
1253.3429,469.58765,13089931,0.725,0.08510638,722.65485,295.61404,0.048671395,0.033989653,0.1563549,0.0,0.0,0.0
1261.9551,471.42456,13089948,0.71250004,0.08510638,566.64874,153.7684,0.048671395,0.033989653,0.1563549,0.0,0.0,0.0
1269.0039,471.67163,13089964,0.7,0.08510638,428.5416,2.958559,0.048671395,0.033989653,0.1563549,0.0,0.0,0.0
1272.8995,471.67163,13089981,0.7,0.08510638,262.40396,-74.95398,0.048671395,0.033989653,0.1563549,0.0,0.0,0.0
1274.0631,471.67163,13089990,0.52500004,0.08510638,148.49294,-94.63193,0.048671395,0.033989653,0.1563549,0.0,0.0,0.0
1274.0631,471.67163,13089997,0.52500004,0.08510638,148.49294,-94.63193,0.048671395,0.033989653,0.1563549,0.0,0.0,0.0
1185.5919,391.7063,13090191,0.58750004,0.09574468,0.0,0.0,-0.033062883,0.011191726,0.021083832,0.0,0.0,0.0
1185.5919,391.7063,13090215,0.6375,0.08510638,0.051508144,0.012896242,-0.033062883,0.011191726,0.021083832,0.0,0.0,0.0
1185.5919,391.7063,13090232,0.6625,0.08510638,0.048030034,0.014430933,-0.033062883,0.011191726,0.021083832,0.0,0.0,0.0
1185.5919,391.7063,13090248,0.71250004,0.08510638,-0.019673496,-0.0051870067,-0.033062883,0.011191726,0.021083832,0.0,0.0,0.0
1185.5919,391.7063,13090265,0.71250004,0.09574468,0.023610523,0.007141003,-0.033062883,0.011191726,0.021083832,0.0,0.0,0.0
1185.5919,391.7063,13090282,0.71250004,0.08510638,0.020939808,0.0064331964,-0.033062883,0.011191726,0.021083832,0.0,0.0,0.0
1214.5929,386.0321,13090298,0.7375,0.08510638,913.55164,-182.13657,-0.033062883,0.011191726,0.021083832,0.0,0.0,0.0
1229.6437,385.06763,13090315,0.71250004,0.08510638,1491.1604,-233.62502,-0.033062883,0.011191726,0.021083832,0.0,0.0,0.0
1246.0437,383.6167,13090332,0.675,0.09574468,1561.6539,-173.6006,-0.033062883,0.011191726,0.021083832,0.0,0.0,0.0
1253.07,381.93274,13090343,0.22500001,0.053191487,1404.7032,-150.27583,-0.033062883,0.011191726,0.021083832,0.0,0.0,0.0
1253.07,381.93274,13090351,0.22500001,0.053191487,1404.7032,-150.27583,-0.033062883,0.011191726,0.021083832,0.0,0.0,0.0
