x,y,timestamp,pressure,fingerarea,velocityx,velocityy,accelx,accely,accelz,gyrox,gyroy,gyroz
220.90594,272.64685,13114231,0.625,0.06382979,0.0,0.0,-0.0022669286,0.008436725,0.002585411,0.0,0.0,0.0
220.90594,272.64685,13114261,0.675,0.06382979,-0.004822963,-0.004703254,-0.0022669286,0.008436725,0.002585411,0.0,0.0,0.0
220.90594,272.64685,13114278,0.725,0.06382979,0.013995226,0.019943701,-0.0022669286,0.008436725,0.002585411,0.0,0.0,0.0
220.90594,272.64685,13114294,0.77500004,0.08510638,2.1870875E-4,7.72621E-4,-0.0022669286,0.008436725,0.002585411,0.0,0.0,0.0
220.90594,272.64685,13114311,0.77500004,0.08510638,-0.0012220257,-0.0017551265,-0.0022669286,0.008436725,0.002585411,0.0,0.0,0.0
220.90594,272.64685,13114328,0.7875,0.08510638,0.011103844,0.0130427675,-0.0022669286,0.008436725,0.002585411,0.0,0.0,0.0
220.90594,272.64685,13114343,0.8,0.08510638,-0.008530954,-0.011242115,-0.0022669286,0.008436725,0.002585411,0.0,0.0,0.0
220.90594,272.64685,13114359,0.8125,0.08510638,-0.005819997,-0.0072209397,-0.0022669286,0.008436725,0.002585411,0.0,0.0,0.0
220.90594,272.64685,13114371,0.8,0.08510638,-3.8969904E-4,-7.6462637E-4,-0.0022669286,0.008436725,0.002585411,0.0,0.0,0.0
220.90594,272.64685,13114395,0.8,0.08510638,6.794144E-4,7.855266E-4,-0.0022669286,0.008436725,0.002585411,0.0,0.0,0.0
220.90594,272.64685,13114411,0.8125,0.08510638,0.0073816897,0.008892798,-0.0022669286,0.008436725,0.002585411,0.0,0.0,0.0
220.90594,272.64685,13114428,0.825,0.09574468,0.0021997225,0.0025968829,-0.0022669286,0.008436725,0.002585411,0.0,0.0,0.0
220.90594,272.64685,13114445,0.8,0.11702127,0.0074045723,0.0092372615,-0.0022669286,0.008436725,0.002585411,0.0,0.0,0.0
213.86053,259.42725,13114461,0.8125,0.12765957,-124.428444,-233.48514,-0.0022669286,0.008436725,0.002585411,0.0,0.0,0.0
208.64551,249.18054,13114478,0.8125,0.12765957,-411.72552,-779.2007,-0.0022669286,0.008436725,0.002585411,0.0,0.0,0.0
205.4733,241.6969,13114495,0.825,0.12765957,-481.2315,-964.45886,-0.0022669286,0.008436725,0.002585411,0.0,0.0,0.0
204.38916,236.1001,13114512,0.8125,0.11702127,-270.18384,-674.2306,-0.0022669286,0.008436725,0.002585411,0.0,0.0,0.0
203.91147,228.65344,13114528,0.825,0.09574468,-21.455101,-377.5291,-0.0022669286,0.008436725,0.002585411,0.0,0.0,0.0
203.91147,221.29187,13114545,0.83750004,0.09574468,138.44212,-245.35426,-0.0022669286,0.008436725,0.002585411,0.0,0.0,0.0
203.91147,213.03333,13114562,0.85,0.11702127,77.101204,-466.0935,-0.0022669286,0.008436725,0.002585411,0.0,0.0,0.0
205.09875,204.3418,13114578,0.825,0.11702127,83.901764,-524.0673,-0.0022669286,0.008436725,0.002585411,0.0,0.0,0.0
206.29807,197.52441,13114595,0.825,0.12765957,90.46653,-512.2797,-0.0022669286,0.008436725,0.002585411,0.0,0.0,0.0
208.40622,190.02966,13114612,0.825,0.12765957,129.18112,-450.8959,-0.0022669286,0.008436725,0.002585411,0.0,0.0,0.0
210.76163,183.55396,13114629,0.825,0.10638297,164.90448,-399.28497,-0.0022669286,0.008436725,0.002585411,0.0,0.0,0.0
213.39624,177.01355,13114645,0.825,0.08510638,183.48787,-369.30295,-0.0022669286,0.008436725,0.002585411,0.0,0.0,0.0
217.75131,169.62415,13114662,0.85,0.08510638,231.32953,-377.7518,0.03818646,0.0067493767,-0.013931274,0.0,0.0,0.0
222.94391,162.23987,13114679,0.85,0.08510638,310.34146,-421.67557,0.03818646,0.0067493767,-0.013931274,0.0,0.0,0.0
228.13727,154.85449,13114695,0.825,0.09574468,371.54953,-455.70612,0.03818646,0.0067493767,-0.013931274,0.0,0.0,0.0
234.28275,149.61621,13114712,0.83750004,0.09574468,404.6329,-415.96924,0.03818646,0.0067493767,-0.013931274,0.0,0.0,0.0
240.01328,146.42896,13114729,0.825,0.10638297,403.8361,-262.25745,0.03818646,0.0067493767,-0.013931274,0.0,0.0,0.0
243.11362,145.59094,13114745,0.83750004,0.10638297,296.9536,-69.17713,0.03818646,0.0067493767,-0.013931274,0.0,0.0,0.0
246.8461,145.59094,13114762,0.825,0.09574468,203.51212,89.140495,0.03818646,0.0067493767,-0.013931274,0.0,0.0,0.0
249.85907,147.64197,13114779,0.8625,0.09574468,135.9159,200.15196,0.03818646,0.0067493767,-0.013931274,0.0,0.0,0.0
253.09863,151.85901,13114796,0.83750004,0.09574468,123.90158,289.02264,0.03818646,0.0067493767,-0.013931274,0.0,0.0,0.0
257.76944,160.86316,13114812,0.83750004,0.09574468,207.23503,465.3356,0.03818646,0.0067493767,-0.013931274,0.0,0.0,0.0
261.67432,168.76685,13114829,0.8125,0.11702127,264.3065,647.78735,0.03818646,0.0067493767,-0.013931274,0.0,0.0,0.0
264.73358,174.13184,13114846,0.825,0.12765957,245.88846,611.68384,0.03818646,0.0067493767,-0.013931274,0.0,0.0,0.0
268.23862,179.97253,13114862,0.8125,0.12765957,202.72118,423.5343,0.03818646,0.0067493767,-0.013931274,0.0,0.0,0.0
273.20258,188.59314,13114879,0.8,0.10638297,208.31647,337.41382,0.03818646,0.0067493767,-0.013931274,0.0,0.0,0.0
277.0785,194.93494,13114896,0.825,0.08510638,257.32367,399.19034,0.03818646,0.0067493767,-0.013931274,0.0,0.0,0.0
282.1835,201.27881,13114913,0.8125,0.08510638,307.4192,447.81958,0.03818646,0.0067493767,-0.013931274,0.0,0.0,0.0
289.39847,208.68958,13114929,0.825,0.08510638,386.36795,439.58215,0.03818646,0.0067493767,-0.013931274,0.0,0.0,0.0
296.18134,215.12256,13114946,0.825,0.08510638,441.75494,388.2996,0.03818646,0.0067493767,-0.013931274,0.0,0.0,0.0
302.86893,219.62671,13114963,0.8125,0.11702127,475.3782,330.51575,0.03818646,0.0067493767,-0.013931274,0.0,0.0,0.0
310.21982,224.20715,13114979,0.8125,0.11702127,480.48636,283.36813,0.03818646,0.0067493767,-0.013931274,0.0,0.0,0.0
319.17868,226.7345,13114996,0.825,0.10638297,497.65146,155.14482,0.03818646,0.0067493767,-0.013931274,0.0,0.0,0.0
332.0574,228.22168,13115013,0.83750004,0.09574468,647.5245,56.227222,0.03818646,0.0067493767,-0.013931274,0.0,0.0,0.0
342.76413,227.79248,13115030,0.825,0.10638297,779.7153,-35.042088,0.03818646,0.0067493767,-0.013931274,0.0,0.0,0.0
354.14194,225.9508,13115046,0.83750004,0.11702127,797.8968,-153.75659,0.03818646,0.0067493767,-0.013931274,0.0,0.0,0.0
363.19147,222.66089,13115063,0.8,0.09574468,669.7769,-244.50876,0.03818646,0.0067493767,-0.013931274,0.0,0.0,0.0
370.72037,218.95312,13115080,0.8125,0.09574468,481.9341,-308.25153,0.03818646,0.0067493767,-0.013931274,0.0,0.0,0.0
379.46713,214.53113,13115096,0.825,0.08510638,404.25818,-328.18082,0.03818646,0.0067493767,-0.013931274,0.0,0.0,0.0
387.39804,209.79346,13115113,0.8125,0.08510638,411.1074,-340.13907,0.03818646,0.0067493767,-0.013931274,0.0,0.0,0.0
394.7246,206.08301,13115130,0.8125,0.09574468,438.94882,-307.3241,0.03818646,0.0067493767,-0.013931274,0.0,0.0,0.0
399.9617,202.38757,13115147,0.8125,0.10638297,371.9794,-243.99992,0.03818646,0.0067493767,-0.013931274,0.0,0.0,0.0
403.01556,200.578,13115163,0.8,0.10638297,221.0133,-156.05478,0.03818646,0.0067493767,-0.013931274,0.0,0.0,0.0
405.54514,198.72412,13115180,0.825,0.12765957,87.99798,-77.59055,0.03818646,0.0067493767,-0.013931274,0.0,0.0,0.0
407.12158,196.87854,13115197,0.83750004,0.12765957,12.561128,-55.669838,0.0065491647,-0.010600492,0.0048542023,0.0,0.0,0.0
408.54214,194.99646,13115213,0.825,0.12765957,0.29440278,-62.769604,0.0065491647,-0.010600492,0.0048542023,0.0,0.0,0.0
408.84476,193.19409,13115230,0.8125,0.12765957,-7.2010093,-88.235054,0.0065491647,-0.010600492,0.0048542023,0.0,0.0,0.0
409.3446,191.34644,13115247,0.8125,0.12765957,-11.936068,-110.97559,0.0065491647,-0.010600492,0.0048542023,0.0,0.0,0.0
409.84445,189.54297,13115263,0.8,0.12765957,-7.2105637,-109.38972,0.0065491647,-0.010600492,0.0048542023,0.0,0.0,0.0
410.34427,187.6427,13115280,0.8,0.12765957,2.4913647,-110.75356,0.0065491647,-0.010600492,0.0048542023,0.0,0.0,0.0
410.34427,185.80225,13115297,0.825,0.12765957,15.4039,-110.14525,0.0065491647,-0.010600492,0.0048542023,0.0,0.0,0.0
410.34427,183.96338,13115314,0.8125,0.12765957,1.4801618,-110.47593,0.0065491647,-0.010600492,0.0048542023,0.0,0.0,0.0
410.34427,182.12585,13115330,0.825,0.12765957,-14.923158,-108.34249,0.0065491647,-0.010600492,0.0048542023,0.0,0.0,0.0
410.34427,181.14563,13115347,0.8,0.12765957,-14.802255,-84.33555,0.0065491647,-0.010600492,0.0048542023,0.0,0.0,0.0
410.34427,179.30188,13115364,0.8125,0.10638297,-4.898307,-81.52778,0.0065491647,-0.010600492,0.0048542023,0.0,0.0,0.0
410.34427,179.354,13115380,0.8125,0.10638297,-0.0023153832,-42.48158,0.0065491647,-0.010600492,0.0048542023,0.0,0.0,0.0
409.7345,178.46545,13115397,0.825,0.10638297,-14.301253,-24.680721,0.0065491647,-0.010600492,0.0048542023,0.0,0.0,0.0
409.84445,178.46545,13115407,0.8125,0.10638297,-18.368011,-8.257029,0.0065491647,-0.010600492,0.0048542023,0.0,0.0,0.0
409.1002,178.46545,13115428,0.8125,0.10638297,-34.852974,17.914568,0.0065491647,-0.010600492,0.0048542023,0.0,0.0,0.0
408.59485,178.46545,13115444,0.825,0.10638297,-42.182487,28.346308,0.0065491647,-0.010600492,0.0048542023,0.0,0.0,0.0
408.09503,178.46545,13115479,0.825,0.10638297,-9.870678,10.210316,0.0065491647,-0.010600492,0.0048542023,0.0,0.0,0.0
408.00012,178.46545,13115497,0.8125,0.10638297,-2.8299398,-0.015296925,0.0065491647,-0.010600492,0.0048542023,0.0,0.0,0.0
406.96036,178.46545,13115514,0.8125,0.12765957,-39.55311,-0.007720196,0.0065491647,-0.010600492,0.0048542023,0.0,0.0,0.0
405.9522,178.46545,13115531,0.83750004,0.12765957,-72.01549,0.0053475625,0.0065491647,-0.010600492,0.0048542023,0.0,0.0,0.0
404.89206,178.46545,13115548,0.825,0.12765957,-80.57952,-0.019151561,0.0065491647,-0.010600492,0.0048542023,0.0,0.0,0.0
403.8434,180.2478,13115564,0.83750004,0.10638297,-78.533905,51.481216,0.0065491647,-0.010600492,0.0048542023,0.0,0.0,0.0
401.759,181.20923,13115581,0.83750004,0.10638297,-95.810165,91.91208,0.0065491647,-0.010600492,0.0048542023,0.0,0.0,0.0
399.6782,183.05872,13115598,0.83750004,0.12765957,-128.16652,124.49372,0.0065491647,-0.010600492,0.0048542023,0.0,0.0,0.0
394.87247,189.97485,13115614,0.825,0.10638297,-226.95726,281.25986,0.0065491647,-0.010600492,0.0048542023,0.0,0.0,0.0
391.39694,196.42163,13115631,0.8125,0.10638297,-286.38354,435.61273,0.0065491647,-0.010600492,0.0048542023,0.0,0.0,0.0
388.26804,203.83752,13115648,0.825,0.08510638,-272.8136,542.3426,0.0065491647,-0.010600492,0.0048542023,0.0,0.0,0.0
384.96637,212.81372,13115665,0.825,0.08510638,-210.90962,587.3505,0.0065491647,-0.010600492,0.0048542023,0.0,0.0,0.0
381.52164,221.30798,13115681,0.825,0.10638297,-177.28058,584.9691,0.0065491647,-0.010600492,0.0048542023,0.0,0.0,0.0
378.71533,229.60498,13115698,0.8125,0.12765957,-184.39767,575.8982,0.0065491647,-0.010600492,0.0048542023,0.0,0.0,0.0
375.7834,238.505,13115715,0.825,0.12765957,-174.97746,545.463,0.0065491647,-0.010600492,0.0048542023,0.0,0.0,0.0
373.21542,249.83386,13115731,0.825,0.11702127,-150.0047,580.95844,-0.026760675,-0.0084804,0.0038833618,0.0,0.0,0.0
370.5601,263.68896,13115748,0.83750004,0.09574468,-137.51964,741.7042,-0.026760675,-0.0084804,0.0038833618,0.0,0.0,0.0
368.41025,276.76392,13115765,0.8125,0.11702127,-137.0313,906.0677,-0.026760675,-0.0084804,0.0038833618,0.0,0.0,0.0
367.34158,287.92944,13115781,0.8125,0.12765957,-94.41681,859.7257,-0.026760675,-0.0084804,0.0038833618,0.0,0.0,0.0
364.68887,300.9972,13115798,0.8125,0.10638297,-88.72041,776.6021,-0.026760675,-0.0084804,0.0038833618,0.0,0.0,0.0
363.26202,317.91736,13115815,0.825,0.09574468,-93.96724,842.28076,-0.026760675,-0.0084804,0.0038833618,0.0,0.0,0.0
362.85974,332.40723,13115832,0.825,0.12765957,-63.829533,944.83264,-0.026760675,-0.0084804,0.0038833618,0.0,0.0,0.0
362.3599,344.4314,13115848,0.825,0.12765957,-27.448341,918.1748,-0.026760675,-0.0084804,0.0038833618,0.0,0.0,0.0
363.77597,359.86694,13115865,0.825,0.09574468,53.679146,879.4376,-0.026760675,-0.0084804,0.0038833618,0.0,0.0,0.0
365.61017,378.8302,13115882,0.8125,0.11702127,142.43439,965.5921,-0.026760675,-0.0084804,0.0038833618,0.0,0.0,0.0
367.64688,393.52075,13115898,0.8125,0.12765957,183.18387,1079.5393,-0.026760675,-0.0084804,0.0038833618,0.0,0.0,0.0
370.00168,409.86975,13115915,0.8125,0.11702127,190.90486,1053.651,-0.026760675,-0.0084804,0.0038833618,0.0,0.0,0.0
372.41486,429.6991,13115932,0.8125,0.09574468,165.34995,1038.6919,-0.026760675,-0.0084804,0.0038833618,0.0,0.0,0.0
373.7503,445.28845,13115949,0.8125,0.12765957,127.175285,1034.4585,-0.026760675,-0.0084804,0.0038833618,0.0,0.0,0.0
374.79944,459.31897,13115965,0.8,0.12765957,81.37586,978.75024,-0.026760675,-0.0084804,0.0038833618,0.0,0.0,0.0
375.8379,473.19824,13115982,0.8125,0.09574468,42.232395,831.714,-0.026760675,-0.0084804,0.0038833618,0.0,0.0,0.0
375.8306,485.26465,13115999,0.8125,0.11702127,1.2945259,671.51544,-0.026760675,-0.0084804,0.0038833618,0.0,0.0,0.0
374.7867,494.37573,13116015,0.8125,0.11702127,-52.500195,565.2846,-0.026760675,-0.0084804,0.0038833618,0.0,0.0,0.0
372.6235,499.83643,13116032,0.8125,0.12765957,-124.57957,381.56613,-0.026760675,-0.0084804,0.0038833618,0.0,0.0,0.0
370.4914,503.4192,13116049,0.825,0.12765957,-184.30008,137.67104,-0.026760675,-0.0084804,0.0038833618,0.0,0.0,0.0
368.40732,505.83508,13116066,0.8,0.12765957,-192.10236,-11.465338,-0.026760675,-0.0084804,0.0038833618,0.0,0.0,0.0
362.5926,509.7738,13116082,0.825,0.12765957,-248.55644,42.045116,-0.026760675,-0.0084804,0.0038833618,0.0,0.0,0.0
354.235,512.588,13116099,0.8125,0.10638297,-444.27686,128.28621,-0.026760675,-0.0084804,0.0038833618,0.0,0.0,0.0
343.29657,514.84827,13116116,0.825,0.10638297,-686.6169,148.43228,-0.026760675,-0.0084804,0.0038833618,0.0,0.0,0.0
331.6366,516.0968,13116132,0.8,0.10638297,-857.2643,101.43727,-0.026760675,-0.0084804,0.0038833618,0.0,0.0,0.0
318.8792,516.0968,13116149,0.8,0.12765957,-873.9037,1.5933936,-0.026760675,-0.0084804,0.0038833618,0.0,0.0,0.0
300.98407,515.3666,13116166,0.825,0.10638297,-987.77606,-74.6045,-0.026760675,-0.0084804,0.0038833618,0.0,0.0,0.0
283.26703,512.7269,13116183,0.825,0.10638297,-1140.9626,-152.28455,-0.026760675,-0.0084804,0.0038833618,0.0,0.0,0.0
271.41608,508.99817,13116199,0.8125,0.12765957,-1112.4735,-252.10765,-0.026760675,-0.0084804,0.0038833618,0.0,0.0,0.0
263.08322,505.29736,13116216,0.825,0.10638297,-735.9801,-306.19604,-0.026760675,-0.0084804,0.0038833618,0.0,0.0,0.0
256.32498,500.55847,13116233,0.8625,0.10638297,-342.28775,-332.94785,-0.026760675,-0.0084804,0.0038833618,0.0,0.0,0.0
250.25049,496.09058,13116249,0.85,0.08510638,-145.72667,-329.14688,-0.026760675,-0.0084804,0.0038833618,0.0,0.0,0.0
247.55731,493.58215,13116266,0.8125,0.08510638,-79.81452,-254.52309,-0.0054085404,-0.00678432,0.003107071,0.0,0.0,0.0
246.89749,490.3302,13116280,0.375,0.10638297,-36.80151,-215.21176,-0.0054085404,-0.00678432,0.003107071,0.0,0.0,0.0
246.89749,490.3302,13116287,0.375,0.10638297,-36.80151,-215.21176,-0.0054085404,-0.00678432,0.003107071,0.0,0.0,0.0
321.37323,405.0338,13116570,0.7375,0.12765957,0.0,0.0,-0.0054085404,-0.00678432,0.003107071,0.0,0.0,0.0
321.37323,405.0338,13116600,0.77500004,0.12765957,-0.0038618406,-0.0047159055,-0.0054085404,-0.00678432,0.003107071,0.0,0.0,0.0
321.37323,405.0338,13116617,0.8125,0.12765957,0.029289909,0.037589442,-0.0054085404,-0.00678432,0.003107071,0.0,0.0,0.0
348.67648,397.21204,13116634,0.8,0.10638297,1343.5701,-388.28928,-0.0054085404,-0.00678432,0.003107071,0.0,0.0,0.0
364.119,394.40027,13116650,0.8,0.11702127,1630.3167,-419.86115,-0.0054085404,-0.00678432,0.003107071,0.0,0.0,0.0
382.74475,393.48328,13116667,0.8,0.09574468,1593.5448,-275.36615,-0.0054085404,-0.00678432,0.003107071,0.0,0.0,0.0
401.01974,392.4646,13116684,0.7,0.10638297,1480.4873,-106.44384,-0.0054085404,-0.00678432,0.003107071,0.0,0.0,0.0
412.34363,389.04077,13116691,0.25,0.11702127,1411.9852,-79.868225,-0.0054085404,-0.00678432,0.003107071,0.0,0.0,0.0
412.34363,389.04077,13116698,0.25,0.11702127,1411.9852,-79.868225,-0.0054085404,-0.00678432,0.003107071,0.0,0.0,0.0
462.8272,417.4729,13117694,0.38750002,0.08510638,0.0,0.0,0.0125385225,-0.03314197,-0.036411285,0.0,0.0,0.0
462.8272,417.4729,13117720,0.4375,0.09574468,-0.00493439,-0.005382013,0.0125385225,-0.03314197,-0.036411285,0.0,0.0,0.0
462.8272,417.4729,13117737,0.55,0.10638297,0.019264346,0.018942146,0.0125385225,-0.03314197,-0.036411285,0.0,0.0,0.0
462.8272,417.4729,13117753,0.65000004,0.12765957,0.0046743657,0.0040237578,0.0125385225,-0.03314197,-0.036411285,0.0,0.0,0.0
462.8272,417.4729,13117770,0.6875,0.10638297,-0.011782215,-0.0103387,0.0125385225,-0.03314197,-0.036411285,0.0,0.0,0.0
462.8272,417.4729,13117787,0.7,0.10638297,0.014911508,0.014224495,0.0125385225,-0.03314197,-0.036411285,0.0,0.0,0.0
462.8272,417.4729,13117803,0.725,0.08510638,-0.0016412734,-0.001166652,0.0125385225,-0.03314197,-0.036411285,0.0,0.0,0.0
462.8272,417.4729,13117820,0.75,0.09574468,0.010137535,0.010296618,0.0125385225,-0.03314197,-0.036411285,0.0,0.0,0.0
462.8272,417.4729,13117834,0.75,0.11702127,0.013985517,0.013748374,0.0125385225,-0.03314197,-0.036411285,0.0,0.0,0.0
462.8272,417.4729,13117854,0.77500004,0.11702127,0.03691045,0.035772353,0.0125385225,-0.03314197,-0.036411285,0.0,0.0,0.0
462.8272,417.4729,13117870,0.7625,0.12765957,0.03808626,0.035810053,-0.0059691817,0.021486431,0.0028705597,0.0,0.0,0.0
462.8272,417.4729,13117887,0.7625,0.10638297,0.014184699,0.013440952,-0.0059691817,0.021486431,0.0028705597,0.0,0.0,0.0
462.8272,417.4729,13117904,0.77500004,0.08510638,0.008297382,0.0073173777,-0.0059691817,0.021486431,0.0028705597,0.0,0.0,0.0
469.4265,436.2423,13117920,0.77500004,0.08510638,151.14671,429.87146,-0.0059691817,0.021486431,0.0028705597,0.0,0.0,0.0
470.71838,444.09998,13117937,0.77500004,0.12765957,288.44403,949.8373,-0.0059691817,0.021486431,0.0028705597,0.0,0.0,0.0
473.48572,454.0852,13117954,0.7625,0.12765957,288.98053,1043.4084,-0.0059691817,0.021486431,0.0028705597,0.0,0.0,0.0
476.60907,462.8728,13117971,0.7625,0.09574468,208.1546,749.74524,-0.0059691817,0.021486431,0.0028705597,0.0,0.0,0.0
480.02167,471.13855,13117987,0.77500004,0.09574468,163.94034,462.70844,-0.0059691817,0.021486431,0.0028705597,0.0,0.0,0.0
483.1803,476.14917,13118004,0.7625,0.08510638,176.5452,262.30173,-0.0059691817,0.021486431,0.0028705597,0.0,0.0,0.0
488.5735,481.00366,13118021,0.7625,0.08510638,262.1424,230.58797,-0.0059691817,0.021486431,0.0028705597,0.0,0.0,0.0
495.2066,483.92993,13118037,0.75,0.08510638,361.5615,118.363106,-0.0059691817,0.021486431,0.0028705597,0.0,0.0,0.0
502.43005,484.1106,13118054,0.7625,0.08510638,462.3055,5.170185,-0.0059691817,0.021486431,0.0028705597,0.0,0.0,0.0
509.81213,481.44495,13118071,0.77500004,0.08510638,524.587,-162.3366,-0.0059691817,0.021486431,0.0028705597,0.0,0.0,0.0
514.5157,476.7837,13118088,0.77500004,0.08510638,438.94287,-338.04767,-0.0059691817,0.021486431,0.0028705597,0.0,0.0,0.0
518.632,471.2412,13118104,0.7625,0.12765957,294.2849,-469.85736,-0.0059691817,0.021486431,0.0028705597,0.0,0.0,0.0
523.9024,462.61755,13118121,0.7625,0.11702127,226.4465,-569.1004,-0.0059691817,0.021486431,0.0028705597,0.0,0.0,0.0
528.80316,453.72925,13118138,0.7625,0.09574468,226.82086,-627.11566,-0.0059691817,0.021486431,0.0028705597,0.0,0.0,0.0
536.2841,431.21716,13118154,0.75,0.09574468,354.57788,-1039.563,-0.0059691817,0.021486431,0.0028705597,0.0,0.0,0.0
540.5022,417.23474,13118171,0.7625,0.12765957,383.56628,-1278.628,-0.0059691817,0.021486431,0.0028705597,0.0,0.0,0.0
544.12244,405.26562,13118188,0.77500004,0.12765957,274.6624,-1115.1947,-0.0059691817,0.021486431,0.0028705597,0.0,0.0,0.0
546.9947,396.16016,13118204,0.77500004,0.08510638,147.6358,-694.387,-0.0059691817,0.021486431,0.0028705597,0.0,0.0,0.0
549.4876,388.37048,13118221,0.7875,0.08510638,74.32922,-292.71167,-0.0059691817,0.021486431,0.0028705597,0.0,0.0,0.0
550.6774,383.25183,13118238,0.77500004,0.08510638,67.90697,-229.50443,-0.0059691817,0.021486431,0.0028705597,0.0,0.0,0.0
550.7985,380.2776,13118255,0.8,0.08510638,9.500368,-126.518135,-0.0059691817,0.021486431,0.0028705597,0.0,0.0,0.0
550.7985,378.43457,13118271,0.8,0.08510638,-53.47498,-11.061109,-0.0059691817,0.021486431,0.0028705597,0.0,0.0,0.0
550.28674,377.49023,13118288,0.8,0.08510638,-76.21929,50.78566,-0.0059691817,0.021486431,0.0028705597,0.0,0.0,0.0
549.23035,377.49023,13118305,0.8,0.08510638,-84.96581,78.77829,-0.0059691817,0.021486431,0.0028705597,0.0,0.0,0.0
546.01904,383.32068,13118321,0.7875,0.10638297,-151.00102,233.98196,-0.0059691817,0.021486431,0.0028705597,0.0,0.0,0.0
542.2976,391.1228,13118338,0.7875,0.12765957,-239.1262,466.0433,-0.0059691817,0.021486431,0.0028705597,0.0,0.0,0.0
540.41406,400.88208,13118355,0.7875,0.12765957,-247.24092,684.0566,-0.0059691817,0.021486431,0.0028705597,0.0,0.0,0.0
540.30194,409.88135,13118372,0.8125,0.11702127,-142.23834,768.647,-0.0059691817,0.021486431,0.0028705597,0.0,0.0,0.0
541.04535,421.82446,13118388,0.7875,0.08510638,54.32145,762.255,-0.0059691817,0.021486431,0.0028705597,0.0,0.0,0.0
542.5792,434.65283,13118405,0.7875,0.08510638,157.65727,838.8388,0.011224657,0.0011891425,0.018297195,0.0,0.0,0.0
544.77454,444.6588,13118422,0.77500004,0.12765957,190.03746,793.71375,0.011224657,0.0011891425,0.018297195,0.0,0.0,0.0
548.23804,454.43164,13118438,0.77500004,0.12765957,225.87592,649.8901,0.011224657,0.0011891425,0.018297195,0.0,0.0,0.0
551.7978,459.58752,13118455,0.7875,0.09574468,254.60762,401.97656,0.011224657,0.0011891425,0.018297195,0.0,0.0,0.0
559.8713,467.68665,13118472,0.8,0.08510638,387.5376,282.60614,0.011224657,0.0011891425,0.018297195,0.0,0.0,0.0
569.58136,474.20068,13118489,0.77500004,0.08510638,571.9854,295.75385,0.011224657,0.0011891425,0.018297195,0.0,0.0,0.0
578.9652,477.03723,13118505,0.8,0.09574468,705.7501,248.00888,0.011224657,0.0011891425,0.018297195,0.0,0.0,0.0
587.92694,476.00037,13118522,0.7875,0.08510638,699.7441,41.7994,0.011224657,0.0011891425,0.018297195,0.0,0.0,0.0
599.44147,474.14978,13118539,0.7875,0.08510638,690.152,-189.29205,0.011224657,0.0011891425,0.018297195,0.0,0.0,0.0
610.43604,471.13635,13118555,0.7875,0.09574468,680.4825,-351.12097,0.011224657,0.0011891425,0.018297195,0.0,0.0,0.0
626.9007,466.15198,13118572,0.7375,0.10638297,858.4326,-397.03854,0.011224657,0.0011891425,0.018297195,0.0,0.0,0.0
638.576,460.23596,13118589,0.675,0.12765957,932.1924,-427.34256,0.011224657,0.0011891425,0.018297195,0.0,0.0,0.0
640.2694,459.23254,13118593,0.35,0.12765957,900.43976,-421.4912,0.011224657,0.0011891425,0.018297195,0.0,0.0,0.0
640.2694,459.23254,13118601,0.35,0.12765957,900.43976,-421.4912,0.011224657,0.0011891425,0.018297195,0.0,0.0,0.0
617.2769,445.01648,13119653,0.4,0.07446808,0.0,0.0,-0.040816233,0.10316104,0.12370968,0.0,0.0,0.0
617.2769,445.01648,13119675,0.4625,0.07446808,0.115422525,0.079314396,-0.040816233,0.10316104,0.12370968,0.0,0.0,0.0
617.2769,445.01648,13119692,0.6125,0.08510638,-0.007266634,-0.0054351278,-0.040816233,0.10316104,0.12370968,0.0,0.0,0.0
617.2769,445.01648,13119708,0.6625,0.09574468,0.029780164,0.022720994,-0.040816233,0.10316104,0.12370968,0.0,0.0,0.0
617.2769,445.01648,13119721,0.71250004,0.09574468,4.3690865E-4,0.001902757,-0.040816233,0.10316104,0.12370968,0.0,0.0,0.0
617.2769,445.01648,13119742,0.71250004,0.08510638,0.025990179,0.017012255,-0.040816233,0.10316104,0.12370968,0.0,0.0,0.0
617.2769,445.01648,13119754,0.7375,0.08510638,-0.051850166,-0.03818544,-0.040816233,0.10316104,0.12370968,0.0,0.0,0.0
617.2769,445.01648,13119773,0.75,0.09574468,-0.085913084,-0.06263913,-0.040816233,0.10316104,0.12370968,0.0,0.0,0.0
639.53973,421.94495,13119792,0.7625,0.11702127,657.06006,-682.4527,-0.040816233,0.10316104,0.12370968,0.0,0.0,0.0
647.6405,412.72668,13119809,0.725,0.12765957,921.8476,-977.5733,-0.040816233,0.10316104,0.12370968,0.0,0.0,0.0
657.5014,402.115,13119825,0.7625,0.09574468,824.3627,-899.37067,-0.040816233,0.10316104,0.12370968,0.0,0.0,0.0
670.6694,386.99744,13119842,0.7375,0.08510638,731.3501,-823.3175,-0.040816233,0.10316104,0.12370968,0.0,0.0,0.0
683.28064,370.07532,13119859,0.7375,0.10638297,675.6377,-868.2432,-0.040816233,0.10316104,0.12370968,0.0,0.0,0.0
692.3894,355.0343,13119876,0.7375,0.11702127,775.93787,-1117.8783,-0.040816233,0.10316104,0.12370968,0.0,0.0,0.0
701.88513,334.98474,13119892,0.7375,0.08510638,618.65704,-1166.8816,-0.040816233,0.10316104,0.12370968,0.0,0.0,0.0
709.5514,315.81604,13119909,0.75,0.08510638,442.98422,-1241.4447,-0.040816233,0.10316104,0.12370968,0.0,0.0,0.0
714.8046,302.73267,13119926,0.7625,0.10638297,295.96225,-1070.3806,-0.040816233,0.10316104,0.12370968,0.0,0.0,0.0
719.95154,291.7318,13119942,0.77500004,0.08510638,249.18689,-811.093,-0.040816233,0.10316104,0.12370968,0.0,0.0,0.0
727.3023,270.09607,13119959,0.7625,0.08510638,277.23367,-841.7584,-0.040816233,0.10316104,0.12370968,0.0,0.0,0.0
730.59247,254.98352,13119976,0.7625,0.12765957,243.19016,-897.83075,-0.040816233,0.10316104,0.12370968,0.0,0.0,0.0
733.11414,239.77258,13119992,0.75,0.10638297,193.5318,-1014.80804,-0.040816233,0.10316104,0.12370968,0.0,0.0,0.0
732.7393,226.53857,13120009,0.7625,0.08510638,27.24902,-935.91296,0.015347019,-0.013471164,0.010967255,0.0,0.0,0.0
731.2477,214.48486,13120026,0.75,0.08510638,-168.78537,-684.13214,0.015347019,-0.013471164,0.010967255,0.0,0.0,0.0
729.16364,206.62451,13120043,0.7625,0.09574468,-230.43799,-548.92596,0.015347019,-0.013471164,0.010967255,0.0,0.0,0.0
726.76196,202.18347,13120059,0.77500004,0.10638297,-243.61505,-290.87738,0.015347019,-0.013471164,0.010967255,0.0,0.0,0.0
722.0471,199.13928,13120076,0.77500004,0.10638297,-265.17194,-40.347363,0.015347019,-0.013471164,0.010967255,0.0,0.0,0.0
715.8964,199.62415,13120093,0.75,0.10638297,-356.26978,142.95082,0.015347019,-0.013471164,0.010967255,0.0,0.0,0.0
707.7045,205.60303,13120109,0.7875,0.09574468,-497.221,336.0714,0.015347019,-0.013471164,0.010967255,0.0,0.0,0.0
698.36835,216.51404,13120126,0.7625,0.08510638,-637.40967,657.9502,0.015347019,-0.013471164,0.010967255,0.0,0.0,0.0
687.50653,231.24707,13120143,0.77500004,0.10638297,-713.05316,1008.4054,0.015347019,-0.013471164,0.010967255,0.0,0.0,0.0
672.0276,257.9536,13120160,0.77500004,0.08510638,-853.8201,1488.7438,0.015347019,-0.013471164,0.010967255,0.0,0.0,0.0
661.30695,278.08777,13120176,0.7625,0.10638297,-906.5617,1746.7825,0.015347019,-0.013471164,0.010967255,0.0,0.0,0.0
654.14655,295.03296,13120193,0.75,0.10638297,-713.3504,1567.1135,0.015347019,-0.013471164,0.010967255,0.0,0.0,0.0
647.3713,314.75037,13120210,0.77500004,0.09574468,-444.9158,1296.1692,0.015347019,-0.013471164,0.010967255,0.0,0.0,0.0
643.3867,332.64465,13120226,0.75,0.11702127,-140.06444,993.6466,0.015347019,-0.013471164,0.010967255,0.0,0.0,0.0
639.23004,347.42224,13120243,0.75,0.10638297,-89.89073,912.0271,0.015347019,-0.013471164,0.010967255,0.0,0.0,0.0
635.0994,364.55737,13120260,0.75,0.08510638,-160.1417,934.4132,0.015347019,-0.013471164,0.010967255,0.0,0.0,0.0
632.09863,381.38892,13120277,0.7625,0.08510638,-153.25203,903.5581,0.015347019,-0.013471164,0.010967255,0.0,0.0,0.0
629.51764,395.2981,13120293,0.75,0.12765957,-137.7403,878.714,0.015347019,-0.013471164,0.010967255,0.0,0.0,0.0
628.7732,407.26062,13120310,0.77500004,0.10638297,-71.556725,786.9123,0.015347019,-0.013471164,0.010967255,0.0,0.0,0.0
629.273,422.94177,13120327,0.7625,0.08510638,39.11272,724.6215,0.015347019,-0.013471164,0.010967255,0.0,0.0,0.0
630.2695,436.0973,13120343,0.75,0.08510638,119.74858,759.7586,0.015347019,-0.013471164,0.010967255,0.0,0.0,0.0
631.31024,445.286,13120360,0.75,0.12765957,138.98715,712.219,0.015347019,-0.013471164,0.010967255,0.0,0.0,0.0
632.27203,454.44128,13120377,0.7625,0.12765957,125.90603,559.17004,0.015347019,-0.013471164,0.010967255,0.0,0.0,0.0
634.4628,459.74304,13120394,0.7375,0.10638297,111.3951,296.6733,0.015347019,-0.013471164,0.010967255,0.0,0.0,0.0
635.95984,464.3468,13120410,0.77500004,0.09574468,117.9399,143.19005,0.015347019,-0.013471164,0.010967255,0.0,0.0,0.0
636.9624,466.68164,13120427,0.75,0.09574468,99.78517,80.680725,0.015347019,-0.013471164,0.010967255,0.0,0.0,0.0
637.50195,467.64075,13120444,0.77500004,0.09574468,53.13468,-5.840757,0.015347019,-0.013471164,0.010967255,0.0,0.0,0.0
638.4916,468.11755,13120460,0.7625,0.09574468,26.27348,-50.43283,0.015347019,-0.013471164,0.010967255,0.0,0.0,0.0
639.08014,468.11755,13120477,0.7875,0.09574468,17.98998,-95.57489,0.015347019,-0.013471164,0.010967255,0.0,0.0,0.0
640.1216,468.11755,13120494,0.7625,0.09574468,44.257553,-69.19044,0.015347019,-0.013471164,0.010967255,0.0,0.0,0.0
641.55206,468.11755,13120510,0.77500004,0.09574468,69.59642,-35.61225,0.015347019,-0.013471164,0.010967255,0.0,0.0,0.0
644.0374,468.11755,13120527,0.7625,0.11702127,119.81306,-14.454968,0.015347019,-0.013471164,0.010967255,0.0,0.0,0.0
646.2095,466.3921,13120544,0.7625,0.10638297,165.89111,-41.40468,0.012277618,-0.042776927,0.024774551,0.0,0.0,0.0
648.787,464.5515,13120561,0.7625,0.12765957,177.52866,-122.09731,0.012277618,-0.042776927,0.024774551,0.0,0.0,0.0
652.45154,460.84424,13120577,0.77500004,0.12765957,208.41936,-206.06049,0.012277618,-0.042776927,0.024774551,0.0,0.0,0.0
655.83826,457.3899,13120594,0.7625,0.10638297,226.37357,-266.0173,0.012277618,-0.042776927,0.024774551,0.0,0.0,0.0
657.38654,454.57214,13120611,0.75,0.10638297,190.90584,-261.15482,0.012277618,-0.042776927,0.024774551,0.0,0.0,0.0
659.5895,450.65613,13120627,0.7625,0.09574468,137.6228,-237.53749,0.012277618,-0.042776927,0.024774551,0.0,0.0,0.0
661.4641,448.21228,13120644,0.7625,0.08510638,87.222145,-198.69792,0.012277618,-0.042776927,0.024774551,0.0,0.0,0.0
662.502,445.47876,13120661,0.77500004,0.08510638,54.10424,-154.4164,0.012277618,-0.042776927,0.024774551,0.0,0.0,0.0
664.3262,442.23633,13120678,0.7625,0.08510638,68.55136,-154.95798,0.012277618,-0.042776927,0.024774551,0.0,0.0,0.0
665.58606,439.99658,13120694,0.7625,0.08510638,75.71237,-156.05731,0.012277618,-0.042776927,0.024774551,0.0,0.0,0.0
666.6213,438.1565,13120711,0.7625,0.08510638,64.88402,-130.0034,0.012277618,-0.042776927,0.024774551,0.0,0.0,0.0
668.1625,436.30542,13120728,0.77500004,0.08510638,75.725586,-102.21148,0.012277618,-0.042776927,0.024774551,0.0,0.0,0.0
669.6524,433.65686,13120744,0.75,0.08510638,78.38148,-96.94003,0.012277618,-0.042776927,0.024774551,0.0,0.0,0.0
671.20953,430.84473,13120761,0.7625,0.08510638,84.58847,-142.10886,0.012277618,-0.042776927,0.024774551,0.0,0.0,0.0
673.29895,427.17493,13120778,0.7625,0.08510638,119.19936,-212.79236,0.012277618,-0.042776927,0.024774551,0.0,0.0,0.0
677.5588,423.47815,13120795,0.77500004,0.08510638,190.2953,-245.56232,0.012277618,-0.042776927,0.024774551,0.0,0.0,0.0
681.6909,419.75195,13120811,0.77500004,0.10638297,272.78625,-253.38385,0.012277618,-0.042776927,0.024774551,0.0,0.0,0.0
685.7725,417.2428,13120828,0.7625,0.11702127,317.7701,-218.2141,0.012277618,-0.042776927,0.024774551,0.0,0.0,0.0
688.93726,414.40234,13120845,0.77500004,0.11702127,276.93066,-171.46564,0.012277618,-0.042776927,0.024774551,0.0,0.0,0.0
692.3704,410.88733,13120861,0.7625,0.12765957,224.46747,-162.08345,0.012277618,-0.042776927,0.024774551,0.0,0.0,0.0
695.50134,408.14368,13120878,0.7625,0.12765957,171.68825,-167.90033,0.012277618,-0.042776927,0.024774551,0.0,0.0,0.0
699.41754,405.4037,13120895,0.77500004,0.12765957,191.88428,-173.8471,0.012277618,-0.042776927,0.024774551,0.0,0.0,0.0
702.2357,402.97668,13120912,0.77500004,0.12765957,200.95995,-150.66492,0.012277618,-0.042776927,0.024774551,0.0,0.0,0.0
706.5854,399.28516,13120928,0.7625,0.10638297,209.07256,-163.99272,0.012277618,-0.042776927,0.024774551,0.0,0.0,0.0
712.26636,396.31934,13120945,0.7625,0.10638297,291.13306,-201.58165,0.012277618,-0.042776927,0.024774551,0.0,0.0,0.0
719.86584,392.78662,13120962,0.7625,0.09574468,411.913,-212.59999,0.012277618,-0.042776927,0.024774551,0.0,0.0,0.0
727.1627,389.08057,13120978,0.75,0.08510638,516.18036,-225.13103,0.012277618,-0.042776927,0.024774551,0.0,0.0,0.0
733.98737,385.37646,13120995,0.7625,0.08510638,515.1177,-227.22736,0.012277618,-0.042776927,0.024774551,3.355443E-6,0.0,0.0
739.72943,380.6693,13121012,0.7625,0.09574468,421.75528,-257.03134,0.012277618,-0.042776927,0.024774551,3.355443E-6,0.0,0.0
746.49567,377.104,13121029,0.7625,0.09574468,373.9849,-266.8339,0.012277618,-0.042776927,0.024774551,3.355443E-6,0.0,0.0
753.8167,373.38574,13121045,0.7875,0.08510638,389.36472,-242.75119,0.012277618,-0.042776927,0.024774551,3.355443E-6,0.0,0.0
761.1157,369.6787,13121062,0.77500004,0.08510638,438.00848,-223.92465,0.017822102,-0.050221544,-0.07618046,0.0,0.0,0.0
769.73553,369.49365,13121079,0.75,0.08510638,506.74332,-109.58833,0.017822102,-0.050221544,-0.07618046,0.0,0.0,0.0
776.0253,369.49365,13121095,0.7625,0.08510638,474.25037,19.77193,0.017822102,-0.050221544,-0.07618046,0.0,0.0,0.0
782.5246,369.49365,13121112,0.7625,0.08510638,414.07922,93.776276,0.017822102,-0.050221544,-0.07618046,0.0,0.0,0.0
787.7453,369.49365,13121129,0.7625,0.08510638,321.28992,93.57189,0.017822102,-0.050221544,-0.07618046,0.0,0.0,0.0
792.23425,371.05493,13121145,0.77500004,0.09574468,237.60695,72.68614,0.017822102,-0.050221544,-0.07618046,0.0,0.0,0.0
795.93854,372.8817,13121162,0.77500004,0.09574468,191.26318,106.86689,0.017822102,-0.050221544,-0.07618046,0.0,0.0,0.0
799.57544,374.74048,13121179,0.7625,0.09574468,168.50127,153.58122,0.017822102,-0.050221544,-0.07618046,0.0,0.0,0.0
801.70795,376.59375,13121196,0.7625,0.09574468,129.11026,162.89198,0.017822102,-0.050221544,-0.07618046,0.0,0.0,0.0
804.3182,381.22583,13121212,0.75,0.11702127,104.964005,208.42197,0.017822102,-0.050221544,-0.07618046,0.0,0.0,0.0
805.2946,382.96155,13121229,0.7625,0.11702127,68.49959,206.67128,0.017822102,-0.050221544,-0.07618046,0.0,0.0,0.0
807.6706,387.18494,13121246,0.77500004,0.11702127,59.85279,220.99088,0.017822102,-0.050221544,-0.07618046,0.0,0.0,0.0
808.88727,391.43152,13121262,0.77500004,0.12765957,73.281685,264.79013,0.017822102,-0.050221544,-0.07618046,0.0,0.0,0.0
810.40186,395.92773,13121279,0.7625,0.12765957,81.997665,286.6234,0.017822102,-0.050221544,-0.07618046,0.0,0.0,0.0
810.7139,400.52014,13121296,0.7625,0.12765957,58.45299,327.45563,0.017822102,-0.050221544,-0.07618046,0.0,0.0,0.0
810.7139,404.67627,13121313,0.7625,0.11702127,-4.555111,289.77075,0.017822102,-0.050221544,-0.07618046,0.0,0.0,0.0
810.7139,410.2444,13121329,0.77500004,0.09574468,-43.71673,283.69705,0.017822102,-0.050221544,-0.07618046,0.0,0.0,0.0
810.0142,416.67297,13121346,0.77500004,0.09574468,-50.055656,361.4628,0.017822102,-0.050221544,-0.07618046,0.0,0.0,0.0
808.8228,423.81165,13121363,0.7625,0.09574468,-79.342354,427.72784,0.017822102,-0.050221544,-0.07618046,0.0,0.0,0.0
808.2906,431.1494,13121379,0.7625,0.09574468,-75.18677,485.40344,0.017822102,-0.050221544,-0.07618046,0.0,0.0,0.0
807.7149,436.85754,13121396,0.7625,0.11702127,-68.082344,450.3427,0.017822102,-0.050221544,-0.07618046,0.0,0.0,0.0
807.2151,441.50488,13121413,0.7625,0.11702127,-37.228046,340.82474,0.017822102,-0.050221544,-0.07618046,0.0,0.0,0.0
807.2151,445.1858,13121430,0.75,0.12765957,-1.0900494,220.1154,0.017822102,-0.050221544,-0.07618046,0.0,0.0,0.0
807.2151,447.8346,13121446,0.7625,0.12765957,9.829236,124.577736,0.017822102,-0.050221544,-0.07618046,0.0,0.0,0.0
806.5822,449.69543,13121463,0.75,0.12765957,1.7813295,62.510056,0.017822102,-0.050221544,-0.07618046,0.0,0.0,0.0
806.7152,451.54968,13121480,0.75,0.12765957,-5.3842583,43.575523,0.017822102,-0.050221544,-0.07618046,0.0,0.0,0.0
806.7152,452.73938,13121496,0.7625,0.12765957,-7.733862,34.24876,0.017822102,-0.050221544,-0.07618046,0.0,0.0,0.0
806.7152,453.45728,13121509,0.77500004,0.12765957,-4.495166,31.629179,0.017822102,-0.050221544,-0.07618046,0.0,0.0,0.0
806.7152,453.01306,13121530,0.7625,0.12765957,9.6721,-12.279307,0.017822102,-0.050221544,-0.07618046,0.0,0.0,0.0
806.7152,453.01306,13121538,0.77500004,0.12765957,10.025973,-34.106102,0.017822102,-0.050221544,-0.07618046,0.0,0.0,0.0
806.7152,453.9015,13121563,0.77500004,0.12765957,-0.010533377,-8.820607,0.017822102,-0.050221544,-0.07618046,0.0,0.0,0.0
806.7152,453.9015,13121580,0.77500004,0.12765957,-0.034848344,15.60586,0.017822102,-0.050221544,-0.07618046,0.0,0.0,0.0
806.7152,453.9015,13121585,0.7625,0.12765957,0.012968775,11.658293,-0.00974232,0.02382277,0.0670557,0.0,0.0,0.0
806.2154,453.9015,13121630,0.7625,0.12765957,-15.544274,-14.999541,-0.00974232,0.02382277,0.0670557,0.0,0.0,0.0
806.2154,453.9015,13121663,0.7625,0.12765957,2.3961883,-0.024587851,-0.00974232,0.02382277,0.0670557,0.0,0.0,0.0
806.2154,453.9015,13121694,0.77500004,0.12765957,-2.5504784E-4,-3.1927045E-4,-0.00974232,0.02382277,0.0670557,0.0,0.0,0.0
806.2154,453.9015,13121714,0.7625,0.12765957,0.04487666,0.025009038,-0.00974232,0.02382277,0.0670557,0.0,0.0,0.0
806.2154,453.9015,13121730,0.77500004,0.12765957,0.010459434,0.007960305,-0.00974232,0.02382277,0.0670557,0.0,0.0,0.0
806.2154,453.9015,13121747,0.7625,0.12765957,-0.005563672,-0.0039512855,-0.00974232,0.02382277,0.0670557,0.0,0.0,0.0
806.2154,453.9015,13121764,0.77500004,0.12765957,0.013816909,0.007978875,-0.00974232,0.02382277,0.0670557,0.0,0.0,0.0
806.2154,453.9015,13121770,0.7625,0.12765957,-0.021798933,-0.010953717,-0.00974232,0.02382277,0.0670557,0.0,0.0,0.0
806.2154,453.9015,13121797,0.77500004,0.12765957,0.049970478,0.026337601,-0.00974232,0.02382277,0.0670557,0.0,0.0,0.0
806.2154,453.9015,13121814,0.7625,0.12765957,0.010462097,0.0077778907,-0.00974232,0.02382277,0.0670557,0.0,0.0,0.0
806.7084,453.02515,13121831,0.77500004,0.12765957,10.059216,-17.812021,-0.00974232,0.02382277,0.0670557,0.0,0.0,0.0
807.7488,451.17566,13121847,0.75,0.11702127,49.839832,-88.75064,-0.00974232,0.02382277,0.0670557,0.0,0.0,0.0
809.36456,449.32556,13121864,0.75,0.08510638,90.376785,-136.77238,-0.00974232,0.02382277,0.0670557,0.0,0.0,0.0
811.9852,446.47156,13121881,0.7625,0.08510638,157.76466,-186.0907,-0.00974232,0.02382277,0.0670557,0.0,0.0,0.0
817.5642,439.56396,13121897,0.7375,0.08510638,270.8913,-315.4118,-0.00974232,0.02382277,0.0670557,0.0,0.0,0.0
826.1241,430.72107,13121914,0.7625,0.08510638,453.6207,-498.73883,-0.00974232,0.02382277,0.0670557,0.0,0.0,0.0
837.1625,419.13684,13121931,0.75,0.09574468,713.8234,-752.7909,-0.00974232,0.02382277,0.0670557,0.0,0.0,0.0
849.6286,406.63892,13121948,0.7375,0.12765957,881.36584,-902.744,-0.00974232,0.02382277,0.0670557,0.0,0.0,0.0
860.6983,395.53308,13121964,0.75,0.09574468,873.3307,-867.01697,-0.00974232,0.02382277,0.0670557,0.0,0.0,0.0
873.3638,385.06445,13121981,0.75,0.08510638,819.056,-752.2059,-0.00974232,0.02382277,0.0670557,0.0,0.0,0.0
886.03235,378.17554,13121998,0.75,0.08510638,787.7992,-534.71344,-0.00974232,0.02382277,0.0670557,0.0,0.0,0.0
897.6923,373.34192,13122014,0.75,0.08510638,743.2606,-296.18134,-0.00974232,0.02382277,0.0670557,0.0,0.0,0.0
907.8439,371.33093,13122031,0.75,0.09574468,681.2582,-85.178314,-0.00974232,0.02382277,0.0670557,0.0,0.0,0.0
920.23444,370.3822,13122048,0.75,0.08510638,652.33954,65.7598,-0.00974232,0.02382277,0.0670557,0.0,0.0,0.0
930.6458,370.3822,13122065,0.75,0.08510638,634.7335,128.98682,-0.00974232,0.02382277,0.0670557,0.0,0.0,0.0
937.69604,370.3822,13122081,0.75,0.08510638,542.3447,119.25141,-0.00974232,0.02382277,0.0670557,0.0,0.0,0.0
942.1642,370.6012,13122098,0.7375,0.08510638,332.5656,84.12265,-0.00974232,0.02382277,0.0670557,0.0,0.0,0.0
946.23083,372.40845,13122115,0.75,0.08510638,146.50562,91.63233,-0.00974232,0.02382277,0.0670557,0.0,0.0,0.0
948.5526,372.15918,13122131,0.75,0.08510638,17.729353,71.15763,0.008206144,0.035058215,0.069643974,0.0,0.0,0.0
949.9014,372.15918,13122148,0.7625,0.08510638,11.027089,30.61622,0.008206144,0.035058215,0.069643974,0.0,0.0,0.0
950.6684,372.15918,13122165,0.7625,0.08510638,-4.5105605,-11.710443,0.008206144,0.035058215,0.069643974,0.0,0.0,0.0
950.6684,372.15918,13122182,0.7625,0.08510638,-47.32389,-33.036003,0.008206144,0.035058215,0.069643974,0.0,0.0,0.0
950.6684,371.5514,13122198,0.75,0.08510638,-59.71268,-19.693743,0.008206144,0.035058215,0.069643974,0.0,0.0,0.0
950.6684,369.68823,13122215,0.7375,0.08510638,-48.893707,-71.27815,0.008206144,0.035058215,0.069643974,0.0,0.0,0.0
949.7491,367.8595,13122232,0.7625,0.08510638,-44.914024,-132.67583,0.008206144,0.035058215,0.069643974,0.0,0.0,0.0
947.2455,365.98474,13122248,0.7625,0.08510638,-98.807785,-163.966,0.008206144,0.035058215,0.069643974,0.0,0.0,0.0
942.5786,365.05115,13122265,0.75,0.08510638,-236.45001,-125.01846,0.008206144,0.035058215,0.069643974,0.0,0.0,0.0
935.2239,365.05115,13122282,0.75,0.08510638,-422.6415,-35.822613,0.008206144,0.035058215,0.069643974,0.0,0.0,0.0
926.3635,366.10022,13122298,0.7625,0.09574468,-596.4464,53.084805,0.008206144,0.035058215,0.069643974,0.0,0.0,0.0
913.36816,369.0653,13122315,0.77500004,0.08510638,-783.5221,163.19778,0.008206144,0.035058215,0.069643974,0.0,0.0,0.0
900.59045,374.9242,13122332,0.7625,0.08510638,-897.04333,320.27612,0.008206144,0.035058215,0.069643974,0.0,0.0,0.0
889.4783,380.6953,13122349,0.75,0.08510638,-905.06244,435.45718,0.008206144,0.035058215,0.069643974,0.0,0.0,0.0
879.95996,386.80542,13122365,0.7375,0.10638297,-744.5801,494.35254,0.008206144,0.035058215,0.069643974,0.0,0.0,0.0
873.4609,392.35718,13122382,0.75,0.12765957,-472.24033,431.9411,0.008206144,0.035058215,0.069643974,0.0,0.0,0.0
867.4273,399.60352,13122399,0.75,0.12765957,-257.3362,381.72617,0.008206144,0.035058215,0.069643974,0.0,0.0,0.0
862.3796,409.95898,13122415,0.7625,0.09574468,-164.49118,485.5074,0.008206144,0.035058215,0.069643974,0.0,0.0,0.0
858.5246,422.53308,13122432,0.7625,0.08510638,-165.49306,728.8421,0.008206144,0.035058215,0.069643974,0.0,0.0,0.0
857.69867,433.7257,13122449,0.77500004,0.08510638,-99.187904,872.0734,0.008206144,0.035058215,0.069643974,0.0,0.0,0.0
859.63776,441.302,13122466,0.75,0.11702127,87.3053,754.8442,0.008206144,0.035058215,0.069643974,0.0,0.0,0.0
862.7655,445.9862,13122482,0.7625,0.12765957,277.60413,404.7036,0.008206144,0.035058215,0.069643974,0.0,0.0,0.0
867.5265,449.69434,13122499,0.7375,0.12765957,389.4288,130.89563,0.008206144,0.035058215,0.069643974,0.0,0.0,0.0
876.6258,452.30884,13122516,0.75,0.12765957,535.28613,16.370493,0.008206144,0.035058215,0.069643974,0.0,0.0,0.0
887.37213,451.00244,13122532,0.75,0.12765957,695.95044,-90.10603,0.008206144,0.035058215,0.069643974,0.0,0.0,0.0
896.8789,447.90198,13122549,0.7625,0.10638297,777.2104,-212.62828,0.008206144,0.035058215,0.069643974,0.0,0.0,0.0
906.16437,441.67456,13122566,0.75,0.09574468,747.9673,-403.22018,0.008206144,0.035058215,0.069643974,0.0,0.0,0.0
913.5014,433.8202,13122583,0.7375,0.09574468,533.3517,-585.1118,0.008206144,0.035058215,0.069643974,0.0,0.0,0.0
918.86914,426.01965,13122599,0.7375,0.08510638,345.39224,-634.14923,0.008206144,0.035058215,0.069643974,0.0,0.0,0.0
924.6593,417.20276,13122616,0.725,0.12765957,236.8614,-623.4291,0.008206144,0.035058215,0.069643974,0.0,0.0,0.0
929.5063,407.9995,13122633,0.75,0.12765957,208.35425,-598.3511,0.008206144,0.035058215,0.069643974,0.0,0.0,0.0
934.1666,396.61194,13122649,0.75,0.08510638,225.67674,-622.6236,0.008206144,0.035058215,0.069643974,0.0,0.0,0.0
937.02704,386.005,13122666,0.75,0.08510638,211.49777,-717.9733,-0.05743508,0.07604657,0.039715767,0.0,0.0,0.0
938.16656,378.4203,13122683,0.7625,0.08510638,111.0324,-659.8091,-0.05743508,0.07604657,0.039715767,0.0,0.0,0.0
938.1724,371.99023,13122700,0.75,0.08510638,-29.31998,-454.7609,-0.05743508,0.07604657,0.039715767,0.0,0.0,0.0
938.1724,367.44397,13122716,0.77500004,0.10638297,-91.07963,-256.30328,-0.05743508,0.07604657,0.039715767,0.0,0.0,0.0
937.05774,365.7351,13122733,0.77500004,0.10638297,-123.8227,-59.205807,-0.05743508,0.07604657,0.039715767,0.0,0.0,0.0
936.022,363.89417,13122750,0.7625,0.10638297,-111.61694,5.418327,-0.05743508,0.07604657,0.039715767,0.0,0.0,0.0
936.1731,362.38574,13122766,0.7625,0.10638297,-69.610565,27.80063,-0.05743508,0.07604657,0.039715767,0.0,0.0,0.0
936.1731,362.38574,13122783,0.75,0.08510638,-12.569792,22.706053,-0.05743508,0.07604657,0.039715767,0.0,0.0,0.0
935.6733,362.86438,13122800,0.77500004,0.08510638,10.630366,37.422867,-0.05743508,0.07604657,0.039715767,0.0,0.0,0.0
935.6733,364.70654,13122816,0.77500004,0.08510638,4.943728,120.12486,-0.05743508,0.07604657,0.039715767,0.0,0.0,0.0
935.6733,368.6505,13122833,0.75,0.08510638,-6.2367125,220.27455,-0.05743508,0.07604657,0.039715767,0.0,0.0,0.0
936.53705,375.63574,13122850,0.7375,0.08510638,22.008219,382.6382,-0.05743508,0.07604657,0.039715767,0.0,0.0,0.0
938.8946,382.16345,13122867,0.7625,0.09574468,96.569954,510.52118,-0.05743508,0.07604657,0.039715767,0.0,0.0,0.0
941.12787,387.18628,13122883,0.77500004,0.12765957,176.67168,516.83704,-0.05743508,0.07604657,0.039715767,0.0,0.0,0.0
944.6845,392.61377,13122900,0.75,0.12765957,229.496,390.69064,-0.05743508,0.07604657,0.039715767,0.0,0.0,0.0
950.75134,397.9995,13122917,0.75,0.12765957,331.6403,297.85434,-0.05743508,0.07604657,0.039715767,0.0,0.0,0.0
957.1472,403.6842,13122933,0.75,0.10638297,423.76358,291.7982,-0.05743508,0.07604657,0.039715767,0.0,0.0,0.0
962.47974,407.2937,13122950,0.75,0.11702127,438.79694,272.72217,-0.05743508,0.07604657,0.039715767,0.0,0.0,0.0
967.5342,410.98413,13122967,0.75,0.11702127,397.14508,229.9743,-0.05743508,0.07604657,0.039715767,0.0,0.0,0.0
972.35767,412.49622,13122984,0.7375,0.08510638,309.12683,119.655045,-0.05743508,0.07604657,0.039715767,0.0,0.0,0.0
979.8103,414.34363,13123000,0.7625,0.10638297,335.1164,47.556694,-0.05743508,0.07604657,0.039715767,0.0,0.0,0.0
986.2781,414.80737,13123017,0.75,0.10638297,428.3211,14.890341,-0.05743508,0.07604657,0.039715767,0.0,0.0,0.0
993.35864,414.80737,13123034,0.7625,0.09574468,458.1102,-35.513565,-0.05743508,0.07604657,0.039715767,0.0,0.0,0.0
998.48193,413.52515,13123050,0.75,0.10638297,405.97757,-84.13272,-0.05743508,0.07604657,0.039715767,0.0,0.0,0.0
1004.2291,411.67444,13123067,0.75,0.12765957,307.0308,-144.9484,-0.05743508,0.07604657,0.039715767,0.0,0.0,0.0
1008.3098,408.8899,13123084,0.75,0.12765957,250.68312,-190.87535,-0.05743508,0.07604657,0.039715767,0.0,0.0,0.0
1011.52673,406.86487,13123101,0.75,0.12765957,187.9011,-200.8609,-0.05743508,0.07604657,0.039715767,0.0,0.0,0.0
1014.1958,405.00525,13123117,0.75,0.12765957,128.08961,-165.53357,-0.05743508,0.07604657,0.039715767,0.0,0.0,0.0
1015.678,403.20215,13123134,0.7625,0.12765957,78.54645,-119.87742,-0.05743508,0.07604657,0.039715767,0.0,0.0,0.0
1016.83044,401.31665,13123151,0.7375,0.12765957,25.83127,-94.969055,-0.05743508,0.07604657,0.039715767,0.0,0.0,0.0
1017.1467,400.30676,13123167,0.7375,0.12765957,7.0225205,-68.21604,-0.05743508,0.07604657,0.039715767,0.0,0.0,0.0
1017.1467,400.5913,13123184,0.7375,0.12765957,-34.45393,-23.959726,-0.05743508,0.07604657,0.039715767,0.0,0.0,0.0
1017.6466,400.5913,13123201,0.7625,0.12765957,-25.5072,25.27668,-0.013948061,-0.019162752,-0.032227516,0.0,0.0,0.0
1017.6466,399.70276,13123218,0.7375,0.12765957,-9.987338,19.264742,-0.013948061,-0.019162752,-0.032227516,0.0,0.0,0.0
1017.6466,399.70276,13123225,0.75,0.12765957,-11.861678,6.125153,-0.013948061,-0.019162752,-0.032227516,0.0,0.0,0.0
1017.6466,398.81433,13123284,0.7625,0.12765957,-0.099421434,-0.036425624,-0.013948061,-0.019162752,-0.032227516,0.0,0.0,0.0
1017.6466,398.81433,13123301,0.7375,0.12765957,0.055387415,0.022502081,-0.013948061,-0.019162752,-0.032227516,0.0,0.0,0.0
1017.6466,398.81433,13123310,0.75,0.12765957,0.17114775,0.06457014,-0.013948061,-0.019162752,-0.032227516,0.0,0.0,0.0
1017.6466,398.81433,13123359,0.7625,0.12765957,0.0,0.0,-0.013948061,-0.019162752,-0.032227516,0.0,0.0,0.0
1017.6466,398.81433,13123383,0.75,0.12765957,-0.008711075,-0.0019972087,-0.013948061,-0.019162752,-0.032227516,0.0,0.0,0.0
1017.6466,398.81433,13123418,0.75,0.12765957,-0.006208635,-0.0018748736,-0.013948061,-0.019162752,-0.032227516,0.0,0.0,0.0
1017.6466,398.81433,13123435,0.77500004,0.12765957,-0.03388785,-0.013414411,-0.013948061,-0.019162752,-0.032227516,0.0,0.0,0.0
1017.6466,398.81433,13123451,0.75,0.12765957,0.023577766,0.009448218,-0.013948061,-0.019162752,-0.032227516,0.0,0.0,0.0
1017.6466,397.92578,13123468,0.75,0.12765957,-0.026703835,-33.73268,-0.013948061,-0.019162752,-0.032227516,0.0,0.0,0.0
1017.6466,397.92578,13123485,0.7625,0.12765957,-0.014320799,-35.904655,-0.013948061,-0.019162752,-0.032227516,0.0,0.0,0.0
1017.6466,397.92578,13123502,0.75,0.12765957,-0.07216774,-18.848059,-0.013948061,-0.019162752,-0.032227516,0.0,0.0,0.0
1017.6466,397.92578,13123511,0.7625,0.12765957,-0.0062354347,-6.620764,-0.013948061,-0.019162752,-0.032227516,0.0,0.0,0.0
1017.6466,397.92578,13123535,0.75,0.12765957,0.053716775,15.76933,-0.013948061,-0.019162752,-0.032227516,0.0,0.0,0.0
1017.6466,396.59314,13123547,0.7625,0.12765957,-0.048050698,-19.352669,-0.013948061,-0.019162752,-0.032227516,0.0,0.0,0.0
1017.6466,395.12195,13123568,0.7625,0.11702127,0.017459586,-87.64981,-0.013948061,-0.019162752,-0.032227516,0.0,0.0,0.0
1017.6466,393.9276,13123580,0.75,0.11702127,0.03448271,-118.255806,-0.013948061,-0.019162752,-0.032227516,0.0,0.0,0.0
1017.6466,392.35327,13123602,0.7375,0.10638297,-0.004476075,-114.62151,-0.013948061,-0.019162752,-0.032227516,0.0,0.0,0.0
1018.14636,390.49048,13123619,0.7375,0.09574468,17.75096,-101.55368,-0.013948061,-0.019162752,-0.032227516,0.0,0.0,0.0
1018.371,388.2422,13123635,0.7375,0.09574468,20.582758,-123.73759,-0.013948061,-0.019162752,-0.032227516,0.0,0.0,0.0
1019.41516,382.20654,13123652,0.75,0.09574468,45.284008,-242.59831,-0.013948061,-0.019162752,-0.032227516,0.0,0.0,0.0
1019.95276,372.4408,13123669,0.7375,0.09574468,54.999645,-501.5999,-0.013948061,-0.019162752,-0.032227516,0.0,0.0,0.0
1020.14575,362.85596,13123685,0.725,0.11702127,42.2023,-722.3983,-0.013948061,-0.019162752,-0.032227516,0.0,0.0,0.0
1018.8832,355.23145,13123702,0.725,0.12765957,-13.592114,-734.0185,-0.013948061,-0.019162752,-0.032227516,0.0,0.0,0.0
1017.3152,348.61877,13123719,0.75,0.10638297,-103.62395,-547.99536,-0.013948061,-0.019162752,-0.032227516,0.0,0.0,0.0
1015.73083,343.87585,13123736,0.7375,0.10638297,-146.94466,-312.7622,0.004841551,-0.015330203,0.0062179565,0.0,0.0,0.0
1014.70703,341.16736,13123752,0.7625,0.10638297,-132.22868,-142.2678,0.004841551,-0.015330203,0.0062179565,0.0,0.0,0.0
1013.60376,339.20618,13123769,0.7625,0.10638297,-85.94734,-46.492416,0.004841551,-0.015330203,0.0062179565,0.0,0.0,0.0
1012.8982,337.9519,13123781,0.7625,0.10638297,-59.34442,-7.901196,0.004841551,-0.015330203,0.0062179565,0.0,0.0,0.0
1013.1481,338.39612,13123802,0.7625,0.10638297,-1.6950203,64.39602,0.004841551,-0.015330203,0.0062179565,0.0,0.0,0.0
1013.72485,338.39612,13123819,0.75,0.12765957,39.502514,76.71883,0.004841551,-0.015330203,0.0062179565,0.0,0.0,0.0
1015.9453,340.88232,13123836,0.75,0.12765957,103.12981,128.95499,0.004841551,-0.015330203,0.0062179565,0.0,0.0,0.0
1020.1024,345.89062,13123853,0.7625,0.12765957,224.1393,255.86153,0.004841551,-0.015330203,0.0062179565,0.0,0.0,0.0
1026.0984,352.98914,13123869,0.7375,0.09574468,365.86322,426.16003,0.004841551,-0.015330203,0.0062179565,0.0,0.0,0.0
1033.1909,364.2505,13123886,0.75,0.08510638,496.02817,671.3071,0.004841551,-0.015330203,0.0062179565,0.0,0.0,0.0
1042.3385,377.47046,13123903,0.75,0.08510638,593.0995,899.9604,0.004841551,-0.015330203,0.0062179565,0.0,0.0,0.0
1049.8577,388.74365,13123919,0.7375,0.10638297,605.2258,942.4675,0.004841551,-0.015330203,0.0062179565,0.0,0.0,0.0
1056.6262,398.92957,13123936,0.7375,0.12765957,521.0275,808.63745,0.004841551,-0.015330203,0.0062179565,0.0,0.0,0.0
1061.5171,406.60608,13123953,0.725,0.10638297,371.91293,570.6819,0.004841551,-0.015330203,0.0062179565,0.0,0.0,0.0
1067.188,420.31714,13123970,0.7375,0.08510638,276.7794,571.9255,0.004841551,-0.015330203,0.0062179565,0.0,0.0,0.0
1068.1301,431.3816,13123986,0.725,0.08510638,134.04237,671.0708,0.004841551,-0.015330203,0.0062179565,0.0,0.0,0.0
1065.875,440.44324,13124003,0.7375,0.10638297,-76.96843,679.4155,0.004841551,-0.015330203,0.0062179565,0.0,0.0,0.0
1062.2783,445.43555,13124020,0.7375,0.10638297,-306.14725,495.01932,0.004841551,-0.015330203,0.0062179565,0.0,0.0,0.0
1055.007,452.23767,13124036,0.7375,0.12765957,-501.46487,284.19714,0.004841551,-0.015330203,0.0062179565,0.0,0.0,0.0
1045.4854,458.55652,13124053,0.725,0.10638297,-672.80707,213.05396,0.004841551,-0.015330203,0.0062179565,0.0,0.0,0.0
1038.1127,462.67346,13124070,0.725,0.09574468,-676.63477,257.8057,0.004841551,-0.015330203,0.0062179565,0.0,0.0,0.0
1032.0082,465.04736,13124087,0.71250004,0.09574468,-552.46564,194.90634,0.004841551,-0.015330203,0.0062179565,0.0,0.0,0.0
1024.1301,467.7672,13124103,0.625,0.08510638,-438.0341,90.55623,0.004841551,-0.015330203,0.0062179565,0.0,0.0,0.0
1023.1448,468.11755,13124106,0.3125,0.10638297,-433.10864,83.6735,0.004841551,-0.015330203,0.0062179565,0.0,0.0,0.0
1023.1448,468.11755,13124116,0.3125,0.10638297,-433.10864,83.6735,0.004841551,-0.015330203,0.0062179565,0.0,0.0,0.0
1080.1262,408.5879,13124307,0.6375,0.12765957,0.0,0.0,-0.012126766,0.03573583,0.052973747,0.0,0.0,0.0
1080.1262,408.5879,13124337,0.7,0.12765957,0.02388579,0.012685101,-0.012126766,0.03573583,0.052973747,0.0,0.0,0.0
1070.4469,393.15906,13124354,0.71250004,0.08510638,-669.82544,-1055.0962,-0.012126766,0.03573583,0.052973747,0.0,0.0,0.0
1063.276,368.48608,13124371,0.71250004,0.08510638,-760.8568,-1835.6864,-0.012126766,0.03573583,0.052973747,0.0,0.0,0.0
1068.0745,346.56238,13124387,0.725,0.12765957,-297.32693,-1968.236,-0.012126766,0.03573583,0.052973747,0.0,0.0,0.0
1077.3579,325.48828,13124404,0.725,0.11702127,314.86786,-1872.2883,-0.012126766,0.03573583,0.052973747,0.0,0.0,0.0
1092.1039,307.9541,13124421,0.725,0.12765957,996.41626,-1456.2153,-0.012126766,0.03573583,0.052973747,0.0,0.0,0.0
1104.9863,298.49158,13124437,0.7375,0.12765957,1300.8585,-785.15247,-0.012126766,0.03573583,0.052973747,0.0,0.0,0.0
1118.9426,297.5249,13124454,0.725,0.12765957,1152.0813,-175.78076,-0.012126766,0.03573583,0.052973747,0.0,0.0,0.0
1130.3215,303.14636,13124471,0.725,0.09574468,907.1085,439.93118,-0.012126766,0.03573583,0.052973747,0.0,0.0,0.0
1139.3551,317.51294,13124488,0.71250004,0.08510638,637.4489,1025.9698,-0.012126766,0.03573583,0.052973747,0.0,0.0,0.0
1149.159,342.19604,13124504,0.71250004,0.12765957,529.4556,1637.4243,-0.012126766,0.03573583,0.052973747,0.0,0.0,0.0
1150.6033,364.0099,13124521,0.71250004,0.08510638,263.71185,1902.505,-0.012126766,0.03573583,0.052973747,0.0,0.0,0.0
1146.7196,385.69287,13124538,0.6875,0.10638297,-164.80647,1868.0947,-0.012126766,0.03573583,0.052973747,0.0,0.0,0.0
1140.4126,402.50842,13124554,0.71250004,0.12765957,-557.9857,1430.5853,-0.012126766,0.03573583,0.052973747,0.0,0.0,0.0
1131.6344,416.80664,13124571,0.7,0.08510638,-832.63214,913.1204,-0.012126766,0.03573583,0.052973747,0.0,0.0,0.0
1114.8018,430.3507,13124588,0.7,0.08510638,-1002.62366,631.2696,-0.012126766,0.03573583,0.052973747,0.0,0.0,0.0
1098.5297,437.04285,13124605,0.71250004,0.09574468,-1188.2042,412.7737,-0.012126766,0.03573583,0.052973747,0.0,0.0,0.0
1086.6088,437.90845,13124621,0.725,0.08510638,-1131.1976,87.353775,-0.012126766,0.03573583,0.052973747,0.0,0.0,0.0
1081.2858,435.98047,13124638,0.725,0.08510638,-737.4901,-265.3556,-0.012126766,0.03573583,0.052973747,0.0,0.0,0.0
1078.869,434.1255,13124655,0.725,0.08510638,-194.72046,-445.21152,-0.012126766,0.03573583,0.052973747,0.0,0.0,0.0
1077.9503,432.26367,13124671,0.71250004,0.08510638,199.79097,-416.2004,-0.012126766,0.03573583,0.052973747,0.0,0.0,0.0
1079.8606,431.68896,13124688,0.725,0.09574468,303.223,-213.23482,-0.012126766,0.03573583,0.052973747,0.0,0.0,0.0
1091.3293,435.13867,13124705,0.71250004,0.08510638,508.4532,58.51923,-0.012126766,0.03573583,0.052973747,0.0,0.0,0.0
1111.3271,443.43225,13124722,0.725,0.10638297,1119.5675,404.63715,-0.012126766,0.03573583,0.052973747,0.0,0.0,0.0
1125.0265,449.33704,13124738,0.71250004,0.12765957,1446.0968,614.88043,-0.012126766,0.03573583,0.052973747,0.0,0.0,0.0
1134.4697,454.28406,13124755,0.7375,0.12765957,1197.5619,578.0509,-0.012126766,0.03573583,0.052973747,0.0,0.0,0.0
1141.3743,457.9723,13124772,0.725,0.12765957,569.2485,338.60263,-0.012126766,0.03573583,0.052973747,0.0,0.0,0.0
1146.2897,460.78552,13124788,0.71250004,0.10638297,106.29429,123.219894,-0.012126766,0.03573583,0.052973747,0.0,0.0,0.0
1151.9696,462.73914,13124805,0.71250004,0.09574468,66.46315,58.473125,0.0062985867,-0.0034113377,-0.037620544,0.0,0.0,0.0
1154.6278,463.67505,13124822,0.6875,0.09574468,120.80901,31.933622,0.0062985867,-0.0034113377,-0.037620544,0.0,0.0,0.0
1155.1018,463.67505,13124838,0.4,0.10638297,40.967056,-23.836441,0.0062985867,-0.0034113377,-0.037620544,0.0,0.0,0.0
1155.1018,463.67505,13124846,0.4,0.10638297,40.967056,-23.836441,0.0062985867,-0.0034113377,-0.037620544,0.0,0.0,0.0
1134.1086,395.26025,13125015,0.65000004,0.11702127,0.0,0.0,0.0062985867,-0.0034113377,-0.037620544,0.0,0.0,0.0
1134.1086,395.26025,13125039,0.6875,0.11702127,-0.0666002,-0.021604817,0.0062985867,-0.0034113377,-0.037620544,0.0,0.0,0.0
1134.1086,395.26025,13125051,0.71250004,0.11702127,-0.023935035,-0.008985412,0.0062985867,-0.0034113377,-0.037620544,0.0,0.0,0.0
1134.1086,395.26025,13125072,0.71250004,0.12765957,0.04467992,0.0144325,0.0062985867,-0.0034113377,-0.037620544,0.0,0.0,0.0
1134.1086,395.26025,13125089,0.71250004,0.12765957,-0.024358433,-0.0078877695,0.0062985867,-0.0034113377,-0.037620544,0.0,0.0,0.0
1162.6039,401.18457,13125106,0.725,0.12765957,917.37225,193.83458,0.0062985867,-0.0034113377,-0.037620544,0.0,0.0,0.0
1179.5872,403.64478,13125123,0.7,0.12765957,1572.7012,297.96582,0.0062985867,-0.0034113377,-0.037620544,0.0,0.0,0.0
1200.4037,404.1454,13125139,0.65000004,0.12765957,1749.8975,224.66798,0.0062985867,-0.0034113377,-0.037620544,0.0,0.0,0.0
1207.0848,404.1454,13125143,0.2875,0.10638297,1781.3002,193.0403,0.0062985867,-0.0034113377,-0.037620544,0.0,0.0,0.0
1207.0848,404.1454,13125150,0.2875,0.10638297,1781.3002,193.0403,0.0062985867,-0.0034113377,-0.037620544,0.0,0.0,0.0
