x,y,timestamp,pressure,fingerarea,velocityx,velocityy,accelx,accely,accelz,gyrox,gyroy,gyroz
195.9141,343.72717,71279746,0.83750004,0.12765957,0.0,0.0,-1.5066192E-4,-0.0047689527,0.003575325,0.0,0.0,0.0
195.9141,343.72717,71279773,0.875,0.12765957,0.012183867,0.02030836,-1.5066192E-4,-0.0047689527,0.003575325,0.0,0.0,0.0
195.9141,343.72717,71279790,0.90000004,0.10638297,0.015854249,0.025170619,-1.5066192E-4,-0.0047689527,0.003575325,0.0,0.0,0.0
195.9141,343.72717,71279797,0.925,0.10638297,0.001057228,0.002418851,-1.5066192E-4,-0.0047689527,0.003575325,0.0,0.0,0.0
185.22696,319.61877,71279840,0.95,0.12765957,-296.76978,-663.72144,-1.5066192E-4,-0.0047689527,0.003575325,0.0,0.0,0.0
181.00565,311.0066,71279857,0.96250004,0.12765957,-447.778,-993.7494,-1.5066192E-4,-0.0047689527,0.003575325,0.0,0.0,0.0
177.86952,303.625,71279873,0.975,0.12765957,-356.85297,-784.56256,-1.5066192E-4,-0.0047689527,0.003575325,0.0,0.0,0.0
174.6787,297.9829,71279890,0.975,0.12765957,-238.58316,-487.85318,-1.5066192E-4,-0.0047689527,0.003575325,0.0,0.0,0.0
171.60156,290.54626,71279907,0.96250004,0.12765957,-65.03902,-114.63012,-1.5066192E-4,-0.0047689527,0.003575325,0.0,0.0,0.0
169.13011,284.3058,71279923,0.9875,0.12765957,-75.006584,-176.71521,-1.5066192E-4,-0.0047689527,0.003575325,0.0,0.0,0.0
167.01181,278.65747,71279940,0.975,0.10638297,-127.95424,-350.32294,-1.5066192E-4,-0.0047689527,0.003575325,0.0,0.0,0.0
166.20634,275.81458,71279957,0.95,0.10638297,-77.34774,-269.25974,-1.5066192E-4,-0.0047689527,0.003575325,0.0,0.0,0.0
165.42401,273.96387,71279974,0.96250004,0.10638297,-14.45602,-88.20613,-1.5066192E-4,-0.0047689527,0.003575325,0.0,0.0,0.0
165.42401,272.13037,71279990,0.925,0.10638297,20.242918,-11.945856,-1.5066192E-4,-0.0047689527,0.003575325,0.0,0.0,0.0
167.43732,271.7583,71280007,0.925,0.09574468,84.983284,23.71386,-1.5066192E-4,-0.0047689527,0.003575325,0.0,0.0,0.0
173.4372,273.98657,71280024,0.925,0.09574468,258.3621,97.551216,-1.5066192E-4,-0.0047689527,0.003575325,0.0,0.0,0.0
183.54309,278.44226,71280040,0.9125,0.12765957,557.86176,250.28229,-1.5066192E-4,-0.0047689527,0.003575325,0.0,0.0,0.0
195.4437,284.80725,71280057,0.90000004,0.12765957,832.665,429.17386,-1.5066192E-4,-0.0047689527,0.003575325,0.0,0.0,0.0
211.42664,292.2013,71280074,0.875,0.12765957,1056.6697,555.90686,-1.5066192E-4,-0.0047689527,0.003575325,0.0,0.0,0.0
232.78806,298.6997,71280091,0.8625,0.12765957,1302.546,546.6846,-1.5066192E-4,-0.0047689527,0.003575325,0.0,0.0,0.0
250.22955,303.1521,71280107,0.8625,0.12765957,1377.3563,427.9153,-1.5066192E-4,-0.0047689527,0.003575325,0.0,0.0,0.0
268.94016,305.7732,71280124,0.875,0.12765957,1313.1896,240.12932,-1.5066192E-4,-0.0047689527,0.003575325,0.0,0.0,0.0
287.8309,304.5044,71280141,0.85,0.12765957,1218.5007,-12.955414,-1.5066192E-4,-0.0047689527,0.003575325,0.0,0.0,0.0
303.18863,300.4944,71280157,0.85,0.12765957,1022.9074,-258.84552,-1.5066192E-4,-0.0047689527,0.003575325,0.0,0.0,0.0
313.4376,296.7107,71280174,0.8625,0.12765957,790.34515,-420.388,-1.5066192E-4,-0.0047689527,0.003575325,0.0,0.0,0.0
320.7636,292.9828,71280191,0.90000004,0.12765957,456.02435,-402.44974,-1.5066192E-4,-0.0047689527,0.003575325,0.0,0.0,0.0
324.82947,289.2827,71280208,0.90000004,0.12765957,101.90028,-305.97275,-1.5066192E-4,-0.0047689527,0.003575325,0.0,0.0,0.0
326.7188,285.62866,71280224,0.9125,0.12765957,-71.09381,-227.19716,-1.5066192E-4,-0.0047689527,0.003575325,0.0,0.0,0.0
327.37128,282.7765,71280241,0.9125,0.10638297,-152.13377,-181.88382,-1.5066192E-4,-0.0047689527,0.003575325,0.0,0.0,0.0
327.37128,280.7744,71280258,0.9375,0.10638297,-146.83429,-143.16487,-1.2052804E-4,-0.0038151592,0.018860817,0.0,0.0,0.0
327.37128,278.89612,71280274,0.925,0.10638297,-117.461105,-90.663734,-1.2052804E-4,-0.0038151592,0.018860817,0.0,0.0,0.0
326.8436,278.86633,71280291,0.875,0.10638297,-77.450096,-21.416878,-1.2052804E-4,-0.0038151592,0.018860817,0.0,0.0,0.0
325.80124,278.86633,71280308,0.8625,0.10638297,-73.46909,34.407124,-1.2052804E-4,-0.0038151592,0.018860817,0.0,0.0,0.0
325.37195,283.0703,71280324,0.8625,0.12765957,-68.98878,160.2158,-1.2052804E-4,-0.0038151592,0.018860817,0.0,0.0,0.0
323.70416,293.10022,71280341,0.8625,0.12765957,-88.17105,451.93918,-1.2052804E-4,-0.0038151592,0.018860817,0.0,0.0,0.0
323.64688,310.01868,71280358,0.875,0.10638297,-55.392464,907.41626,-1.2052804E-4,-0.0038151592,0.018860817,0.0,0.0,0.0
324.10034,329.52527,71280375,0.8625,0.12765957,3.4231057,1406.5017,-1.2052804E-4,-0.0038151592,0.018860817,0.0,0.0,0.0
325.63504,349.33936,71280391,0.8625,0.12765957,73.988464,1557.9324,-1.2052804E-4,-0.0038151592,0.018860817,0.0,0.0,0.0
329.10715,373.62964,71280408,0.875,0.10638297,181.41151,1578.9963,-1.2052804E-4,-0.0038151592,0.018860817,0.0,0.0,0.0
333.60922,394.95447,71280425,0.8625,0.10638297,290.8809,1514.2767,-1.2052804E-4,-0.0038151592,0.018860817,0.0,0.0,0.0
339.4397,416.292,71280441,0.8625,0.09574468,396.1197,1342.9353,-1.2052804E-4,-0.0038151592,0.018860817,0.0,0.0,0.0
347.14993,438.94055,71280458,0.8625,0.09574468,484.75137,1348.5782,-1.2052804E-4,-0.0038151592,0.018860817,0.0,0.0,0.0
355.58426,459.46277,71280475,0.8625,0.12765957,562.96106,1262.653,-1.2052804E-4,-0.0038151592,0.018860817,0.0,0.0,0.0
364.47684,482.6588,71280492,0.8625,0.11702127,608.9236,1305.5027,-1.2052804E-4,-0.0038151592,0.018860817,0.0,0.0,0.0
370.70697,501.036,71280508,0.85,0.12765957,544.05194,1276.1893,-1.2052804E-4,-0.0038151592,0.018860817,0.0,0.0,0.0
378.0481,520.5222,71280525,0.85,0.10638297,447.15048,1147.3234,-1.2052804E-4,-0.0038151592,0.018860817,0.0,0.0,0.0
384.26654,541.28625,71280542,0.85,0.10638297,365.12894,1143.716,-1.2052804E-4,-0.0038151592,0.018860817,0.0,0.0,0.0
387.3766,553.813,71280558,0.85,0.10638297,254.76616,958.3968,-1.2052804E-4,-0.0038151592,0.018860817,0.0,0.0,0.0
389.3511,565.8988,71280575,0.85,0.10638297,134.03023,741.6335,-1.2052804E-4,-0.0038151592,0.018860817,0.0,0.0,0.0
388.85654,575.60767,71280592,0.83750004,0.09574468,-51.331726,499.14084,-1.2052804E-4,-0.0038151592,0.018860817,0.0,0.0,0.0
385.70053,582.49255,71280609,0.875,0.10638297,-229.02681,293.0127,-1.2052804E-4,-0.0038151592,0.018860817,0.0,0.0,0.0
381.74316,586.5447,71280625,0.875,0.11702127,-347.2887,171.14204,-1.2052804E-4,-0.0038151592,0.018860817,0.0,0.0,0.0
374.44012,591.13794,71280642,0.90000004,0.11702127,-472.03525,94.11552,-1.2052804E-4,-0.0038151592,0.018860817,0.0,0.0,0.0
364.07877,594.0304,71280659,0.9125,0.10638297,-615.94965,68.36619,-1.2052804E-4,-0.0038151592,0.018860817,0.0,0.0,0.0
349.63403,595.96423,71280675,0.925,0.10638297,-864.9515,54.925625,-1.2052804E-4,-0.0038151592,0.018860817,0.0,0.0,0.0
339.47665,596.062,71280692,0.925,0.10638297,-958.0185,11.035414,-1.2052804E-4,-0.0038151592,0.018860817,0.0,0.0,0.0
332.18237,596.062,71280709,0.9125,0.11702127,-731.63776,-61.456875,-1.2052804E-4,-0.0038151592,0.018860817,0.0,0.0,0.0
326.99472,596.062,71280726,0.85,0.09574468,-397.90552,-86.36387,-1.2052804E-4,-0.0038151592,0.018860817,0.0,0.0,0.0
321.13947,598.0563,71280742,0.675,0.11702127,-172.9416,-2.204245,-1.2052804E-4,-0.0038151592,0.018860817,0.0,0.0,0.0
319.87372,598.72754,71280750,0.4,0.12765957,-96.61912,38.790676,-1.2052804E-4,-0.0038151592,0.018860817,0.0,0.0,0.0
319.87372,598.72754,71280756,0.4,0.12765957,-96.61912,38.790676,-1.2052804E-4,-0.0038151592,0.018860817,0.0,0.0,0.0
325.87177,473.4486,71280997,0.9125,0.10638297,0.0,0.0,0.015903577,-0.019052133,-9.1171265E-4,0.0,0.0,0.0
325.87177,473.4486,71281026,0.9125,0.12765957,0.032862984,0.0470629,0.015903577,-0.019052133,-9.1171265E-4,0.0,0.0,0.0
325.87177,473.4486,71281043,0.90000004,0.12765957,0.008909338,0.012369346,0.015903577,-0.019052133,-9.1171265E-4,0.0,0.0,0.0
351.52863,464.28638,71281060,0.8875,0.12765957,1236.1084,-443.9094,0.015903577,-0.019052133,-9.1171265E-4,0.0,0.0,0.0
369.7529,459.66028,71281076,0.8625,0.12765957,1634.3921,-518.3517,0.015903577,-0.019052133,-9.1171265E-4,0.0,0.0,0.0
394.5468,454.91406,71281093,0.8,0.10638297,1882.0817,-496.6354,0.015903577,-0.019052133,-9.1171265E-4,0.0,0.0,0.0
408.34494,453.01306,71281102,0.38750002,0.12765957,1974.6554,-414.48718,0.015903577,-0.019052133,-9.1171265E-4,0.0,0.0,0.0
408.34494,453.01306,71281109,0.38750002,0.12765957,1974.6554,-414.48718,0.015903577,-0.019052133,-9.1171265E-4,0.0,0.0,0.0
467.32574,496.54968,71281686,0.77500004,0.10638297,0.0,0.0,-0.0032771379,7.582903E-4,0.015271187,0.0,0.0,0.0
467.32574,496.54968,71281711,0.8,0.10638297,-0.08755654,-0.09434322,-0.0032771379,7.582903E-4,0.015271187,0.0,0.0,0.0
467.32574,496.54968,71281728,0.8125,0.12765957,-0.0041167983,-0.005452469,-0.0032771379,7.582903E-4,0.015271187,0.0,0.0,0.0
467.32574,496.54968,71281745,0.825,0.12765957,-0.030955032,-0.032147154,-0.0032771379,7.582903E-4,0.015271187,0.0,0.0,0.0
474.3811,520.6929,71281762,0.8125,0.11702127,272.92502,947.2425,-0.0032771379,7.582903E-4,0.015271187,0.0,0.0,0.0
478.5144,531.71387,71281778,0.8125,0.09574468,392.95538,1252.0317,-0.0032771379,7.582903E-4,0.015271187,0.0,0.0,0.0
482.01013,539.53406,71281795,0.8,0.08510638,417.68982,1187.4786,-0.0032771379,7.582903E-4,0.015271187,0.0,0.0,0.0
486.63403,544.80835,71281812,0.8125,0.10638297,297.23453,511.9615,-0.0032771379,7.582903E-4,0.015271187,0.0,0.0,0.0
493.37665,549.5989,71281828,0.825,0.09574468,271.50272,-79.61176,-0.0032771379,7.582903E-4,0.015271187,0.0,0.0,0.0
501.61304,553.3628,71281845,0.8,0.09574468,421.06927,-74.60291,0.013378289,0.0086066425,-0.003783226,0.0,0.0,0.0
508.36932,554.30237,71281862,0.8125,0.10638297,538.3478,37.955444,0.013378289,0.0086066425,-0.003783226,0.0,0.0,0.0
513.02673,552.42944,71281879,0.825,0.10638297,440.84384,-90.42771,0.013378289,0.0086066425,-0.003783226,0.0,0.0,0.0
516.0923,548.6367,71281895,0.85,0.08510638,236.41328,-284.97104,0.013378289,0.0086066425,-0.003783226,0.0,0.0,0.0
520.5979,538.4496,71281912,0.83750004,0.10638297,128.49161,-542.45374,0.013378289,0.0086066425,-0.003783226,0.0,0.0,0.0
522.967,525.34265,71281929,0.85,0.12765957,110.15875,-860.9896,0.013378289,0.0086066425,-0.003783226,0.0,0.0,0.0
523.8073,516.0127,71281945,0.85,0.12765957,81.350945,-939.569,0.013378289,0.0086066425,-0.003783226,0.0,0.0,0.0
523.5619,506.80713,71281962,0.83750004,0.10638297,-10.576875,-778.2519,0.013378289,0.0086066425,-0.003783226,0.0,0.0,0.0
521.7276,498.04077,71281979,0.8625,0.10638297,-149.9606,-546.762,0.013378289,0.0086066425,-0.003783226,0.0,0.0,0.0
520.1401,490.61987,71281996,0.8625,0.10638297,-208.87108,-387.3517,0.013378289,0.0086066425,-0.003783226,0.0,0.0,0.0
518.06177,484.11987,71282012,0.8625,0.10638297,-187.49327,-373.7629,0.013378289,0.0086066425,-0.003783226,0.0,0.0,0.0
516.40216,479.10815,71282029,0.85,0.10638297,-161.89124,-299.70245,0.013378289,0.0086066425,-0.003783226,0.0,0.0,0.0
515.36127,476.20508,71282046,0.85,0.10638297,-102.638954,-182.87993,0.013378289,0.0086066425,-0.003783226,0.0,0.0,0.0
514.3169,474.3485,71282062,0.85,0.10638297,-57.192528,-66.9043,0.013378289,0.0086066425,-0.003783226,0.0,0.0,0.0
513.7745,473.4486,71282079,0.85,0.09574468,-24.635208,17.264412,0.013378289,0.0086066425,-0.003783226,0.0,0.0,0.0
513.8106,473.4486,71282091,0.83750004,0.09574468,-1.4701637,63.136642,0.013378289,0.0086066425,-0.003783226,0.0,0.0,0.0
514.9252,476.93103,71282113,0.825,0.10638297,50.016727,162.4858,0.013378289,0.0086066425,-0.003783226,0.0,0.0,0.0
517.2448,486.5464,71282129,0.825,0.10638297,119.368866,422.08316,0.013378289,0.0086066425,-0.003783226,0.0,0.0,0.0
520.554,497.64856,71282146,0.8125,0.12765957,208.6591,743.11115,0.013378289,0.0086066425,-0.003783226,0.0,0.0,0.0
524.4957,508.8578,71282163,0.825,0.12765957,285.27466,932.7763,0.013378289,0.0086066425,-0.003783226,0.0,0.0,0.0
529.1842,522.6819,71282179,0.825,0.11702127,327.4951,960.7244,0.013378289,0.0086066425,-0.003783226,0.0,0.0,0.0
534.3882,535.46814,71282196,0.8125,0.09574468,350.7528,896.568,0.013378289,0.0086066425,-0.003783226,0.0,0.0,0.0
539.7335,544.65955,71282213,0.8,0.10638297,361.45813,761.07275,0.013378289,0.0086066425,-0.003783226,0.0,0.0,0.0
547.3266,551.75684,71282230,0.8,0.10638297,404.37772,515.33936,0.013378289,0.0086066425,-0.003783226,0.0,0.0,0.0
557.65106,556.73865,71282246,0.8125,0.10638297,549.8884,255.78107,0.013378289,0.0086066425,-0.003783226,0.0,0.0,0.0
568.99963,557.85645,71282263,0.825,0.12765957,719.5192,23.592958,0.013378289,0.0086066425,-0.003783226,0.0,0.0,0.0
578.4576,555.1245,71282280,0.825,0.11702127,759.6391,-187.84229,0.013378289,0.0086066425,-0.003783226,0.0,0.0,0.0
587.33673,548.53687,71282296,0.825,0.08510638,662.85986,-445.09177,0.013378289,0.0086066425,-0.003783226,0.0,0.0,0.0
596.7141,538.0956,71282313,0.83750004,0.10638297,545.65735,-730.46936,0.013378289,0.0086066425,-0.003783226,0.0,0.0,0.0
605.9034,527.0394,71282330,0.825,0.10638297,511.8935,-888.07166,0.013378289,0.0086066425,-0.003783226,0.0,0.0,0.0
612.83813,514.1782,71282347,0.83750004,0.12765957,456.2365,-922.23334,0.013378289,0.0086066425,-0.003783226,0.0,0.0,0.0
619.64386,495.36023,71282363,0.85,0.09574468,423.3546,-1098.8655,0.013378289,0.0086066425,-0.003783226,0.0,0.0,0.0
622.0236,477.47473,71282380,0.85,0.12765957,226.42679,-1243.467,-0.0052973703,-0.017114684,-0.03502655,0.0,0.0,0.0
622.57355,461.56897,71282397,0.85,0.10638297,5.3081737,-1227.6765,-0.0052973703,-0.017114684,-0.03502655,0.0,0.0,0.0
621.5974,443.11768,71282413,0.83750004,0.10638297,-154.41896,-1126.4182,-0.0052973703,-0.017114684,-0.03502655,0.0,0.0,0.0
618.6366,423.1599,71282430,0.83750004,0.10638297,-295.95154,-1092.9866,-0.0052973703,-0.017114684,-0.03502655,0.0,0.0,0.0
615.6133,406.37634,71282447,0.875,0.12765957,-299.44608,-1140.2423,-0.0052973703,-0.017114684,-0.03502655,0.0,0.0,0.0
610.0048,386.28833,71282464,0.8875,0.10638297,-350.2925,-1165.4053,-0.0052973703,-0.017114684,-0.03502655,0.0,0.0,0.0
604.7673,366.77466,71282480,0.875,0.12765957,-402.63995,-1180.4287,-0.0052973703,-0.017114684,-0.03502655,0.0,0.0,0.0
600.1067,351.09863,71282497,0.875,0.12765957,-381.2864,-1078.3536,-0.0052973703,-0.017114684,-0.03502655,0.0,0.0,0.0
595.3622,334.2312,71282514,0.90000004,0.11702127,-334.32422,-1001.953,-0.0052973703,-0.017114684,-0.03502655,0.0,0.0,0.0
591.2862,318.85193,71282530,0.875,0.12765957,-267.14008,-907.093,-0.0052973703,-0.017114684,-0.03502655,0.0,0.0,0.0
587.1277,306.43054,71282547,0.90000004,0.12765957,-225.81685,-769.5786,-0.0052973703,-0.017114684,-0.03502655,0.0,0.0,0.0
583.2962,299.31653,71282564,0.8875,0.12765957,-219.49301,-552.6072,-0.0052973703,-0.017114684,-0.03502655,0.0,0.0,0.0
578.33887,291.8153,71282580,0.8875,0.12765957,-252.59898,-302.65347,-0.0052973703,-0.017114684,-0.03502655,0.0,0.0,0.0
572.86896,285.3463,71282597,0.8875,0.10638297,-302.93442,-182.4183,-0.0052973703,-0.017114684,-0.03502655,0.0,0.0,0.0
568.01447,279.828,71282614,0.8875,0.10638297,-338.63318,-213.68689,-0.0052973703,-0.017114684,-0.03502655,0.0,0.0,0.0
562.98004,275.79956,71282631,0.8875,0.10638297,-330.11896,-234.18742,-0.0052973703,-0.017114684,-0.03502655,0.0,0.0,0.0
559.08765,272.8197,71282647,0.8625,0.10638297,-280.12625,-162.35233,-0.0052973703,-0.017114684,-0.03502655,0.0,0.0,0.0
555.9766,271.7583,71282664,0.875,0.10638297,-202.34537,-62.64363,-0.0052973703,-0.017114684,-0.03502655,0.0,0.0,0.0
554.3104,271.7583,71282681,0.83750004,0.10638297,-115.74584,50.948944,-0.0052973703,-0.017114684,-0.03502655,0.0,0.0,0.0
551.21814,278.1681,71282697,0.85,0.12765957,-89.30883,273.2715,-0.0052973703,-0.017114684,-0.03502655,0.0,0.0,0.0
550.2987,288.45703,71282714,0.8625,0.12765957,-63.68609,592.1313,-0.0052973703,-0.017114684,-0.03502655,0.0,0.0,0.0
550.2987,301.78674,71282731,0.85,0.10638297,-15.493365,905.7425,-0.0052973703,-0.017114684,-0.03502655,0.0,0.0,0.0
552.72375,322.26013,71282748,0.8625,0.10638297,102.158646,1273.2214,-0.0052973703,-0.017114684,-0.03502655,0.0,0.0,0.0
555.35205,341.12378,71282764,0.875,0.12765957,216.50343,1456.8448,-0.0052973703,-0.017114684,-0.03502655,0.0,0.0,0.0
559.9338,364.979,71282781,0.8625,0.10638297,308.5702,1544.29,-0.0052973703,-0.017114684,-0.03502655,0.0,0.0,0.0
565.128,387.56274,71282798,0.8625,0.12765957,365.71655,1582.4225,-0.0052973703,-0.017114684,-0.03502655,0.0,0.0,0.0
571.4603,406.85913,71282814,0.8625,0.12765957,417.18048,1374.8735,-0.0052973703,-0.017114684,-0.03502655,0.0,0.0,0.0
577.8829,429.3545,71282831,0.875,0.10638297,459.05075,1298.7802,-0.0052973703,-0.017114684,-0.03502655,0.0,0.0,0.0
583.7912,446.80554,71282848,0.8625,0.12765957,442.29208,1148.6824,-0.0052973703,-0.017114684,-0.03502655,0.0,0.0,0.0
588.9054,466.6289,71282865,0.8625,0.11702127,362.2186,1054.7773,-0.0052973703,-0.017114684,-0.03502655,0.0,0.0,0.0
593.69543,486.30078,71282881,0.8625,0.11702127,301.38898,1131.9647,-0.0052973703,-0.017114684,-0.03502655,0.0,0.0,0.0
597.3175,501.13354,71282898,0.8625,0.12765957,216.55205,1003.24713,-0.0052973703,-0.017114684,-0.03502655,0.0,0.0,0.0
600.9453,514.2041,71282915,0.8625,0.10638297,179.40848,818.01825,0.011762103,0.0023082495,0.0039787292,0.0,0.0,0.0
604.06366,528.9856,71282931,0.8625,0.10638297,153.74312,720.56555,0.011762103,0.0023082495,0.0039787292,0.0,0.0,0.0
606.5818,542.84937,71282948,0.85,0.10638297,130.40631,681.67334,0.011762103,0.0023082495,0.0039787292,0.0,0.0,0.0
608.68115,552.1752,71282965,0.83750004,0.12765957,113.23683,669.1255,0.011762103,0.0023082495,0.0039787292,0.0,0.0,0.0
609.9882,559.3417,71282982,0.85,0.10638297,75.54499,509.01358,0.011762103,0.0023082495,0.0039787292,0.0,0.0,0.0
611.02924,565.41016,71282998,0.83750004,0.10638297,43.24043,249.0357,0.011762103,0.0023082495,0.0039787292,0.0,0.0,0.0
612.07135,570.4474,71283015,0.85,0.09574468,29.98362,161.44211,0.011762103,0.0023082495,0.0039787292,0.0,0.0,0.0
612.6097,574.1382,71283032,0.825,0.09574468,21.9881,142.53944,0.011762103,0.0023082495,0.0039787292,0.0,0.0,0.0
612.7784,577.82715,71283048,0.83750004,0.09574468,6.672825,142.10828,0.011762103,0.0023082495,0.0039787292,0.0,0.0,0.0
613.2782,581.50415,71283065,0.83750004,0.09574468,-0.7682815,136.48407,0.011762103,0.0023082495,0.0039787292,0.0,0.0,0.0
614.2272,585.21985,71283082,0.83750004,0.08510638,17.598248,178.02635,0.011762103,0.0023082495,0.0039787292,0.0,0.0,0.0
614.7777,590.7081,71283099,0.825,0.08510638,43.772514,255.27203,0.011762103,0.0023082495,0.0039787292,0.0,0.0,0.0
615.8134,595.3657,71283115,0.8125,0.09574468,60.365192,310.5455,0.011762103,0.0023082495,0.0039787292,0.0,0.0,0.0
616.8549,600.91956,71283132,0.825,0.09574468,68.40169,348.04083,0.011762103,0.0023082495,0.0039787292,0.0,0.0,0.0
617.8917,604.4674,71283149,0.825,0.10638297,67.31977,308.31183,0.011762103,0.0023082495,0.0039787292,0.0,0.0,0.0
618.7764,608.1461,71283165,0.83750004,0.10638297,66.234436,235.73103,0.011762103,0.0023082495,0.0039787292,0.0,0.0,0.0
618.7764,611.86316,71283182,0.825,0.10638297,37.545757,188.23636,0.011762103,0.0023082495,0.0039787292,0.0,0.0,0.0
619.00916,614.65955,71283199,0.83750004,0.10638297,-6.5919595,152.90457,0.011762103,0.0023082495,0.0039787292,0.0,0.0,0.0
619.5505,617.4724,71283216,0.83750004,0.10638297,-5.84084,151.67229,0.011762103,0.0023082495,0.0039787292,0.0,0.0,0.0
620.59314,619.72705,71283232,0.85,0.12765957,31.376263,130.98212,0.011762103,0.0023082495,0.0039787292,0.0,0.0,0.0
621.27563,621.54065,71283249,0.85,0.12765957,68.34074,97.05995,0.011762103,0.0023082495,0.0039787292,0.0,0.0,0.0
621.27563,621.8286,71283266,0.83750004,0.12765957,45.40629,45.486843,0.011762103,0.0023082495,0.0039787292,0.0,0.0,0.0
621.27563,621.8286,71283282,0.85,0.12765957,3.1067913,-19.00197,0.011762103,0.0023082495,0.0039787292,0.0,0.0,0.0
621.27563,621.8286,71283295,0.85,0.12765957,-18.913488,-54.45299,0.011762103,0.0023082495,0.0039787292,0.0,0.0,0.0
621.27563,621.8286,71283315,0.8625,0.12765957,-26.749441,-58.019646,0.011762103,0.0023082495,0.0039787292,0.0,0.0,0.0
621.77545,621.8286,71283333,0.8625,0.12765957,11.284791,-22.868391,0.011762103,0.0023082495,0.0039787292,0.0,0.0,0.0
622.3263,621.8286,71283349,0.8625,0.12765957,31.285387,0.04469503,0.011762103,0.0023082495,0.0039787292,0.0,0.0,0.0
622.77515,621.2667,71283366,0.8625,0.12765957,42.451523,-11.717122,0.011762103,0.0023082495,0.0039787292,0.0,0.0,0.0
623.27496,619.7405,71283383,0.8625,0.12765957,38.272614,-59.94163,0.011762103,0.0023082495,0.0039787292,0.0,0.0,0.0
625.1542,612.0913,71283399,0.85,0.10638297,60.416634,-259.65073,0.011762103,0.0023082495,0.0039787292,0.0,0.0,0.0
629.31445,593.60144,71283416,0.85,0.10638297,191.21536,-840.94507,0.011762103,0.0023082495,0.0039787292,0.0,0.0,0.0
631.87555,575.78015,71283433,0.8625,0.12765957,277.04245,-1440.911,0.011762103,0.0023082495,0.0039787292,0.0,0.0,0.0
633.6097,561.9353,71283449,0.8625,0.11702127,229.30527,-1423.2279,-0.022590317,0.009846598,0.0031833649,0.0,0.0,0.0
635.1489,547.8257,71283466,0.8875,0.11702127,119.75087,-1130.3865,-0.022590317,0.009846598,0.0031833649,0.0,0.0,0.0
636.18134,536.59753,71283483,0.8625,0.11702127,20.93551,-696.3882,-0.022590317,0.009846598,0.0031833649,0.0,0.0,0.0
637.2321,527.0989,71283500,0.875,0.12765957,15.63998,-502.13144,-0.022590317,0.009846598,0.0031833649,0.0,0.0,0.0
639.27454,520.52673,71283516,0.875,0.12765957,70.672676,-400.34665,-0.022590317,0.009846598,0.0031833649,0.0,0.0,0.0
640.3093,516.84326,71283533,0.8625,0.12765957,85.126434,-191.1899,-0.022590317,0.009846598,0.0031833649,0.0,0.0,0.0
643.615,512.0807,71283550,0.8625,0.12765957,137.21689,-93.37368,-0.022590317,0.009846598,0.0031833649,0.0,0.0,0.0
648.85944,508.56738,71283566,0.8625,0.12765957,254.50586,-86.84268,-0.022590317,0.009846598,0.0031833649,0.0,0.0,0.0
654.21954,506.04053,71283583,0.8625,0.12765957,363.41495,-109.34462,-0.022590317,0.009846598,0.0031833649,0.0,0.0,0.0
659.77405,505.4347,71283600,0.875,0.12765957,428.85074,-75.09361,-0.022590317,0.009846598,0.0031833649,0.0,0.0,0.0
664.97675,507.1941,71283617,0.8625,0.10638297,383.5209,85.77395,-0.022590317,0.009846598,0.0031833649,0.0,0.0,0.0
671.47797,511.4043,71283633,0.8625,0.12765957,361.17755,276.98703,-0.022590317,0.009846598,0.0031833649,0.0,0.0,0.0
677.3721,516.9298,71283650,0.85,0.10638297,373.5139,428.1364,-0.022590317,0.009846598,0.0031833649,0.0,0.0,0.0
681.7007,523.9951,71283667,0.85,0.10638297,336.7835,518.0034,-0.022590317,0.009846598,0.0031833649,0.0,0.0,0.0
688.7314,540.3783,71283683,0.825,0.11702127,341.99524,783.90906,-0.022590317,0.009846598,0.0031833649,0.0,0.0,0.0
693.0144,550.3257,71283700,0.825,0.12765957,307.10474,949.7631,-0.022590317,0.009846598,0.0031833649,0.0,0.0,0.0
696.2095,556.0051,71283717,0.825,0.12765957,247.53609,783.22864,-0.022590317,0.009846598,0.0031833649,0.0,0.0,0.0
702.44257,564.3213,71283734,0.8125,0.10638297,252.84415,472.98746,-0.022590317,0.009846598,0.0031833649,0.0,0.0,0.0
710.78754,571.6647,71283750,0.8,0.09574468,374.38055,296.82214,-0.022590317,0.009846598,0.0031833649,0.0,0.0,0.0
720.782,576.9253,71283767,0.7875,0.09574468,571.488,267.77115,-0.022590317,0.009846598,0.0031833649,0.0,0.0,0.0
730.7393,577.40344,71283784,0.7875,0.10638297,718.879,193.07574,-0.022590317,0.009846598,0.0031833649,0.0,0.0,0.0
740.59265,572.5303,71283800,0.7625,0.12765957,724.0228,-150.04282,-0.022590317,0.009846598,0.0031833649,0.0,0.0,0.0
751.2166,563.5033,71283817,0.7625,0.10638297,660.424,-632.96716,-0.022590317,0.009846598,0.0031833649,0.0,0.0,0.0
761.1681,549.1422,71283834,0.77500004,0.08510638,630.1958,-984.31854,-0.022590317,0.009846598,0.0031833649,0.0,0.0,0.0
771.63275,532.7318,71283851,0.7875,0.10638297,627.45087,-1219.0172,-0.022590317,0.009846598,0.0031833649,0.0,0.0,0.0
781.1074,517.761,71283867,0.8,0.12765957,593.8892,-1239.847,-0.022590317,0.009846598,0.0031833649,0.0,0.0,0.0
787.7721,506.23303,71283884,0.8125,0.10638297,478.2382,-994.8144,-0.022590317,0.009846598,0.0031833649,0.0,0.0,0.0
793.43677,495.40088,71283901,0.8125,0.09574468,352.4322,-724.47235,-0.022590317,0.009846598,0.0031833649,0.0,0.0,0.0
797.4798,488.08838,71283917,0.825,0.11702127,192.68425,-431.70554,-0.022590317,0.009846598,0.0031833649,0.0,0.0,0.0
801.2525,481.38196,71283934,0.8125,0.11702127,128.91772,-297.61237,-0.022590317,0.009846598,0.0031833649,0.0,0.0,0.0
803.3193,476.81958,71283951,0.8125,0.11702127,86.03079,-208.95662,-0.022590317,0.009846598,0.0031833649,0.0,0.0,0.0
804.3052,475.06726,71283968,0.8125,0.11702127,35.349148,-82.57508,-0.022590317,0.009846598,0.0031833649,0.0,0.0,0.0
804.7159,473.21973,71283984,0.8125,0.11702127,-17.495127,1.5938708,0.013927747,-1.2272596E-4,0.034546852,0.0,0.0,0.0
804.7159,471.3772,71284001,0.8125,0.11702127,-62.705517,24.646494,0.013927747,-1.2272596E-4,0.034546852,0.0,0.0,0.0
804.3622,470.78308,71284018,0.8125,0.11702127,-74.025215,17.79335,0.013927747,-1.2272596E-4,0.034546852,0.0,0.0,0.0
802.50995,471.20166,71284034,0.8125,0.10638297,-92.77795,5.8132925,0.013927747,-1.2272596E-4,0.034546852,0.0,0.0,0.0
797.0039,474.92432,71284051,0.825,0.10638297,-230.68738,148.54135,0.013927747,-1.2272596E-4,0.034546852,0.0,0.0,0.0
785.6112,483.765,71284068,0.8125,0.09574468,-557.42395,432.78546,0.013927747,-1.2272596E-4,0.034546852,0.0,0.0,0.0
774.101,493.5509,71284085,0.825,0.12765957,-869.8582,715.54486,0.013927747,-1.2272596E-4,0.034546852,0.0,0.0,0.0
765.40234,502.08508,71284101,0.825,0.12765957,-893.2107,795.2695,0.013927747,-1.2272596E-4,0.034546852,0.0,0.0,0.0
756.85254,516.6698,71284118,0.8125,0.11702127,-674.40283,800.9931,0.013927747,-1.2272596E-4,0.034546852,0.0,0.0,0.0
750.27277,532.853,71284135,0.83750004,0.09574468,-437.08893,947.2152,0.013927747,-1.2272596E-4,0.034546852,0.0,0.0,0.0
747.67145,545.7534,71284151,0.825,0.12765957,-204.35349,1031.7555,0.013927747,-1.2272596E-4,0.034546852,0.0,0.0,0.0
747.73444,554.8374,71284168,0.825,0.12765957,-3.5146425,878.1842,0.013927747,-1.2272596E-4,0.034546852,0.0,0.0,0.0
749.4545,560.22156,71284185,0.8125,0.12765957,195.84367,471.6173,0.013927747,-1.2272596E-4,0.034546852,0.0,0.0,0.0
751.6684,564.59155,71284201,0.825,0.12765957,317.12354,102.28419,0.013927747,-1.2272596E-4,0.034546852,0.0,0.0,0.0
755.53015,568.3391,71284218,0.825,0.12765957,327.66455,5.8886566,0.013927747,-1.2272596E-4,0.034546852,0.0,0.0,0.0
762.36487,570.7106,71284235,0.85,0.12765957,389.13367,56.431873,0.013927747,-1.2272596E-4,0.034546852,0.0,0.0,0.0
769.6548,570.6946,71284252,0.825,0.10638297,509.0637,19.002638,0.013927747,-1.2272596E-4,0.034546852,0.0,0.0,0.0
777.7186,566.85645,71284268,0.83750004,0.10638297,583.12665,-173.87604,0.013927747,-1.2272596E-4,0.034546852,0.0,0.0,0.0
784.49585,559.1476,71284285,0.8125,0.10638297,561.1524,-447.37714,0.013927747,-1.2272596E-4,0.034546852,0.0,0.0,0.0
791.9643,542.2407,71284302,0.825,0.10638297,450.22525,-844.785,0.013927747,-1.2272596E-4,0.034546852,0.0,0.0,0.0
796.9157,523.5266,71284318,0.85,0.12765957,370.71448,-1323.4658,0.013927747,-1.2272596E-4,0.034546852,0.0,0.0,0.0
798.6946,508.4723,71284335,0.825,0.12765957,213.54437,-1444.8682,0.013927747,-1.2272596E-4,0.034546852,0.0,0.0,0.0
799.7346,493.64136,71284352,0.8625,0.11702127,20.147581,-1202.3788,0.013927747,-1.2272596E-4,0.034546852,0.0,0.0,0.0
799.1614,482.7218,71284369,0.85,0.10638297,-111.84205,-833.496,0.013927747,-1.2272596E-4,0.034546852,0.0,0.0,0.0
797.66187,475.81396,71284385,0.8625,0.12765957,-202.10255,-433.8702,0.013927747,-1.2272596E-4,0.034546852,0.0,0.0,0.0
796.58856,472.3291,71284402,0.8625,0.12765957,-166.73798,-178.67378,0.013927747,-1.2272596E-4,0.034546852,0.0,0.0,0.0
795.5431,470.4707,71284419,0.875,0.12765957,-132.4691,52.70916,0.013927747,-1.2272596E-4,0.034546852,0.0,0.0,0.0
795.7188,470.78308,71284435,0.875,0.10638297,-63.270203,191.11604,0.013927747,-1.2272596E-4,0.034546852,0.0,0.0,0.0
795.976,471.6975,71284452,0.85,0.10638297,24.498022,181.08029,0.013927747,-1.2272596E-4,0.034546852,0.0,0.0,0.0
797.6114,477.3418,71284469,0.8625,0.11702127,79.639336,291.13138,0.013927747,-1.2272596E-4,0.034546852,0.0,0.0,0.0
801.5672,485.6217,71284486,0.8625,0.11702127,201.79079,526.741,0.013927747,-1.2272596E-4,0.034546852,0.0,0.0,0.0
805.46423,493.43738,71284502,0.85,0.12765957,305.8902,680.9265,0.013927747,-1.2272596E-4,0.034546852,0.0,0.0,0.0
809.7923,498.4192,71284519,0.8625,0.12765957,338.94968,553.6124,-0.004857801,0.007901818,-0.0203619,0.0,0.0,0.0
818.8764,506.91406,71284536,0.83750004,0.12765957,447.93674,468.27475,-0.004857801,0.007901818,-0.0203619,0.0,0.0,0.0
829.67957,515.18823,71284552,0.83750004,0.12765957,628.6191,440.7623,-0.004857801,0.007901818,-0.0203619,0.0,0.0,0.0
840.6551,520.7578,71284569,0.83750004,0.10638297,783.01086,429.0015,-0.004857801,0.007901818,-0.0203619,0.0,0.0,0.0
848.4817,523.27576,71284586,0.825,0.11702127,741.81433,300.09625,-0.004857801,0.007901818,-0.0203619,0.0,0.0,0.0
855.8946,521.9044,71284603,0.8125,0.12765957,545.05505,2.3714347,-0.004857801,0.007901818,-0.0203619,0.0,0.0,0.0
863.25507,517.65466,71284619,0.7875,0.12765957,366.92966,-318.8658,-0.004857801,0.007901818,-0.0203619,0.0,0.0,0.0
873.172,509.89636,71284636,0.77500004,0.12765957,412.0934,-556.2128,-0.004857801,0.007901818,-0.0203619,0.0,0.0,0.0
883.12354,499.74255,71284653,0.7625,0.08510638,579.0996,-738.8872,-0.004857801,0.007901818,-0.0203619,0.0,0.0,0.0
892.66974,486.40894,71284669,0.7625,0.08510638,660.1279,-893.40045,-0.004857801,0.007901818,-0.0203619,0.0,0.0,0.0
901.2429,471.56775,71284686,0.7625,0.12765957,610.43286,-1027.8041,-0.004857801,0.007901818,-0.0203619,0.0,0.0,0.0
909.8414,453.54675,71284703,0.7875,0.11702127,491.039,-1106.6436,-0.004857801,0.007901818,-0.0203619,0.0,0.0,0.0
917.4029,434.5481,71284720,0.7875,0.09574468,449.78958,-1257.5206,-0.004857801,0.007901818,-0.0203619,0.0,0.0,0.0
921.8805,417.77283,71284736,0.8,0.12765957,344.80957,-1231.2577,-0.004857801,0.007901818,-0.0203619,0.0,0.0,0.0
924.15906,406.08167,71284753,0.8,0.12765957,185.87679,-1035.2395,-0.004857801,0.007901818,-0.0203619,0.0,0.0,0.0
925.69824,397.77124,71284770,0.825,0.10638297,12.566856,-597.82526,-0.004857801,0.007901818,-0.0203619,0.0,0.0,0.0
926.73096,391.41443,71284786,0.825,0.10638297,-73.55841,-244.4061,-0.004857801,0.007901818,-0.0203619,0.0,0.0,0.0
927.176,387.7932,71284803,0.825,0.10638297,-56.014645,-70.19657,-0.004857801,0.007901818,-0.0203619,0.0,0.0,0.0
927.176,386.13,71284820,0.83750004,0.11702127,-42.57123,42.22207,-0.004857801,0.007901818,-0.0203619,0.0,0.0,0.0
927.8655,385.48682,71284837,0.825,0.10638297,-19.241169,75.575,-0.004857801,0.007901818,-0.0203619,0.0,0.0,0.0
929.6118,386.76318,71284853,0.83750004,0.10638297,33.48215,148.99504,-0.004857801,0.007901818,-0.0203619,0.0,0.0,0.0
932.4644,389.08838,71284870,0.83750004,0.12765957,146.03635,200.2203,-0.004857801,0.007901818,-0.0203619,0.0,0.0,0.0
937.4903,394.20972,71284887,0.85,0.12765957,278.8101,314.98773,-0.004857801,0.007901818,-0.0203619,0.0,0.0,0.0
945.19946,403.88965,71284903,0.83750004,0.12765957,439.35193,514.6682,-0.004857801,0.007901818,-0.0203619,0.0,0.0,0.0
955.2968,421.0205,71284920,0.85,0.10638297,608.9617,856.73425,-0.004857801,0.007901818,-0.0203619,0.0,0.0,0.0
964.9282,439.26697,71284937,0.825,0.12765957,743.42,1297.607,-0.004857801,0.007901818,-0.0203619,0.0,0.0,0.0
971.8729,455.01917,71284954,0.825,0.12765957,664.9189,1385.4478,-0.004857801,0.007901818,-0.0203619,0.0,0.0,0.0
978.1896,474.4441,71284970,0.825,0.11702127,466.52612,1311.1202,-0.004857801,0.007901818,-0.0203619,0.0,0.0,0.0
982.2866,490.93945,71284987,0.8125,0.11702127,263.89975,1139.7894,-0.004857801,0.007901818,-0.0203619,0.0,0.0,0.0
983.23987,499.79858,71285004,0.8125,0.12765957,57.083233,798.6912,-0.004857801,0.007901818,-0.0203619,0.0,0.0,0.0
982.5309,506.11218,71285020,0.825,0.12765957,-89.349785,454.4101,-0.004857801,0.007901818,-0.0203619,0.0,0.0,0.0
980.3198,510.47925,71285037,0.83750004,0.12765957,-232.23701,85.929535,-0.004857801,0.007901818,-0.0203619,0.0,0.0,0.0
976.70886,513.2186,71285054,0.85,0.12765957,-314.39078,-90.023865,0.012113759,0.00632146,-0.016289711,0.0,0.0,0.0
968.70874,516.53076,71285070,0.85,0.12765957,-434.3197,19.762476,0.012113759,0.00632146,-0.016289711,0.0,0.0,0.0
959.4979,518.8219,71285087,0.85,0.12765957,-615.8064,64.68331,0.012113759,0.00632146,-0.016289711,0.0,0.0,0.0
950.66754,520.5393,71285104,0.83750004,0.10638297,-714.61584,87.38035,0.012113759,0.00632146,-0.016289711,0.0,0.0,0.0
943.7788,520.5393,71285121,0.8,0.10638297,-629.5473,32.007534,0.012113759,0.00632146,-0.016289711,0.0,0.0,0.0
938.52966,519.8096,71285137,0.7625,0.12765957,-426.43463,-57.46232,0.012113759,0.00632146,-0.016289711,0.0,0.0,0.0
936.7354,517.98486,71285154,0.675,0.12765957,-159.74686,-142.04861,0.012113759,0.00632146,-0.016289711,0.0,0.0,0.0
936.6729,517.8738,71285155,0.425,0.14893617,-141.70863,-145.46542,0.012113759,0.00632146,-0.016289711,0.0,0.0,0.0
936.6729,517.8738,71285163,0.425,0.14893617,-141.70863,-145.46542,0.012113759,0.00632146,-0.016289711,0.0,0.0,0.0
971.16174,428.1349,71285283,0.8125,0.11702127,0.0,0.0,0.012113759,0.00632146,-0.016289711,0.0,0.0,0.0
971.16174,428.1349,71285321,0.825,0.12765957,0.012588252,0.0039730584,0.012113759,0.00632146,-0.016289711,0.0,0.0,0.0
971.16174,428.1349,71285338,0.8125,0.12765957,-0.018626839,-0.007005928,0.012113759,0.00632146,-0.016289711,0.0,0.0,0.0
985.19104,410.56885,71285355,0.83750004,0.12765957,564.05615,-715.81586,0.012113759,0.00632146,-0.016289711,0.0,0.0,0.0
994.9016,402.56763,71285371,0.85,0.12765957,838.2947,-928.4546,0.012113759,0.00632146,-0.016289711,0.0,0.0,0.0
1003.7883,399.67566,71285388,0.825,0.12765957,838.7641,-581.3956,0.012113759,0.00632146,-0.016289711,0.0,0.0,0.0
1010.97546,398.81433,71285405,0.825,0.12765957,710.87756,-271.9584,0.012113759,0.00632146,-0.016289711,0.0,0.0,0.0
1017.71423,399.87085,71285421,0.8125,0.12765957,429.39777,194.10738,0.012113759,0.00632146,-0.016289711,0.0,0.0,0.0
1025.4387,403.07434,71285438,0.825,0.12765957,303.82172,425.86444,0.012113759,0.00632146,-0.016289711,0.0,0.0,0.0
1031.1354,409.1703,71285455,0.8,0.10638297,347.6165,423.93442,0.012113759,0.00632146,-0.016289711,0.0,0.0,0.0
1037.5197,421.7799,71285472,0.8125,0.10638297,335.02545,629.61444,0.012113759,0.00632146,-0.016289711,0.0,0.0,0.0
1043.1427,440.60596,71285488,0.8,0.12765957,350.43643,1137.2711,0.012113759,0.00632146,-0.016289711,0.0,0.0,0.0
1044.138,458.62,71285505,0.8,0.12765957,187.34317,1397.2224,0.012113759,0.00632146,-0.016289711,0.0,0.0,0.0
1042.8594,480.26672,71285522,0.8,0.08510638,-37.24734,1511.4607,0.012113759,0.00632146,-0.016289711,0.0,0.0,0.0
1036.91,499.82874,71285538,0.77500004,0.12765957,-354.23392,1452.7382,0.012113759,0.00632146,-0.016289711,0.0,0.0,0.0
1028.1317,522.6981,71285555,0.75,0.11702127,-635.20917,1339.0171,0.012113759,0.00632146,-0.016289711,0.0,0.0,0.0
1017.7561,540.2527,71285572,0.7375,0.08510638,-816.8801,1345.3907,0.012113759,0.00632146,-0.016289711,0.0,0.0,0.0
1009.4138,552.1223,71285588,0.7375,0.10638297,-809.64954,984.37244,-0.0063089915,-0.018942833,0.0029678345,0.0,0.0,0.0
1002.0591,562.4359,71285605,0.725,0.09574468,-653.8076,600.8382,-0.0063089915,-0.018942833,0.0029678345,0.0,0.0,0.0
998.9463,567.10815,71285622,0.7375,0.10638297,-360.44412,234.58353,-0.0063089915,-0.018942833,0.0029678345,0.0,0.0,0.0
998.0554,566.74146,71285638,0.75,0.10638297,-66.26506,-129.92296,-0.0063089915,-0.018942833,0.0029678345,0.0,0.0,0.0
999.4176,564.5112,71285655,0.7875,0.10638297,146.35773,-303.58447,-0.0063089915,-0.018942833,0.0029678345,0.0,0.0,0.0
1007.475,559.6388,71285672,0.8125,0.10638297,431.81256,-485.216,-0.0063089915,-0.018942833,0.0029678345,0.0,0.0,0.0
1018.2335,552.81885,71285688,0.825,0.11702127,719.97217,-580.01154,-0.0063089915,-0.018942833,0.0029678345,0.0,0.0,0.0
1030.9196,545.85034,71285705,0.825,0.10638297,973.1572,-585.71277,-0.0063089915,-0.018942833,0.0029678345,0.0,0.0,0.0
1046.8767,540.81055,71285722,0.83750004,0.10638297,1118.0288,-509.0384,-0.0063089915,-0.018942833,0.0029678345,0.0,0.0,0.0
1060.9873,539.1979,71285739,0.8125,0.10638297,1095.5685,-279.73834,-0.0063089915,-0.018942833,0.0029678345,0.0,0.0,0.0
1072.8806,539.1979,71285755,0.8,0.09574468,943.7673,5.2423763,-0.0063089915,-0.018942833,0.0029678345,0.0,0.0,0.0
1084.9438,539.9249,71285772,0.8,0.08510638,739.5157,173.70772,-0.0063089915,-0.018942833,0.0029678345,0.0,0.0,0.0
1098.5114,540.97485,71285789,0.7625,0.08510638,664.1906,213.69771,-0.0063089915,-0.018942833,0.0029678345,0.0,0.0,0.0
1113.0581,542.7445,71285805,0.7,0.08510638,759.56836,179.05817,-0.0063089915,-0.018942833,0.0029678345,0.0,0.0,0.0
1125.5426,543.7101,71285822,0.475,0.11702127,852.6525,116.88109,-0.0063089915,-0.018942833,0.0029678345,0.0,0.0,0.0
1133.6088,540.97485,71285838,0.3,0.09574468,754.92993,13.150276,-0.0063089915,-0.018942833,0.0029678345,0.0,0.0,0.0
1133.6088,540.97485,71285845,0.3,0.09574468,754.92993,13.150276,-0.0063089915,-0.018942833,0.0029678345,0.0,0.0,0.0
1007.6498,494.7727,71285982,0.85,0.10638297,0.0,0.0,-0.0063089915,-0.018942833,0.0029678345,0.0,0.0,0.0
1007.6498,494.7727,71286006,0.83750004,0.10638297,0.016904987,0.007920501,-0.0063089915,-0.018942833,0.0029678345,0.0,0.0,0.0
1042.274,490.99536,71286039,0.8,0.09574468,1619.2638,-176.06216,-0.0063089915,-0.018942833,0.0029678345,0.0,0.0,0.0
1082.823,488.36658,71286056,0.77500004,0.08510638,2732.0483,-215.66788,-0.0063089915,-0.018942833,0.0029678345,0.0,0.0,0.0
1127.8798,484.42786,71286073,0.4625,0.09574468,3339.0918,-256.3223,-0.0063089915,-0.018942833,0.0029678345,0.0,0.0,0.0
1152.1028,484.1106,71286080,0.1875,0.07446808,3609.5737,-248.19633,-0.0063089915,-0.018942833,0.0029678345,0.0,0.0,0.0
1152.1028,484.1106,71286086,0.1875,0.07446808,3609.5737,-248.19633,-0.0063089915,-0.018942833,0.0029678345,0.0,0.0,0.0
