x,y,timestamp,pressure,fingerarea,velocityx,velocityy,accelx,accely,accelz,gyrox,gyroy,gyroz
297.8809,308.187,77384785,0.7625,0.09574468,0.0,0.0,0.016786069,0.0035244226,2.040863E-4,0.0,0.0,0.0
297.8809,308.187,77384816,0.8125,0.10638297,0.0010637267,0.0026648834,0.016786069,0.0035244226,2.040863E-4,0.0,0.0,0.0
287.35278,284.12537,77384833,0.8625,0.08510638,-704.3428,-1609.757,0.016786069,0.0035244226,2.040863E-4,0.0,0.0,0.0
280.63348,266.67358,77384850,0.85,0.08510638,-763.44244,-1846.5347,0.016786069,0.0035244226,2.040863E-4,0.0,0.0,0.0
276.5862,250.11682,77384866,0.8625,0.12765957,-588.7363,-1685.9309,0.016786069,0.0035244226,2.040863E-4,0.0,0.0,0.0
274.7416,240.24487,77384883,0.875,0.10638297,-379.65286,-1309.2097,0.016786069,0.0035244226,2.040863E-4,0.0,0.0,0.0
274.88837,236.4596,77384900,0.8875,0.10638297,-28.867268,-541.4846,0.016786069,0.0035244226,2.040863E-4,0.0,0.0,0.0
284.05502,236.57031,77384916,0.90000004,0.10638297,414.3684,198.87526,0.016786069,0.0035244226,2.040863E-4,0.0,0.0,0.0
306.24484,241.33276,77384933,0.8625,0.12765957,1074.6738,472.7883,0.016786069,0.0035244226,2.040863E-4,0.0,0.0,0.0
337.67206,248.35596,77384950,0.875,0.09574468,1977.8264,670.18384,0.016786069,0.0035244226,2.040863E-4,0.0,0.0,0.0
369.6184,249.3606,77384967,0.825,0.11702127,2566.0647,564.67194,0.016786069,0.0035244226,2.040863E-4,0.0,0.0,0.0
398.98108,241.98218,77384983,0.8125,0.10638297,2517.933,28.736923,0.016786069,0.0035244226,2.040863E-4,0.0,0.0,0.0
419.41986,232.02539,77385000,0.7875,0.11702127,1845.7644,-629.1154,0.016786069,0.0035244226,2.040863E-4,0.0,0.0,0.0
431.32828,222.56775,77385017,0.8,0.08510638,992.4906,-986.13824,0.016786069,0.0035244226,2.040863E-4,0.0,0.0,0.0
434.78366,217.6532,77385033,0.8,0.08510638,151.33517,-808.0674,0.016786069,0.0035244226,2.040863E-4,0.0,0.0,0.0
435.33615,215.74426,77385050,0.825,0.08510638,-370.15497,-301.53253,0.016786069,0.0035244226,2.040863E-4,0.0,0.0,0.0
434.7643,219.84839,77385067,0.83750004,0.11702127,-509.16846,152.66177,0.016786069,0.0035244226,2.040863E-4,0.0,-3.355443E-6,0.0
432.1454,247.11182,77385083,0.825,0.09574468,-463.4901,1074.3887,0.016786069,0.0035244226,2.040863E-4,0.0,-3.355443E-6,0.0
430.38177,288.3413,77385100,0.8,0.12765957,-312.1646,2284.3772,0.016786069,0.0035244226,2.040863E-4,0.0,-3.355443E-6,0.0
434.90018,324.5016,77385117,0.77500004,0.08510638,-59.1307,3080.4072,0.016786069,0.0035244226,2.040863E-4,0.0,-3.355443E-6,0.0
442.0586,350.36194,77385134,0.77500004,0.10638297,286.80145,2971.9514,0.016786069,0.0035244226,2.040863E-4,0.0,0.0,0.0
450.3504,374.43164,77385150,0.7375,0.06382979,678.3228,1866.2317,0.016786069,0.0035244226,2.040863E-4,0.0,0.0,0.0
456.484,392.25635,77385167,0.7625,0.10638297,689.20215,1056.6061,0.016786069,0.0035244226,2.040863E-4,0.0,0.0,0.0
459.98633,406.46228,77385184,0.77500004,0.09574468,428.94388,556.6856,0.016786069,0.0035244226,2.040863E-4,0.0,0.0,0.0
459.14307,417.57227,77385200,0.7625,0.08510638,57.819252,356.52298,0.016786069,0.0035244226,2.040863E-4,0.0,0.0,0.0
453.8296,425.91406,77385217,0.77500004,0.06382979,-318.0373,270.06827,0.016786069,0.0035244226,2.040863E-4,0.0,0.0,0.0
438.50516,435.43835,77385234,0.7875,0.09574468,-780.01013,292.47708,0.016786069,0.0035244226,2.040863E-4,0.0,0.0,0.0
415.90305,444.10742,77385251,0.8,0.10638297,-1393.2002,358.59964,0.016786069,0.0035244226,2.040863E-4,0.0,0.0,0.0
386.90067,449.65405,77385267,0.75,0.12765957,-1968.3931,358.9204,0.02942884,0.0028195381,0.048163414,0.0,0.0,0.0
358.6686,453.15222,77385284,0.38750002,0.12765957,-2198.5906,252.4649,0.02942884,0.0028195381,0.048163414,0.0,0.0,0.0
358.6686,453.15222,77385291,0.38750002,0.12765957,-2198.5906,252.4649,0.02942884,0.0028195381,0.048163414,0.0,0.0,0.0
352.36316,395.26025,77385379,0.8125,0.09574468,0.0,0.0,0.02942884,0.0028195381,0.048163414,0.0,-3.355443E-6,0.0
352.36316,395.26025,77385401,0.825,0.10638297,-0.07735161,-0.08991975,0.02942884,0.0028195381,0.048163414,0.0,0.0,0.0
352.36316,395.26025,77385418,0.85,0.09574468,0.0013389704,0.0054819128,0.02942884,0.0028195381,0.048163414,0.0,0.0,0.0
383.23944,388.4253,77385434,0.825,0.08510638,1740.7574,-394.73657,0.02942884,0.0028195381,0.048163414,0.0,0.0,0.0
410.49167,387.2638,77385451,0.8,0.08510638,2309.5723,-336.6509,0.02942884,0.0028195381,0.048163414,0.0,0.0,0.0
443.31598,383.65442,77385468,0.71250004,0.06382979,2581.35,-267.25558,0.02942884,0.0028195381,0.048163414,0.0,0.0,0.0
456.32928,383.70972,77385476,0.5,0.09574468,2662.312,-240.49033,0.02942884,0.0028195381,0.048163414,0.0,0.0,0.0
456.32928,383.70972,77385483,0.5,0.09574468,2662.312,-240.49033,0.02942884,0.0028195381,0.048163414,0.0,0.0,0.0
522.8077,388.15222,77385572,0.7875,0.08510638,0.0,0.0,0.02942884,0.0028195381,0.048163414,0.0,0.0,0.0
521.5485,402.141,77385602,0.8125,0.12765957,-148.5561,1651.0815,0.02942884,0.0028195381,0.048163414,0.0,0.0,0.0
522.7852,427.59094,77385618,0.8125,0.07446808,27.240585,2284.9727,0.02942884,0.0028195381,0.048163414,0.0,0.0,0.0
529.6628,440.64673,77385635,0.77500004,0.11702127,386.99594,1586.3517,0.02942884,0.0028195381,0.048163414,0.0,0.0,0.0
544.74866,449.84912,77385652,0.77500004,0.12765957,832.36304,989.2848,0.02942884,0.0028195381,0.048163414,0.0,0.0,0.0
560.59296,452.9906,77385668,0.7375,0.10638297,1151.4637,492.5676,0.02942884,0.0028195381,0.048163414,0.0,0.0,0.0
573.1456,450.23303,77385685,0.725,0.11702127,1237.6498,-376.55975,0.02942884,0.0028195381,0.048163414,0.0,0.0,0.0
581.3649,440.69446,77385702,0.75,0.09574468,885.04846,-696.156,0.02942884,0.0028195381,0.048163414,0.0,0.0,0.0
591.0324,418.8938,77385718,0.75,0.12765957,531.4382,-1223.9178,0.02942884,0.0028195381,0.048163414,0.0,0.0,0.0
595.00385,402.15662,77385735,0.7625,0.11702127,235.97546,-1572.8083,0.02942884,0.0028195381,0.048163414,0.0,0.0,0.0
595.4731,397.25378,77385752,0.7875,0.09574468,25.057478,-1260.917,0.02942884,0.0028195381,0.048163414,0.0,0.0,0.0
596.01685,394.8463,77385769,0.8,0.09574468,-109.49708,-396.51395,0.02942884,0.0028195381,0.048163414,0.0,0.0,0.0
598.64294,395.3385,77385785,0.8,0.12765957,-130.24286,283.42438,0.02942884,0.0028195381,0.048163414,0.0,0.0,0.0
605.5562,402.99084,77385802,0.7875,0.10638297,142.99605,651.10596,0.02354306,0.0022556335,-0.057469368,0.0,0.0,0.0
616.1505,416.52173,77385819,0.7625,0.06382979,566.78735,906.9845,0.02354306,0.0022556335,-0.057469368,0.0,0.0,0.0
629.79767,428.97583,77385835,0.7375,0.08510638,905.582,1137.2794,0.02354306,0.0022556335,-0.057469368,0.0,0.0,0.0
642.1176,433.3086,77385852,0.71250004,0.09574468,1033.324,930.27094,0.02354306,0.0022556335,-0.057469368,0.0,0.0,0.0
653.9215,428.40625,77385869,0.725,0.06382979,956.1808,205.03107,0.02354306,0.0022556335,-0.057469368,0.0,0.0,0.0
665.40607,405.59155,77385886,0.7375,0.09574468,753.1541,-1008.8543,0.02354306,0.0022556335,-0.057469368,0.0,0.0,0.0
672.57996,374.09705,77385902,0.75,0.08510638,546.34607,-2136.2148,0.02354306,0.0022556335,-0.057469368,0.0,0.0,0.0
673.8562,329.43958,77385919,0.75,0.06382979,220.45732,-3039.952,0.02354306,0.0022556335,-0.057469368,0.0,0.0,0.0
674.25836,276.3307,77385936,0.7875,0.06382979,-67.79876,-3748.9175,0.02354306,0.0022556335,-0.057469368,0.0,0.0,0.0
673.42096,242.40295,77385952,0.8125,0.09574468,-258.4776,-3509.5522,0.02354306,0.0022556335,-0.057469368,0.0,0.0,0.0
672.33685,229.38696,77385969,0.825,0.08510638,-302.26956,-2152.4692,0.02354306,0.0022556335,-0.057469368,0.0,0.0,0.0
671.00854,224.2218,77385986,0.825,0.06382979,-166.60844,-198.0413,0.02354306,0.0022556335,-0.057469368,0.0,0.0,0.0
669.9726,222.89062,77386003,0.8625,0.08510638,-116.036026,880.5548,0.02354306,0.0022556335,-0.057469368,0.0,0.0,0.0
670.2393,237.19751,77386019,0.85,0.10638297,-49.70218,1191.6223,0.02354306,0.0022556335,-0.057469368,0.0,0.0,0.0
673.7178,278.26355,77386036,0.83750004,0.08510638,108.65546,2096.446,0.02354306,0.0022556335,-0.057469368,0.0,0.0,0.0
678.35046,323.21826,77386053,0.825,0.08510638,295.00415,3252.1033,0.02354306,0.0022556335,-0.057469368,0.0,0.0,0.0
683.6964,363.18665,77386069,0.7875,0.10638297,416.84793,3724.2878,0.02354306,0.0022556335,-0.057469368,0.0,0.0,0.0
690.1925,394.95825,77386086,0.7625,0.10638297,479.75687,3138.2607,0.02354306,0.0022556335,-0.057469368,0.0,0.0,0.0
695.93024,411.67737,77386103,0.725,0.09574468,443.39157,1643.1234,0.02354306,0.0022556335,-0.057469368,0.0,0.0,0.0
701.65283,419.72778,77386120,0.725,0.07446808,400.18137,437.37433,0.02354306,0.0022556335,-0.057469368,0.0,0.0,0.0
709.4899,423.50378,77386136,0.7,0.06382979,420.08725,-281.34897,0.02354306,0.0022556335,-0.057469368,0.0,0.0,0.0
717.3536,415.91357,77386153,0.7375,0.10638297,461.02313,-738.6811,0.02354306,0.0022556335,-0.057469368,0.0,0.0,0.0
727.4124,389.1742,77386170,0.7375,0.06382979,582.43933,-1469.0132,0.02354306,0.0022556335,-0.057469368,0.0,0.0,0.0
731.84845,372.58386,77386186,0.7625,0.09574468,502.55414,-1901.1455,0.02354306,0.0022556335,-0.057469368,0.0,0.0,0.0
734.71906,366.86316,77386203,0.77500004,0.10638297,266.79913,-1492.3656,0.02354306,0.0022556335,-0.057469368,0.0,0.0,0.0
739.2958,365.84253,77386220,0.7875,0.09574468,95.643456,-434.13583,0.02354306,0.0022556335,-0.057469368,0.0,0.0,0.0
748.38055,373.48828,77386237,0.7875,0.08510638,222.10472,644.93353,0.02354306,0.0022556335,-0.057469368,0.0,0.0,0.0
758.4231,385.29858,77386253,0.7625,0.10638297,542.69745,1077.9951,0.02354306,0.0022556335,-0.057469368,0.0,0.0,0.0
773.026,402.66882,77386270,0.7625,0.09574468,893.0889,1318.4026,0.02354306,0.0022556335,-0.057469368,0.0,0.0,0.0
784.9781,417.1836,77386287,0.7,0.06382979,1014.7706,1391.1837,0.02354306,0.0022556335,-0.057469368,0.0,0.0,0.0
796.8623,428.24133,77386303,0.675,0.10638297,866.58563,1064.37,0.02354306,0.0022556335,-0.057469368,0.0,0.0,0.0
807.47784,432.65527,77386320,0.375,0.09574468,739.8244,556.4537,0.02354306,0.0022556335,-0.057469368,0.0,0.0,0.0
820.7107,430.8004,77386328,0.1875,0.06382979,809.762,299.77542,0.02354306,0.0022556335,-0.057469368,0.0,0.0,0.0
820.7107,430.8004,77386335,0.1875,0.06382979,809.762,299.77542,0.02354306,0.0022556335,-0.057469368,0.0,0.0,0.0
893.1871,368.60522,77386416,0.675,0.08510638,0.0,0.0,-0.04516554,0.009804517,-0.029975891,0.0,0.0,0.0
893.1871,368.60522,77386437,0.71250004,0.09574468,-0.27487132,-0.108288914,-0.04516554,0.009804517,-0.029975891,0.0,0.0,0.0
893.1871,368.60522,77386454,0.7375,0.10638297,-0.06818229,-0.02852907,-0.04516554,0.009804517,-0.029975891,0.0,0.0,0.0
885.51434,354.16394,77386470,0.75,0.10638297,-408.33603,-768.60565,-0.04516554,0.009804517,-0.029975891,3.355443E-6,0.0,0.0
878.59424,346.69897,77386487,0.77500004,0.11702127,-593.8158,-925.99817,-0.04516554,0.009804517,-0.029975891,3.355443E-6,0.0,0.0
869.355,343.7627,77386504,0.77500004,0.11702127,-700.89484,-681.8719,-0.04516554,0.009804517,-0.029975891,3.355443E-6,0.0,0.0
859.95734,346.47803,77386521,0.8,0.12765957,-710.57983,-52.71924,-0.04516554,0.009804517,-0.029975891,3.355443E-6,0.0,0.0
850.6344,354.05994,77386537,0.8125,0.08510638,-673.3995,470.2707,-0.04516554,0.009804517,-0.029975891,0.0,0.0,0.0
837.0766,383.77966,77386554,0.8,0.09574468,-728.5344,1438.6997,-0.04516554,0.009804517,-0.029975891,0.0,0.0,0.0
833.7501,409.43628,77386571,0.7625,0.08510638,-578.1175,2030.0292,-0.04516554,0.009804517,-0.029975891,0.0,0.0,0.0
838.09985,430.7307,77386587,0.725,0.08510638,-83.46058,2123.299,-0.04516554,0.009804517,-0.029975891,0.0,0.0,0.0
843.82544,438.61536,77386604,0.7,0.12765957,451.31342,1467.2455,-0.04516554,0.009804517,-0.029975891,0.0,0.0,0.0
854.1429,445.0692,77386621,0.675,0.12765957,886.7962,298.71048,-0.04516554,0.009804517,-0.029975891,0.0,0.0,0.0
866.8509,444.32275,77386638,0.6875,0.08510638,981.0519,-254.98709,-0.04516554,0.009804517,-0.029975891,0.0,0.0,0.0
878.7547,435.6565,77386654,0.6875,0.06382979,973.0174,-664.22894,-0.04516554,0.009804517,-0.029975891,0.0,0.0,0.0
888.9482,424.2732,77386671,0.71250004,0.09574468,869.09,-1001.48083,-0.04516554,0.009804517,-0.029975891,0.0,0.0,0.0
897.50275,415.41418,77386688,0.71250004,0.12765957,635.083,-1070.25,-0.04516554,0.009804517,-0.029975891,0.0,0.0,0.0
905.3682,410.52478,77386704,0.71250004,0.12765957,418.17737,-775.666,-0.04516554,0.009804517,-0.029975891,0.0,0.0,0.0
912.71173,409.47632,77386721,0.725,0.11702127,360.74185,-224.1569,-0.04516554,0.009804517,-0.029975891,0.0,0.0,0.0
924.8282,417.59717,77386738,0.725,0.07446808,506.17444,353.05133,-0.04516554,0.009804517,-0.029975891,0.0,0.0,0.0
942.0169,433.9225,77386755,0.675,0.09574468,845.94586,957.65796,-0.04516554,0.009804517,-0.029975891,0.0,0.0,0.0
954.05206,444.35803,77386771,0.65000004,0.12765957,1006.6097,1215.2053,-0.04516554,0.009804517,-0.029975891,0.0,0.0,0.0
969.77234,450.43433,77386788,0.6375,0.12765957,1026.0251,982.53265,-0.04516554,0.009804517,-0.029975891,0.0,0.0,0.0
984.7925,443.21545,77386805,0.625,0.08510638,990.9837,209.16318,-0.04516554,0.009804517,-0.029975891,3.355443E-6,0.0,0.0
995.5774,432.25195,77386821,0.65000004,0.08510638,813.9208,-838.5894,-0.04516554,0.009804517,-0.029975891,3.355443E-6,0.0,0.0
1006.3031,409.8069,77386838,0.6625,0.10638297,669.8082,-1428.3757,-0.04516554,0.009804517,-0.029975891,3.355443E-6,0.0,0.0
1014.317,382.80676,77386855,0.6875,0.07446808,486.30344,-2006.4357,-0.04516554,0.009804517,-0.029975891,3.355443E-6,0.0,0.0
1018.6846,366.07715,77386872,0.71250004,0.11702127,229.11633,-1917.3892,-0.036132425,-0.032156393,-0.007980347,0.0,0.0,0.0
1021.0298,356.09973,77386888,0.71250004,0.12765957,73.01694,-1235.4573,-0.036132425,-0.032156393,-0.007980347,0.0,0.0,0.0
1021.64526,351.9768,77386905,0.725,0.12765957,-76.28212,-350.3958,-0.036132425,-0.032156393,-0.007980347,0.0,0.0,0.0
1021.64526,350.39087,77386919,0.7375,0.12765957,-174.96217,202.74258,-0.036132425,-0.032156393,-0.007980347,0.0,0.0,0.0
1022.14514,352.61218,77386938,0.75,0.11702127,-136.57152,478.47653,-0.036132425,-0.032156393,-0.007980347,0.0,0.0,0.0
1023.7617,362.22534,77386955,0.7375,0.09574468,-21.276724,595.187,-0.036132425,-0.032156393,-0.007980347,0.0,0.0,0.0
1027.0465,382.3037,77386972,0.7,0.11702127,114.38689,1081.0027,-0.036132425,-0.032156393,-0.007980347,0.0,0.0,0.0
1028.7981,405.40186,77386988,0.6875,0.11702127,197.26663,1643.2002,-0.036132425,-0.032156393,-0.007980347,0.0,0.0,0.0
1031.5641,427.30347,77387005,0.675,0.08510638,208.10225,1833.0221,-0.036132425,-0.032156393,-0.007980347,0.0,0.0,0.0
1032.3633,437.21094,77387022,0.6625,0.11702127,94.38516,1167.8253,-0.036132425,-0.032156393,-0.007980347,0.0,0.0,0.0
1031.6218,444.6261,77387039,0.6625,0.12765957,-4.511372,574.85815,-0.036132425,-0.032156393,-0.007980347,0.0,0.0,0.0
1028.2673,449.08923,77387055,0.675,0.12765957,-168.57329,46.0722,-0.036132425,-0.032156393,-0.007980347,0.0,0.0,0.0
1023.25696,452.35425,77387072,0.675,0.12765957,-332.3363,-141.40366,-0.036132425,-0.032156393,-0.007980347,0.0,0.0,0.0
1014.19727,454.5569,77387089,0.6875,0.10638297,-542.417,-104.979935,-0.036132425,-0.032156393,-0.007980347,0.0,0.0,0.0
1007.1134,454.79004,77387105,0.625,0.10638297,-644.7905,-64.717964,-0.036132425,-0.032156393,-0.007980347,0.0,0.0,0.0
1006.65015,454.79004,77387107,0.3625,0.12765957,-631.13605,-65.9332,-0.036132425,-0.032156393,-0.007980347,0.0,0.0,0.0
1006.65015,454.79004,77387116,0.3625,0.12765957,-631.13605,-65.9332,-0.036132425,-0.032156393,-0.007980347,0.0,0.0,0.0
1083.6251,355.2777,77387251,0.7375,0.12765957,0.0,0.0,-0.036132425,-0.032156393,-0.007980347,0.0,0.0,0.0
1083.6251,355.2777,77387273,0.725,0.12765957,0.057325836,0.022495368,-0.036132425,-0.032156393,-0.007980347,0.0,0.0,0.0
1083.6251,355.2777,77387288,0.7375,0.11702127,-0.025171963,-0.007722731,-0.036132425,-0.032156393,-0.007980347,0.0,0.0,0.0
1083.6251,355.2777,77387306,0.7375,0.09574468,0.001119425,-0.0015721825,-0.036132425,-0.032156393,-0.007980347,0.0,0.0,0.0
1087.9657,371.4812,77387323,0.75,0.08510638,129.02197,481.70874,-0.036132425,-0.032156393,-0.007980347,0.0,0.0,0.0
1087.1895,388.69128,77387339,0.725,0.11702127,163.33595,1146.6832,-0.036132425,-0.032156393,-0.007980347,4.7453127E-6,4.7453127E-6,0.0
1079.4712,405.344,77387356,0.71250004,0.08510638,-210.47473,1487.3112,-0.036132425,-0.032156393,-0.007980347,4.7453127E-6,4.7453127E-6,0.0
1069.6539,425.63757,77387373,0.71250004,0.06382979,-580.8076,1554.4468,-0.036132425,-0.032156393,-0.007980347,4.7453127E-6,4.7453127E-6,0.0
1063.5295,437.20154,77387390,0.7,0.09574468,-772.27924,1050.7081,-0.036132425,-0.032156393,-0.007980347,4.7453127E-6,4.7453127E-6,0.0
1062.632,448.9712,77387406,0.71250004,0.10638297,-436.60327,628.7838,0.01909405,-0.025725111,0.097616196,0.0,0.0,0.0
1065.2424,455.87646,77387423,0.7,0.10638297,9.846649,467.4498,0.01909405,-0.025725111,0.097616196,0.0,0.0,0.0
1073.879,461.6615,77387440,0.6625,0.09574468,489.55975,181.25342,0.01909405,-0.025725111,0.097616196,0.0,0.0,0.0
1092.2289,466.7943,77387456,0.65000004,0.08510638,1057.431,167.41711,0.01909405,-0.025725111,0.097616196,0.0,0.0,0.0
1108.0453,464.41138,77387473,0.6375,0.09574468,1416.1255,-27.043941,0.01909405,-0.025725111,0.097616196,0.0,0.0,0.0
1116.2197,458.97998,77387490,0.6125,0.12765957,1191.3153,-341.87787,0.01909405,-0.025725111,0.097616196,0.0,0.0,0.0
1117.614,450.34753,77387501,0.175,0.08510638,870.0137,-573.4808,0.01909405,-0.025725111,0.097616196,0.0,0.0,0.0
1117.614,450.34753,77387508,0.175,0.08510638,870.0137,-573.4808,0.01909405,-0.025725111,0.097616196,0.0,0.0,0.0
1037.1403,400.5913,77387605,0.75,0.12765957,0.0,0.0,0.01909405,-0.025725111,0.097616196,0.0,0.0,0.0
1037.1403,400.5913,77387623,0.77500004,0.12765957,-0.40381092,-0.16094942,0.01909405,-0.025725111,0.097616196,0.0,0.0,0.0
1037.1403,400.5913,77387640,0.7875,0.12765957,-0.033850428,-0.011850709,0.01909405,-0.025725111,0.097616196,0.0,0.0,0.0
1061.6777,401.06445,77387657,0.75,0.12765957,1427.865,40.78746,0.01909405,-0.025725111,0.097616196,0.0,0.0,0.0
1100.3965,395.5896,77387674,0.71250004,0.09574468,2683.338,-208.38333,0.01909405,-0.025725111,0.097616196,0.0,0.0,0.0
1123.1122,389.04077,77387685,0.3125,0.09574468,3034.003,-408.40988,0.01909405,-0.025725111,0.097616196,0.0,0.0,0.0
1123.1122,389.04077,77387693,0.3125,0.09574468,3034.003,-408.40988,0.01909405,-0.025725111,0.097616196,0.0,0.0,0.0
