x,y,timestamp,pressure,fingerarea,velocityx,velocityy,accelx,accely,accelz,gyrox,gyroy,gyroz
196.91376,229.99866,14319590,0.725,0.08510638,0.0,0.0,0.027396321,-0.009487987,-0.0053424835,0.0,0.0,0.0
190.41586,218.44812,14319596,0.75,0.07446808,559.5699,994.67236,0.027396321,-0.009487987,-0.0053424835,0.0,0.0,0.0
173.12386,164.04944,14319629,0.77500004,0.06382979,-542.5617,-2174.7578,0.027396321,-0.009487987,-0.0053424835,0.0,0.0,0.0
169.42271,141.88318,14319646,0.7875,0.12765957,-281.73645,-1804.633,0.027396321,-0.009487987,-0.0053424835,0.0,0.0,0.0
169.92255,135.22046,14319663,0.8,0.12765957,69.46594,-787.6882,-0.01008296,-0.03959039,-0.08427334,-7.9581305E-6,-2.3874392E-5,0.0
174.4373,134.0404,14319679,0.8,0.10638297,323.88104,-28.471268,-0.01008296,-0.03959039,-0.08427334,-7.9581305E-6,-2.3874392E-5,0.0
190.17566,141.10913,14319696,0.8,0.10638297,838.37537,875.9235,-0.01008296,-0.03959039,-0.08427334,-7.9581305E-6,-2.3874392E-5,0.0
218.46976,161.46643,14319713,0.7875,0.08510638,1539.7401,1459.5953,-0.01008296,-0.03959039,-0.08427334,-7.9581305E-6,-2.3874392E-5,0.0
253.84998,181.10767,14319730,0.77500004,0.12765957,2368.7954,1714.9476,-0.01008296,-0.03959039,-0.08427334,0.0,0.0,0.0
294.74203,190.15027,14319746,0.75,0.12765957,2965.6594,1477.1042,-0.01008296,-0.03959039,-0.08427334,0.0,0.0,0.0
325.92215,185.00696,14319763,0.7375,0.10638297,2781.4033,526.18524,-0.01008296,-0.03959039,-0.08427334,0.0,0.0,0.0
343.817,171.401,14319780,0.71250004,0.06382979,1910.3008,-742.2506,-0.01008296,-0.03959039,-0.08427334,0.0,0.0,0.0
353.5708,155.40564,14319796,0.675,0.11702127,796.4381,-1541.1807,-0.01008296,-0.03959039,-0.08427334,4.7453127E-6,4.7453127E-6,0.0
360.08112,129.7727,14319813,0.6625,0.10638297,7.675875,-1945.8655,-0.01008296,-0.03959039,-0.08427334,4.7453127E-6,4.7453127E-6,0.0
357.92624,130.48633,14319830,0.7625,0.12765957,-449.4327,-1145.2539,-0.01008296,-0.03959039,-0.08427334,4.7453127E-6,4.7453127E-6,0.0
348.79324,136.08069,14319847,0.8,0.10638297,-751.3148,-67.99442,-0.01008296,-0.03959039,-0.08427334,4.7453127E-6,4.7453127E-6,0.0
335.96628,154.83545,14319863,0.8,0.08510638,-1036.8094,1097.6748,-0.01008296,-0.03959039,-0.08427334,0.0,2.5165823E-6,0.0
326.50287,187.68042,14319880,0.77500004,0.12765957,-1159.9648,2258.113,-0.01008296,-0.03959039,-0.08427334,0.0,2.5165823E-6,0.0
329.07254,230.18591,14319897,0.77500004,0.08510638,-603.1977,2990.5054,-0.01008296,-0.03959039,-0.08427334,0.0,2.5165823E-6,0.0
341.49948,278.07507,14319913,0.77500004,0.06382979,434.0705,3594.2493,-0.01008296,-0.03959039,-0.08427334,0.0,2.5165823E-6,0.0
359.42258,322.318,14319930,0.7875,0.08510638,1337.3202,3595.2412,-0.01008296,-0.03959039,-0.08427334,-4.2707805E-5,-4.2707805E-5,0.0
370.95914,343.8883,14319947,0.77500004,0.10638297,1503.1946,2438.8384,-0.01008296,-0.03959039,-0.08427334,-4.2707805E-5,-4.2707805E-5,0.0
382.44254,361.4652,14319963,0.77500004,0.06382979,1133.1355,1187.1827,-0.01008296,-0.03959039,-0.08427334,-4.2707805E-5,-4.2707805E-5,0.0
388.3932,374.33142,14319980,0.7875,0.08510638,588.066,258.68994,-0.01008296,-0.03959039,-0.08427334,-4.2707805E-5,-4.2707805E-5,0.0
388.47943,379.7079,14319997,0.8,0.08510638,74.73374,-177.93384,-0.01008296,-0.03959039,-0.08427334,0.0,0.0,0.0
384.00397,383.42468,14320014,0.8125,0.11702127,-329.43817,-205.14807,-0.01008296,-0.03959039,-0.08427334,0.0,0.0,0.0
368.9572,392.23962,14320030,0.8,0.12765957,-829.5418,29.037895,-0.01008296,-0.03959039,-0.08427334,0.0,0.0,0.0
341.8317,402.29553,14320047,0.8125,0.12765957,-1628.3774,357.37698,-0.01008296,-0.03959039,-0.08427334,0.0,0.0,0.0
324.31253,406.82605,14320064,0.8,0.11702127,-1850.7169,489.47815,-0.01008296,-0.03959039,-0.08427334,0.0,0.0,0.0
311.67233,408.5879,14320080,0.8,0.12765957,-1466.2683,317.96622,-0.01008296,-0.03959039,-0.08427334,0.0,0.0,0.0
305.8482,407.0891,14320097,0.8,0.12765957,-659.13245,-83.807335,-0.01008296,-0.03959039,-0.08427334,0.0,0.0,0.0
303.598,401.5641,14320114,0.77500004,0.12765957,71.42617,-404.01328,-0.01008296,-0.03959039,-0.08427334,0.0,0.0,0.0
307.35306,378.94067,14320131,0.65000004,0.07446808,388.88522,-958.7976,-0.01008296,-0.03959039,-0.08427334,0.0,0.0,0.0
307.87762,377.49023,14320131,0.4,0.11702127,410.43997,-1056.2229,-0.01008296,-0.03959039,-0.08427334,0.0,0.0,0.0
307.87762,377.49023,14320140,0.4,0.11702127,410.43997,-1056.2229,-0.01008296,-0.03959039,-0.08427334,0.0,0.0,0.0
300.38007,292.19397,14320276,0.83750004,0.12765957,0.0,0.0,0.007933646,3.2767653E-4,-0.06741905,0.0,0.0,0.0
300.38007,292.19397,14320298,0.85,0.12765957,-0.009876908,-0.011359166,0.007933646,3.2767653E-4,-0.06741905,0.0,0.0,0.0
312.31763,293.52014,14320314,0.8125,0.12765957,876.4614,97.35229,0.007933646,3.2767653E-4,-0.06741905,0.0,0.0,0.0
346.41544,294.85938,14320331,0.8,0.10638297,2401.2615,144.49854,0.007933646,3.2767653E-4,-0.06741905,1.6386717E-4,-8.739582E-4,0.0
380.8583,294.0642,14320348,0.7875,0.12765957,2886.2898,45.51454,0.007933646,3.2767653E-4,-0.06741905,1.6386717E-4,-8.739582E-4,0.0
411.68066,293.0824,14320365,0.7625,0.12765957,2928.1433,-48.295696,0.007933646,3.2767653E-4,-0.06741905,1.6386717E-4,-8.739582E-4,0.0
427.33875,293.0824,14320373,0.5,0.12765957,2821.461,-64.34289,0.007933646,3.2767653E-4,-0.06741905,1.6386717E-4,-8.739582E-4,0.0
427.33875,293.0824,14320380,0.5,0.12765957,2821.461,-64.34289,0.007933646,3.2767653E-4,-0.06741905,1.6386717E-4,-8.739582E-4,0.0
446.8324,334.84204,14320493,0.8125,0.08510638,0.0,0.0,0.007933646,3.2767653E-4,-0.06741905,0.0,-3.355443E-6,0.0
446.8324,334.84204,14320515,0.83750004,0.10638297,0.05580258,0.04000611,0.007933646,3.2767653E-4,-0.06741905,0.0,-3.355443E-6,0.0
446.8324,334.84204,14320532,0.85,0.12765957,-0.020453598,-0.013911059,0.007933646,3.2767653E-4,-0.06741905,-1.3505387E-4,-6.752693E-5,0.0
459.66412,363.8711,14320548,0.77500004,0.08510638,719.6573,1661.364,0.007933646,3.2767653E-4,-0.06741905,-1.3505387E-4,-6.752693E-5,0.0
478.01105,388.96838,14320565,0.7375,0.11702127,1213.2037,2156.1772,0.007933646,3.2767653E-4,-0.06741905,-1.3505387E-4,-6.752693E-5,0.0
497.8404,405.93933,14320582,0.7375,0.09574468,1531.4238,1934.5754,0.007933646,3.2767653E-4,-0.06741905,-1.3505387E-4,-6.752693E-5,0.0
510.8023,410.4442,14320598,0.75,0.10638297,1409.888,1044.3245,0.007933646,3.2767653E-4,-0.06741905,0.0,3.355443E-6,0.0
519.91583,406.34827,14320615,0.7375,0.12765957,963.20325,-23.544651,0.007933646,3.2767653E-4,-0.06741905,0.0,3.355443E-6,0.0
524.336,397.63965,14320632,0.7375,0.08510638,325.40167,-969.82574,0.007933646,3.2767653E-4,-0.06741905,0.0,3.355443E-6,0.0
530.2516,372.8047,14320649,0.75,0.09574468,32.138348,-1628.2423,0.007933646,3.2767653E-4,-0.06741905,0.0,3.355443E-6,0.0
531.3049,362.76428,14320665,0.75,0.12765957,-69.66724,-1612.6832,0.007933646,3.2767653E-4,-0.06741905,0.0,0.0,0.0
531.06885,357.10413,14320682,0.7375,0.12765957,-98.4351,-966.5855,0.007933646,3.2767653E-4,-0.06741905,0.0,0.0,0.0
530.80505,354.78845,14320699,0.77500004,0.12765957,-153.83247,-215.50363,0.007933646,3.2767653E-4,-0.06741905,0.0,0.0,0.0
529.9905,354.38916,14320715,0.77500004,0.12765957,-178.95209,317.31845,0.007933646,3.2767653E-4,-0.06741905,0.0,0.0,0.0
529.30554,355.594,14320732,0.8,0.11702127,-100.18804,306.85904,0.038346887,-0.015737861,-0.14193535,0.0,0.0,0.0
529.30554,362.8662,14320749,0.7875,0.09574468,-45.069717,396.73807,0.038346887,-0.015737861,-0.14193535,0.0,0.0,0.0
533.81335,379.03467,14320766,0.7625,0.09574468,90.64205,797.18494,0.038346887,-0.015737861,-0.14193535,0.0,0.0,0.0
545.729,396.30432,14320782,0.7375,0.12765957,442.6472,1215.2852,0.038346887,-0.015737861,-0.14193535,0.0,0.0,0.0
567.4792,418.53455,14320799,0.75,0.07446808,1168.629,1585.6125,0.038346887,-0.015737861,-0.14193535,3.5589844E-6,3.5589844E-6,0.0
589.06494,430.45312,14320816,0.725,0.07446808,1638.5493,1381.2383,0.038346887,-0.015737861,-0.14193535,3.5589844E-6,3.5589844E-6,0.0
610.212,428.6963,14320832,0.725,0.06382979,1778.0825,567.1644,0.038346887,-0.015737861,-0.14193535,3.5589844E-6,3.5589844E-6,0.0
624.5486,416.66382,14320849,0.7,0.12765957,1425.4795,-522.37366,0.038346887,-0.015737861,-0.14193535,3.5589844E-6,3.5589844E-6,0.0
636.2826,389.83728,14320866,0.6875,0.08510638,857.7024,-1659.8779,0.038346887,-0.015737861,-0.14193535,0.0,3.355443E-6,0.0
638.3579,341.3147,14320883,0.71250004,0.11702127,305.48254,-2920.313,0.038346887,-0.015737861,-0.14193535,0.0,3.355443E-6,0.0
635.0568,298.1776,14320899,0.71250004,0.12765957,-315.24142,-3655.6,0.038346887,-0.015737861,-0.14193535,0.0,3.355443E-6,0.0
628.06726,257.59314,14320916,0.71250004,0.08510638,-698.0998,-3528.9556,0.038346887,-0.015737861,-0.14193535,0.0,3.355443E-6,0.0
621.30066,229.92896,14320933,0.725,0.08510638,-829.70764,-2564.157,0.038346887,-0.015737861,-0.14193535,0.0,0.0,0.0
615.38214,219.2539,14320949,0.75,0.07446808,-716.6544,-1024.3944,0.038346887,-0.015737861,-0.14193535,0.0,0.0,0.0
610.70105,215.9701,14320966,0.7625,0.08510638,-439.64676,123.95243,0.038346887,-0.015737861,-0.14193535,0.0,0.0,0.0
607.9039,216.56104,14320983,0.7875,0.08510638,-227.08427,760.4892,0.038346887,-0.015737861,-0.14193535,0.0,0.0,0.0
603.9041,224.34033,14320999,0.77500004,0.08510638,-125.05967,972.2721,0.038346887,-0.015737861,-0.14193535,0.0,0.0,0.0
602.8033,262.05945,14321016,0.75,0.08510638,-79.390335,1709.8048,0.038346887,-0.015737861,-0.14193535,0.0,0.0,0.0
610.3075,304.88806,14321033,0.7375,0.08510638,199.51411,2815.898,0.038346887,-0.015737861,-0.14193535,0.0,0.0,0.0
622.5631,352.39478,14321050,0.7375,0.09574468,662.8705,3744.7185,0.038346887,-0.015737861,-0.14193535,0.0,0.0,0.0
635.3773,388.75012,14321066,0.7375,0.11702127,1040.2947,3631.28,0.038346887,-0.015737861,-0.14193535,4.7453127E-6,4.7453127E-6,0.0
643.43726,402.32214,14321083,0.725,0.09574468,1039.6027,2188.752,0.038346887,-0.015737861,-0.14193535,4.7453127E-6,4.7453127E-6,0.0
656.53973,414.92737,14321100,0.71250004,0.06382979,846.41364,645.2477,0.038346887,-0.015737861,-0.14193535,4.7453127E-6,4.7453127E-6,0.0
669.04425,418.80005,14321116,0.725,0.08510638,699.84814,-408.20856,0.038346887,-0.015737861,-0.14193535,4.7453127E-6,4.7453127E-6,0.0
676.6308,412.3672,14321133,0.71250004,0.12765957,625.689,-724.1554,0.038346887,-0.015737861,-0.14193535,0.0,3.355443E-6,0.0
685.7086,388.6256,14321150,0.71250004,0.07446808,553.16986,-1303.9799,0.038346887,-0.015737861,-0.14193535,0.0,3.355443E-6,0.0
689.45996,373.72363,14321167,0.7,0.09574468,304.65668,-1798.9249,0.038346887,-0.015737861,-0.14193535,0.0,3.355443E-6,0.0
691.15936,367.8828,14321183,0.725,0.11702127,42.93501,-1475.0405,0.038346887,-0.015737861,-0.14193535,0.0,3.355443E-6,0.0
693.6068,365.18018,14321200,0.7375,0.11702127,-36.60379,-523.5316,0.038346887,-0.015737861,-0.14193535,0.0,0.0,0.0
698.6819,365.91943,14321217,0.7375,0.09574468,23.105062,278.20343,0.038346887,-0.015737861,-0.14193535,0.0,0.0,0.0
708.57056,374.1974,14321233,0.7375,0.08510638,365.0482,678.08374,0.038346887,-0.015737861,-0.14193535,0.0,0.0,0.0
726.06335,390.2152,14321250,0.725,0.12765957,879.94464,961.7186,0.038346887,-0.015737861,-0.14193535,0.0,0.0,0.0
746.16095,407.63367,14321267,0.7,0.09574468,1345.4712,1313.8834,-0.01732248,-0.012590289,0.07045269,0.0,3.355443E-6,0.0
771.12476,424.5205,14321284,0.7,0.06382979,1650.2101,1446.3478,-0.01732248,-0.012590289,0.07045269,0.0,3.355443E-6,0.0
788.1048,427.24646,14321300,0.7,0.07446808,1612.2982,985.45056,-0.01732248,-0.012590289,0.07045269,0.0,3.355443E-6,0.0
803.519,423.9369,14321317,0.6875,0.09574468,1201.4939,-11.031557,-0.01732248,-0.012590289,0.07045269,0.0,3.355443E-6,0.0
814.79956,412.45093,14321334,0.7,0.12765957,760.3224,-840.3407,-0.01732248,-0.012590289,0.07045269,0.0,0.0,0.0
825.817,385.1029,14321350,0.7,0.07446808,467.65375,-1673.7317,-0.01732248,-0.012590289,0.07045269,0.0,0.0,0.0
829.20795,361.68652,14321367,0.71250004,0.10638297,201.33612,-2116.0996,-0.01732248,-0.012590289,0.07045269,0.0,0.0,0.0
828.13965,347.03723,14321384,0.7,0.10638297,-100.90721,-1862.2543,-0.01732248,-0.012590289,0.07045269,0.0,0.0,0.0
825.4974,339.0791,14321400,0.71250004,0.08510638,-361.98575,-1043.5394,-0.01732248,-0.012590289,0.07045269,0.0,0.0,0.0
820.9594,335.01892,14321417,0.7,0.08510638,-530.0864,-142.3503,-0.01732248,-0.012590289,0.07045269,0.0,0.0,0.0
813.3481,332.20654,14321434,0.7,0.08510638,-579.681,286.2902,-0.01732248,-0.012590289,0.07045269,0.0,0.0,0.0
802.5005,331.2881,14321451,0.725,0.08510638,-652.78235,221.82365,-0.01732248,-0.012590289,0.07045269,0.0,0.0,0.0
790.51215,333.09595,14321467,0.725,0.08510638,-841.5503,202.09264,-0.01732248,-0.012590289,0.07045269,0.0,0.0,0.0
779.25586,338.08118,14321484,0.7375,0.12765957,-918.0429,313.7429,-0.01732248,-0.012590289,0.07045269,0.0,0.0,0.0
773.12616,347.1797,14321501,0.7625,0.12765957,-692.7004,526.66736,-0.01732248,-0.012590289,0.07045269,0.0,0.0,0.0
771.0976,364.00317,14321517,0.75,0.08510638,-296.24396,865.83673,-0.01732248,-0.012590289,0.07045269,0.0,0.0,0.0
776.51514,385.90894,14321534,0.75,0.09574468,292.6695,1443.2278,-0.01732248,-0.012590289,0.07045269,0.0,0.0,0.0
784.316,400.75732,14321551,0.7375,0.10638297,661.0285,1532.8473,-0.01732248,-0.012590289,0.07045269,0.0,0.0,0.0
795.3836,416.1494,14321568,0.71250004,0.08510638,883.35645,1254.5414,-0.01732248,-0.012590289,0.07045269,0.0,0.0,0.0
808.8569,425.65967,14321584,0.725,0.08510638,1036.8895,760.6902,-0.01732248,-0.012590289,0.07045269,0.0,0.0,0.0
820.73615,423.51855,14321601,0.71250004,0.06382979,963.00305,22.37933,-0.01732248,-0.012590289,0.07045269,0.0,3.355443E-6,0.0
831.16187,412.6045,14321618,0.71250004,0.10638297,817.4183,-576.2594,-0.01732248,-0.012590289,0.07045269,0.0,3.355443E-6,0.0
839.9918,385.82617,14321634,0.7,0.06382979,641.8091,-1528.797,-0.01732248,-0.012590289,0.07045269,0.0,3.355443E-6,0.0
842.7056,360.56384,14321651,0.71250004,0.10638297,294.96014,-2213.2852,-0.01732248,-0.012590289,0.07045269,0.0,3.355443E-6,0.0
842.1558,347.65918,14321668,0.71250004,0.08510638,-39.72703,-1870.666,-0.01732248,-0.012590289,0.07045269,0.0,0.0,0.0
841.1277,343.59143,14321685,0.725,0.08510638,-265.35614,-941.3696,-0.01732248,-0.012590289,0.07045269,0.0,0.0,0.0
839.5957,341.95007,14321701,0.7375,0.09574468,-339.77438,31.805904,-0.01732248,-0.012590289,0.07045269,0.0,0.0,0.0
837.86597,341.95007,14321718,0.75,0.12765957,-254.11792,526.6168,-0.01732248,-0.012590289,0.07045269,0.0,0.0,0.0
835.5138,345.63965,14321735,0.75,0.10638297,-182.97427,524.67126,-0.01732248,-0.012590289,0.07045269,0.0,0.0,0.0
835.91113,353.81274,14321751,0.7375,0.08510638,-98.0272,514.44885,-0.01732248,-0.012590289,0.07045269,0.0,0.0,0.0
839.8028,362.96106,14321768,0.7,0.06382979,106.93664,707.4645,-0.01732248,-0.012590289,0.07045269,0.0,0.0,0.0
848.2617,369.82544,14321785,0.7,0.07446808,417.63632,720.9697,-0.01732248,-0.012590289,0.07045269,0.0,0.0,0.0
863.7859,373.04773,14321801,0.71250004,0.09574468,882.9929,485.00763,-0.029857993,0.0059277713,-0.0076379776,0.0,0.0,0.0
881.1421,365.37634,14321818,0.7,0.08510638,1249.3862,-109.74177,-0.029857993,0.0059277713,-0.0076379776,0.0,0.0,0.0
897.0973,351.13696,14321835,0.7,0.12765957,1353.8439,-819.38684,-0.029857993,0.0059277713,-0.0076379776,0.0,0.0,0.0
909.3225,339.60376,14321852,0.6875,0.09574468,1154.1184,-1238.6759,-0.029857993,0.0059277713,-0.0076379776,0.0,0.0,0.0
920.3986,331.13135,14321868,0.71250004,0.07446808,740.6674,-1065.9089,-0.029857993,0.0059277713,-0.0076379776,0.0,0.0,0.0
928.69824,329.5111,14321885,0.71250004,0.08510638,456.53067,-497.2772,-0.029857993,0.0059277713,-0.0076379776,0.0,0.0,0.0
936.52216,333.63086,14321902,0.71250004,0.09574468,330.0987,165.64511,-0.029857993,0.0059277713,-0.0076379776,0.0,0.0,0.0
941.6994,339.3346,14321919,0.725,0.10638297,273.6429,589.7618,-0.029857993,0.0059277713,-0.0076379776,0.0,0.0,0.0
949.94775,357.61072,14321935,0.725,0.08510638,291.0813,994.491,-0.029857993,0.0059277713,-0.0076379776,3.5589844E-6,3.5589844E-6,0.0
951.1682,377.2716,14321952,0.71250004,0.08510638,219.90361,1425.5542,-0.029857993,0.0059277713,-0.0076379776,3.5589844E-6,3.5589844E-6,0.0
949.40405,395.80054,14321969,0.71250004,0.10638297,-22.599533,1591.1873,-0.029857993,0.0059277713,-0.0076379776,3.5589844E-6,3.5589844E-6,0.0
944.7528,409.8335,14321985,0.725,0.08510638,-323.56036,1370.596,-0.029857993,0.0059277713,-0.0076379776,3.5589844E-6,3.5589844E-6,0.0
940.67004,416.88245,14322002,0.7,0.07446808,-515.002,752.14746,-0.029857993,0.0059277713,-0.0076379776,0.0,0.0,0.0
932.29706,419.24988,14322019,0.675,0.08510638,-563.3562,79.83772,-0.029857993,0.0059277713,-0.0076379776,0.0,0.0,0.0
927.67584,419.24988,14322030,0.38750002,0.11702127,-587.1282,-148.68118,-0.029857993,0.0059277713,-0.0076379776,0.0,0.0,0.0
927.67584,419.24988,14322036,0.38750002,0.11702127,-587.1282,-148.68118,-0.029857993,0.0059277713,-0.0076379776,0.0,0.0,0.0
958.6658,322.40308,14322125,0.6625,0.07446808,0.0,0.0,-0.029857993,0.0059277713,-0.0076379776,0.0,-2.5165823E-6,0.0
958.6658,322.40308,14322153,0.6875,0.08510638,-0.07895634,-0.026688108,-0.029857993,0.0059277713,-0.0076379776,0.0,0.0,0.0
979.1289,320.62598,14322169,0.71250004,0.08510638,1648.4197,-148.96548,-0.029857993,0.0059277713,-0.0076379776,0.0,0.0,0.0
990.28955,322.91882,14322186,0.71250004,0.06382979,1348.5144,36.91663,-0.029857993,0.0059277713,-0.0076379776,0.0,0.0,0.0
1000.28345,329.35718,14322203,0.71250004,0.08510638,1044.7101,325.29245,-0.029857993,0.0059277713,-0.0076379776,0.0,0.0,0.0
1005.3512,336.08728,14322219,0.71250004,0.12765957,706.0574,480.08127,-0.029857993,0.0059277713,-0.0076379776,0.0,0.0,0.0
1012.1786,357.42468,14322236,0.7,0.08510638,226.72403,990.87115,-0.029857993,0.0059277713,-0.0076379776,0.0,0.0,0.0
1013.6478,375.48962,14322253,0.71250004,0.08510638,-25.889915,1427.1605,-0.029857993,0.0059277713,-0.0076379776,0.0,0.0,0.0
1014.10706,387.7185,14322270,0.71250004,0.10638297,-58.143097,1368.643,-0.029857993,0.0059277713,-0.0076379776,3.5589844E-6,3.5589844E-6,0.0
1015.60583,394.26147,14322286,0.7,0.12765957,-102.36176,898.0015,-0.029857993,0.0059277713,-0.0076379776,3.5589844E-6,3.5589844E-6,0.0
1018.7958,399.01367,14322303,0.6875,0.12765957,-2.264772,214.54108,-0.029857993,0.0059277713,-0.0076379776,3.5589844E-6,3.5589844E-6,0.0
1033.9672,407.50378,14322320,0.6875,0.10638297,465.94345,34.87231,-0.029857993,0.0059277713,-0.0076379776,3.5589844E-6,3.5589844E-6,0.0
1052.4381,412.6233,14322336,0.65000004,0.09574468,1088.39,187.09882,-0.00788641,0.004742205,-0.022110939,0.0,0.0,0.0
1053.135,412.14185,14322344,0.4375,0.12765957,1185.1975,199.90132,-0.00788641,0.004742205,-0.022110939,0.0,0.0,0.0
1053.135,412.14185,14322350,0.4375,0.12765957,1185.1975,199.90132,-0.00788641,0.004742205,-0.022110939,0.0,0.0,0.0
979.15906,375.71326,14322487,0.725,0.09574468,0.0,0.0,-0.00788641,0.004742205,-0.022110939,0.0,0.0,0.0
979.15906,375.71326,14322503,0.7375,0.09574468,0.0,0.0,-0.00788641,0.004742205,-0.022110939,0.0,0.0,0.0
979.15906,375.71326,14322520,0.7,0.07446808,-0.011962852,-0.0051126597,-0.00788641,0.004742205,-0.022110939,0.0,0.0,0.0
1014.46497,376.60168,14322537,0.6875,0.08510638,2235.3853,58.642544,-0.00788641,0.004742205,-0.022110939,3.6294656E-5,2.4196437E-5,0.0
1065.8848,371.6422,14322554,0.275,0.08510638,3617.917,-203.44812,-0.00788641,0.004742205,-0.022110939,3.6294656E-5,2.4196437E-5,0.0
1065.8848,371.6422,14322560,0.275,0.08510638,3617.917,-203.44812,-0.00788641,0.004742205,-0.022110939,3.6294656E-5,2.4196437E-5,0.0
