x,y,timestamp,pressure,fingerarea,velocityx,velocityy,accelx,accely,accelz,gyrox,gyroy,gyroz
356.36185,134.92883,8763117,0.75,0.10638297,0.0,0.0,-0.014622517,-0.02518192,-0.059256554,0.0,0.0,0.0
356.36185,134.92883,8763135,0.7625,0.10638297,0.08848105,0.03335035,-0.014622517,-0.02518192,-0.059256554,0.0,0.0,0.0
356.36185,134.92883,8763152,0.8125,0.09574468,-0.013781563,-0.005567875,-0.014622517,-0.02518192,-0.059256554,0.0,0.0,0.0
346.7119,149.83398,8763169,0.825,0.08510638,-563.6539,867.1415,-0.014622517,-0.02518192,-0.059256554,0.0,0.0,0.0
335.57104,168.87769,8763185,0.83750004,0.12765957,-864.0803,1393.1014,-0.014622517,-0.02518192,-0.059256554,0.0,0.0,0.0
327.00208,189.20984,8763202,0.8625,0.12765957,-906.74384,1701.288,-0.014622517,-0.02518192,-0.059256554,0.0,0.0,0.0
319.33932,210.11499,8763219,0.8875,0.09574468,-726.8234,1691.149,-0.014622517,-0.02518192,-0.059256554,0.0,0.0,0.0
309.35452,234.79102,8763235,0.8625,0.12765957,-538.6382,1582.2087,-0.014622517,-0.02518192,-0.059256554,0.0,0.0,0.0
296.48972,265.92578,8763252,0.875,0.08510638,-552.43805,1675.951,-0.014622517,-0.02518192,-0.059256554,0.0,0.0,0.0
281.3766,297.5453,8763269,0.83750004,0.10638297,-855.3529,2013.63,-0.014622517,-0.02518192,-0.059256554,0.0,0.0,0.0
264.84845,333.469,8763286,0.825,0.12765957,-1071.3284,2267.6318,-0.014622517,-0.02518192,-0.059256554,0.0,0.0,0.0
247.38339,369.10474,8763302,0.825,0.08510638,-1183.751,2376.849,-0.014622517,-0.02518192,-0.059256554,0.0,0.0,0.0
224.15207,410.1693,8763319,0.8,0.10638297,-1288.3384,2396.7532,-0.014622517,-0.02518192,-0.059256554,0.0,0.0,0.0
213.5101,425.83374,8763336,0.8,0.09574468,-1142.1074,1891.4424,-0.014622517,-0.02518192,-0.059256554,0.0,0.0,0.0
197.87173,449.0703,8763352,0.825,0.10638297,-985.9867,1405.7509,-0.014622517,-0.02518192,-0.059256554,0.0,0.0,0.0
184.31966,467.03284,8763369,0.8625,0.08510638,-800.2794,900.88336,-0.014622517,-0.02518192,-0.059256554,0.0,0.0,0.0
174.69801,478.08923,8763386,0.8875,0.08510638,-633.49164,610.24066,-0.014622517,-0.02518192,-0.059256554,0.0,0.0,0.0
169.47577,482.00598,8763403,0.9375,0.08510638,-367.17267,184.28372,-0.011698015,-0.028145522,-0.047405243,0.0,0.0,0.0
166.71245,483.22217,8763419,0.95,0.08510638,-32.504704,-267.7012,-0.011698015,-0.028145522,-0.047405243,0.0,0.0,0.0
164.6526,483.22217,8763436,0.975,0.08510638,138.45241,-428.33606,-0.011698015,-0.028145522,-0.047405243,0.0,0.0,0.0
163.49675,482.4618,8763453,0.9875,0.08510638,114.2764,-332.46313,-0.011698015,-0.028145522,-0.047405243,0.0,0.0,0.0
161.98029,478.92664,8763469,0.96250004,0.10638297,51.545612,-268.84796,-0.011698015,-0.028145522,-0.047405243,0.0,0.0,0.0
160.92548,467.9812,8763486,0.96250004,0.12765957,-30.838587,-496.12018,-0.011698015,-0.028145522,-0.047405243,0.0,0.0,0.0
162.53114,455.01794,8763503,0.95,0.10638297,28.589182,-842.67334,-0.011698015,-0.028145522,-0.047405243,0.0,0.0,0.0
166.30258,440.1161,8763520,0.95,0.08510638,174.14113,-1107.1815,-0.011698015,-0.028145522,-0.047405243,0.0,0.0,0.0
170.52225,428.313,8763536,0.96250004,0.09574468,316.8952,-1082.5345,-0.011698015,-0.028145522,-0.047405243,0.0,0.0,0.0
173.0618,423.4431,8763553,0.975,0.09574468,334.846,-690.2804,-0.011698015,-0.028145522,-0.047405243,0.0,0.0,0.0
176.74689,418.14832,8763570,0.96250004,0.10638297,278.44073,-292.3075,-0.011698015,-0.028145522,-0.047405243,0.0,0.0,0.0
181.15784,413.92676,8763586,0.975,0.12765957,232.23045,-63.686283,-0.011698015,-0.028145522,-0.047405243,0.0,0.0,0.0
186.59137,410.75757,8763603,0.96250004,0.12765957,295.63596,-63.463528,-0.011698015,-0.028145522,-0.047405243,0.0,0.0,0.0
192.55646,409.47632,8763620,0.925,0.12765957,389.73425,-73.38423,-0.011698015,-0.028145522,-0.047405243,0.0,0.0,0.0
198.9407,409.47632,8763636,0.925,0.12765957,413.05737,38.86272,-0.011698015,-0.028145522,-0.047405243,0.0,0.0,0.0
205.12933,410.85767,8763653,0.925,0.10638297,419.02832,139.71614,-0.011698015,-0.028145522,-0.047405243,0.0,0.0,0.0
215.34183,413.71765,8763670,0.9125,0.09574468,497.39056,211.56412,-0.011698015,-0.028145522,-0.047405243,0.0,0.0,0.0
226.18512,419.99683,8763687,0.90000004,0.08510638,635.025,336.7285,-0.011698015,-0.028145522,-0.047405243,0.0,0.0,0.0
237.64859,428.33533,8763703,0.875,0.08510638,776.3097,528.6302,-0.011698015,-0.028145522,-0.047405243,0.0,0.0,0.0
247.82407,437.39917,8763720,0.875,0.11702127,773.4037,670.7653,-0.011698015,-0.028145522,-0.047405243,0.0,0.0,0.0
258.3549,445.7755,8763737,0.8625,0.12765957,704.7061,690.9609,-0.011698015,-0.028145522,-0.047405243,1.1744049E-5,0.0,0.0
271.13635,454.14185,8763753,0.8625,0.10638297,673.7866,599.4704,-0.011698015,-0.028145522,-0.047405243,1.1744049E-5,0.0,0.0
285.21133,462.5548,8763770,0.8625,0.09574468,763.29724,516.6603,-0.011698015,-0.028145522,-0.047405243,1.1744049E-5,0.0,0.0
295.87103,468.40747,8763787,0.8875,0.10638297,809.6909,408.60632,-0.011698015,-0.028145522,-0.047405243,1.1744049E-5,0.0,0.0
305.3707,472.55737,8763804,0.90000004,0.09574468,688.87134,292.0405,-0.011698015,-0.028145522,-0.047405243,0.0,0.0,0.0
314.4825,476.255,8763820,0.8875,0.08510638,529.3243,167.36789,-0.011698015,-0.028145522,-0.047405243,0.0,0.0,0.0
323.77213,478.9895,8763837,0.8875,0.08510638,437.32983,80.54591,-0.011698015,-0.028145522,-0.047405243,0.0,0.0,0.0
335.697,482.76514,8763854,0.83750004,0.08510638,539.5072,106.89441,-0.011698015,-0.028145522,-0.047405243,0.0,0.0,0.0
347.81723,485.7256,8763870,0.725,0.08510638,735.15576,161.34001,-0.011698015,-0.028145522,-0.047405243,-2.9360124E-6,0.0,0.0
348.36444,485.8877,8763872,0.38750002,0.11702127,733.4858,161.43819,-0.011698015,-0.028145522,-0.047405243,-2.9360124E-6,0.0,0.0
348.36444,485.8877,8763882,0.38750002,0.11702127,733.4858,161.43819,-0.011698015,-0.028145522,-0.047405243,-2.9360124E-6,0.0,0.0
438.835,382.8213,8764219,0.8125,0.08510638,0.0,0.0,-0.025358412,-0.014516413,-0.08592415,0.0,0.0,0.0
438.835,382.8213,8764238,0.8625,0.08510638,0.036204733,0.036496397,-0.025358412,-0.014516413,-0.08592415,0.0,0.0,0.0
438.835,382.8213,8764255,0.8875,0.08510638,-0.007460211,-0.007887916,-0.025358412,-0.014516413,-0.08592415,0.0,0.0,0.0
438.835,382.8213,8764271,0.90000004,0.09574468,-0.008074433,-0.008043203,-0.025358412,-0.014516413,-0.08592415,0.0,0.0,0.0
438.835,382.8213,8764288,0.90000004,0.09574468,0.016579669,0.014829602,-0.025358412,-0.014516413,-0.08592415,0.0,0.0,0.0
438.835,382.8213,8764304,0.925,0.09574468,-0.009378794,-0.008837705,-0.025358412,-0.014516413,-0.08592415,0.0,0.0,0.0
438.835,382.8213,8764322,0.9125,0.09574468,0.037974223,0.03104859,-0.025358412,-0.014516413,-0.08592415,0.0,0.0,0.0
418.05374,386.26025,8764338,0.9125,0.10638297,-566.37415,93.98773,-0.025358412,-0.014516413,-0.08592415,0.0,0.0,0.0
409.0287,388.10547,8764355,0.9125,0.09574468,-1013.66254,174.9984,-0.025358412,-0.014516413,-0.08592415,0.0,0.0,0.0
402.7636,390.8473,8764372,0.9125,0.10638297,-899.7624,214.20578,-0.025358412,-0.014516413,-0.08592415,0.0,0.0,0.0
397.26413,393.53333,8764388,0.90000004,0.10638297,-536.24457,201.8205,-0.025358412,-0.014516413,-0.08592415,0.0,0.0,0.0
391.7018,398.6172,8764405,0.8875,0.12765957,-42.184135,220.37439,-0.025358412,-0.014516413,-0.08592415,0.0,0.0,0.0
386.19012,407.09875,8764422,0.8875,0.10638297,-94.479546,371.4863,-0.025358412,-0.014516413,-0.08592415,0.0,0.0,0.0
380.78995,417.90173,8764439,0.8625,0.08510638,-285.4771,641.3424,-0.025358412,-0.014516413,-0.08592415,0.0,0.0,0.0
375.6659,432.40588,8764455,0.85,0.09574468,-325.4151,914.3529,-0.025358412,-0.014516413,-0.08592415,0.0,0.0,0.0
372.6316,444.03906,8764472,0.8625,0.12765957,-249.98813,999.09924,0.01171327,0.004386872,-0.0047397614,0.0,0.0,0.0
370.61075,455.19006,8764489,0.85,0.12765957,-143.80804,852.90125,0.01171327,0.004386872,-0.0047397614,0.0,0.0,0.0
370.3573,468.0746,8764505,0.85,0.09574468,0.005375509,731.4131,0.01171327,0.004386872,-0.0047397614,0.0,0.0,0.0
370.7178,478.4298,8764522,0.83750004,0.09574468,88.61171,654.4217,0.01171327,0.004386872,-0.0047397614,0.0,0.0,0.0
373.90463,487.55017,8764539,0.83750004,0.08510638,191.012,567.1663,0.01171327,0.004386872,-0.0047397614,0.0,0.0,0.0
377.53,492.64917,8764556,0.83750004,0.10638297,286.22922,379.19046,0.01171327,0.004386872,-0.0047397614,0.0,0.0,0.0
385.22256,498.2401,8764572,0.83750004,0.10638297,420.3681,212.78177,0.01171327,0.004386872,-0.0047397614,0.0,0.0,0.0
395.18558,503.82068,8764589,0.85,0.10638297,624.30786,194.58932,0.01171327,0.004386872,-0.0047397614,0.0,0.0,0.0
403.91638,506.44983,8764606,0.85,0.12765957,720.9658,164.11098,0.01171327,0.004386872,-0.0047397614,0.0,0.0,0.0
409.84695,506.32324,8764622,0.8625,0.12765957,611.7741,47.565723,0.01171327,0.004386872,-0.0047397614,0.0,0.0,0.0
416.46024,503.5879,8764639,0.8625,0.11702127,443.83075,-147.65521,0.01171327,0.004386872,-0.0047397614,0.0,0.0,0.0
424.62595,495.34314,8764656,0.8875,0.08510638,367.54083,-459.48422,0.01171327,0.004386872,-0.0047397614,0.0,0.0,0.0
431.59518,484.48718,8764673,0.875,0.08510638,394.20837,-763.6241,0.01171327,0.004386872,-0.0047397614,0.0,0.0,0.0
441.38043,466.24194,8764689,0.8875,0.10638297,527.0743,-1090.0701,0.01171327,0.004386872,-0.0047397614,0.0,0.0,0.0
448.2574,451.17944,8764706,0.9125,0.09574468,523.7973,-1253.8478,0.01171327,0.004386872,-0.0047397614,0.0,0.0,0.0
453.85083,436.34167,8764723,0.9125,0.08510638,422.57083,-1168.9622,0.01171327,0.004386872,-0.0047397614,0.0,0.0,0.0
456.06482,427.29822,8764739,0.90000004,0.09574468,214.41458,-840.5495,0.01171327,0.004386872,-0.0047397614,0.0,0.0,0.0
455.91803,420.6106,8764756,0.9125,0.09574468,-32.287853,-417.80716,0.01171327,0.004386872,-0.0047397614,0.0,0.0,0.0
454.8698,415.83826,8764773,0.90000004,0.10638297,-192.41107,-162.30894,0.01171327,0.004386872,-0.0047397614,0.0,0.0,0.0
453.3405,412.16003,8764790,0.9125,0.10638297,-233.23257,-36.737625,0.01171327,0.004386872,-0.0047397614,0.0,0.0,0.0
452.2926,409.4087,8764806,0.925,0.10638297,-185.59297,-39.2317,0.01171327,0.004386872,-0.0047397614,0.0,0.0,0.0
451.25488,407.5642,8764823,0.925,0.10638297,-120.9122,-45.355846,0.01171327,0.004386872,-0.0047397614,0.0,0.0,0.0
450.20795,406.8108,8764840,0.925,0.10638297,-70.56393,-13.94682,0.01171327,0.004386872,-0.0047397614,0.0,0.0,0.0
449.15405,406.8108,8764856,0.95,0.10638297,-56.915493,33.265697,0.01171327,0.004386872,-0.0047397614,0.0,0.0,0.0
448.09674,408.11743,8764873,0.8875,0.09574468,-54.951015,96.203,0.01171327,0.004386872,-0.0047397614,0.0,0.0,0.0
448.3319,412.90234,8764890,0.85,0.08510638,-25.930363,227.26329,0.01171327,0.004386872,-0.0047397614,0.0,0.0,0.0
449.3802,423.06323,8764906,0.83750004,0.08510638,35.654755,513.2538,0.01171327,0.004386872,-0.0047397614,0.0,0.0,0.0
451.86322,433.16565,8764923,0.825,0.08510638,138.72626,767.70416,0.01171327,0.004386872,-0.0047397614,0.0,0.0,0.0
454.87305,443.04565,8764940,0.83750004,0.10638297,225.61649,864.9183,0.01171327,0.004386872,-0.0047397614,0.0,0.0,0.0
458.89026,452.73352,8764957,0.825,0.10638297,281.82413,735.9677,0.01171327,0.004386872,-0.0047397614,0.0,0.0,0.0
462.9666,462.0177,8764973,0.8125,0.09574468,302.96143,584.4755,0.01171327,0.004386872,-0.0047397614,0.0,0.0,0.0
466.23315,468.84094,8764990,0.85,0.08510638,275.5315,476.09213,0.01171327,0.004386872,-0.0047397614,0.0,0.0,0.0
469.19836,474.11182,8765007,0.825,0.09574468,215.00748,340.76382,-0.038629383,0.0035094917,-0.003791809,0.0,0.0,0.0
474.03564,479.8943,8765023,0.83750004,0.09574468,219.68283,261.74762,-0.038629383,0.0035094917,-0.003791809,0.0,0.0,0.0
479.82825,486.42773,8765040,0.83750004,0.08510638,296.16452,263.41623,-0.038629383,0.0035094917,-0.003791809,0.0,0.0,0.0
484.49725,489.92297,8765057,0.825,0.10638297,346.59567,257.74924,-0.038629383,0.0035094917,-0.003791809,0.0,0.0,0.0
488.44922,493.55566,8765074,0.83750004,0.09574468,333.56485,229.6635,-0.038629383,0.0035094917,-0.003791809,0.0,0.0,0.0
493.10126,496.89795,8765090,0.85,0.09574468,279.53033,164.28888,-0.038629383,0.0035094917,-0.003791809,0.0,0.0,0.0
497.24982,498.74158,8765107,0.85,0.09574468,236.2023,98.357285,-0.038629383,0.0035094917,-0.003791809,0.0,0.0,0.0
500.36243,500.10364,8765124,0.85,0.10638297,216.2438,71.93283,-0.038629383,0.0035094917,-0.003791809,0.0,0.0,0.0
502.4273,500.10364,8765140,0.85,0.10638297,142.80733,-9.708639,-0.038629383,0.0035094917,-0.003791809,0.0,0.0,0.0
503.97803,500.10364,8765157,0.83750004,0.09574468,62.7424,-62.38731,-0.038629383,0.0035094917,-0.003791809,0.0,0.0,0.0
506.0783,500.10364,8765174,0.825,0.09574468,43.31809,-63.02433,-0.038629383,0.0035094917,-0.003791809,0.0,0.0,0.0
508.15533,500.10364,8765191,0.825,0.09574468,75.66116,-40.70978,-0.038629383,0.0035094917,-0.003791809,0.0,0.0,0.0
510.6964,499.28345,8765207,0.8,0.09574468,128.89351,-24.802513,-0.038629383,0.0035094917,-0.003791809,0.0,0.0,0.0
516.44855,494.6494,8765224,0.8125,0.08510638,242.3247,-149.54607,-0.038629383,0.0035094917,-0.003791809,0.0,0.0,0.0
525.7532,482.52783,8765241,0.8125,0.11702127,478.53873,-520.66046,-0.038629383,0.0035094917,-0.003791809,0.0,0.0,0.0
535.71704,466.6565,8765257,0.83750004,0.12765957,686.03656,-975.6614,-0.038629383,0.0035094917,-0.003791809,0.0,0.0,0.0
549.71246,438.9812,8765274,0.8625,0.08510638,862.8358,-1515.2871,-0.038629383,0.0035094917,-0.003791809,0.0,0.0,0.0
558.43207,417.91785,8765291,0.8625,0.10638297,852.10034,-1833.575,-0.038629383,0.0035094917,-0.003791809,0.0,0.0,0.0
565.4706,395.0044,8765308,0.875,0.08510638,636.26373,-1797.2875,-0.038629383,0.0035094917,-0.003791809,0.0,0.0,0.0
570.5427,369.48938,8765324,0.8875,0.10638297,362.8577,-1673.3573,-0.038629383,0.0035094917,-0.003791809,0.0,0.0,0.0
573.6357,346.49658,8765341,0.9125,0.10638297,106.02739,-1476.0872,-0.038629383,0.0035094917,-0.003791809,0.0,0.0,0.0
576.0887,321.3722,8765358,0.90000004,0.08510638,1.2567792,-1429.2728,-0.038629383,0.0035094917,-0.003791809,0.0,0.0,0.0
576.2903,300.83728,8765374,0.9125,0.12765957,-44.62032,-1363.3895,-0.038629383,0.0035094917,-0.003791809,0.0,0.0,0.0
576.7901,279.2693,8765391,0.9125,0.08510638,-79.45084,-1188.7423,-0.038629383,0.0035094917,-0.003791809,0.0,0.0,0.0
574.9206,259.46924,8765408,0.8875,0.10638297,-112.54164,-1181.4926,-0.038629383,0.0035094917,-0.003791809,0.0,0.0,0.0
572.82715,241.83508,8765425,0.90000004,0.12765957,-185.10013,-1062.5911,-0.038629383,0.0035094917,-0.003791809,0.0,0.0,0.0
569.71216,226.01697,8765441,0.90000004,0.08510638,-224.31966,-934.1993,-0.038629383,0.0035094917,-0.003791809,0.0,0.0,0.0
565.5232,212.27588,8765458,0.9125,0.08510638,-279.87247,-801.3701,-0.038629383,0.0035094917,-0.003791809,0.0,0.0,0.0
561.9623,204.3324,8765475,0.90000004,0.10638297,-293.25354,-542.4294,-0.038629383,0.0035094917,-0.003791809,0.0,0.0,0.0
558.3381,199.24695,8765491,0.9125,0.12765957,-269.9162,-297.74054,-0.038629383,0.0035094917,-0.003791809,0.0,0.0,0.0
555.163,194.22021,8765508,0.90000004,0.12765957,-229.30635,-84.99535,-0.038629383,0.0035094917,-0.003791809,0.0,0.0,0.0
552.36084,191.40454,8765525,0.8875,0.12765957,-177.75085,9.048993,-0.038629383,0.0035094917,-0.003791809,0.0,0.0,0.0
550.01965,189.55457,8765541,0.875,0.12765957,-136.13388,-30.501873,0.0010964945,-0.013192415,-0.003033638,0.0,0.0,0.0
547.4072,189.12756,8765558,0.8625,0.12765957,-126.62221,1.9313518,0.0010964945,-0.013192415,-0.003033638,0.0,0.0,0.0
544.786,190.9303,8765575,0.83750004,0.11702127,-135.2999,95.08054,0.0010964945,-0.013192415,-0.003033638,0.0,0.0,0.0
540.42535,203.12646,8765592,0.875,0.09574468,-188.78423,460.8636,0.0010964945,-0.013192415,-0.003033638,0.0,0.0,0.0
537.0838,220.50537,8765608,0.8625,0.11702127,-246.35976,1027.4054,0.0010964945,-0.013192415,-0.003033638,0.0,0.0,0.0
534.85596,238.84436,8765625,0.85,0.12765957,-223.90346,1438.213,0.0010964945,-0.013192415,-0.003033638,0.0,0.0,0.0
534.3039,260.0487,8765642,0.8625,0.09574468,-114.27339,1603.9955,0.0010964945,-0.013192415,-0.003033638,0.0,0.0,0.0
534.3039,280.29736,8765658,0.83750004,0.12765957,26.885876,1518.8751,0.0010964945,-0.013192415,-0.003033638,0.0,0.0,0.0
535.33215,299.91138,8765675,0.83750004,0.09574468,115.92376,1329.9058,0.0010964945,-0.013192415,-0.003033638,0.0,0.0,0.0
537.64996,324.18762,8765692,0.8125,0.09574468,162.28822,1356.5112,0.0010964945,-0.013192415,-0.003033638,0.0,0.0,0.0
537.8028,342.24597,8765709,0.8,0.12765957,140.91211,1266.1598,0.0010964945,-0.013192415,-0.003033638,0.0,0.0,0.0
540.0248,366.64258,8765725,0.8,0.09574468,132.63333,1294.064,0.0010964945,-0.013192415,-0.003033638,0.0,0.0,0.0
540.8018,384.28528,8765742,0.8,0.10638297,86.264694,1284.7383,0.0010964945,-0.013192415,-0.003033638,0.0,0.0,0.0
541.80475,401.95593,8765759,0.8,0.12765957,46.312435,1091.3878,0.0010964945,-0.013192415,-0.003033638,0.0,0.0,0.0
542.60516,419.6682,8765775,0.8125,0.08510638,41.644638,1034.0264,0.0010964945,-0.013192415,-0.003033638,0.0,0.0,0.0
542.80115,436.61,8765792,0.8125,0.08510638,18.390673,931.06964,0.0010964945,-0.013192415,-0.003033638,0.0,0.0,0.0
543.1845,448.21655,8765809,0.8125,0.12765957,8.25548,797.76495,0.0010964945,-0.013192415,-0.003033638,0.0,0.0,0.0
544.6372,461.02734,8765826,0.825,0.10638297,27.05552,659.7179,0.0010964945,-0.013192415,-0.003033638,0.0,0.0,0.0
545.75305,472.86218,8765842,0.825,0.08510638,65.44228,549.5521,0.0010964945,-0.013192415,-0.003033638,0.0,0.0,0.0
546.7991,484.10205,8765859,0.8125,0.08510638,98.66142,578.7342,0.0010964945,-0.013192415,-0.003033638,0.0,0.0,0.0
547.8373,492.37585,8765876,0.8125,0.10638297,86.078415,554.271,0.0010964945,-0.013192415,-0.003033638,0.0,0.0,0.0
549.3845,500.71143,8765892,0.8,0.10638297,78.11022,474.38226,0.0010964945,-0.013192415,-0.003033638,0.0,0.0,0.0
549.91516,510.9104,8765909,0.8,0.09574468,59.31496,454.60672,0.0010964945,-0.013192415,-0.003033638,0.0,0.0,0.0
550.7985,520.3862,8765926,0.8,0.08510638,50.949066,498.8863,0.0010964945,-0.013192415,-0.003033638,0.0,0.0,0.0
550.7985,530.8165,8765943,0.7875,0.08510638,16.436726,602.9376,0.0010964945,-0.013192415,-0.003033638,0.0,0.0,0.0
550.7985,539.0897,8765959,0.7875,0.08510638,-19.194319,596.30884,0.0010964945,-0.013192415,-0.003033638,0.0,0.0,0.0
550.7985,545.114,8765976,0.77500004,0.08510638,-19.864683,445.93546,0.0010964945,-0.013192415,-0.003033638,0.0,0.0,0.0
550.2987,549.7604,8765993,0.77500004,0.09574468,-32.656216,272.72845,0.0010964945,-0.013192415,-0.003033638,0.0,0.0,0.0
549.94464,553.7842,8766009,0.7625,0.10638297,-30.84834,143.39302,0.0010964945,-0.013192415,-0.003033638,0.0,0.0,0.0
549.7989,556.7654,8766026,0.75,0.10638297,-29.699875,104.40781,0.0010964945,-0.013192415,-0.003033638,0.0,0.0,0.0
549.7989,558.3008,8766042,0.75,0.10638297,-17.216835,62.57114,0.0010964945,-0.013192415,-0.003033638,0.0,0.0,0.0
549.7989,559.0925,8766060,0.7375,0.10638297,4.3128715,12.912167,0.0010964945,-0.013192415,-0.003033638,0.0,0.0,0.0
549.7989,558.7449,8766076,0.7625,0.10638297,10.688537,-58.736053,0.016877197,0.02144605,-0.0024271011,0.0,0.0,0.0
549.7989,558.7449,8766093,0.7625,0.10638297,7.9834065,-76.65263,0.016877197,0.02144605,-0.0024271011,0.0,0.0,0.0
549.7989,557.70374,8766110,0.7625,0.09574468,-0.006686817,-79.07043,0.016877197,0.02144605,-0.0024271011,0.0,0.0,0.0
554.4337,547.67896,8766126,0.8,0.08510638,117.74182,-320.24286,0.016877197,0.02144605,-0.0024271011,0.0,0.0,0.0
560.04034,528.2894,8766143,0.825,0.10638297,348.00156,-991.6076,0.016877197,0.02144605,-0.0024271011,0.0,0.0,0.0
564.81525,509.80164,8766160,0.8625,0.09574468,452.26132,-1480.0033,0.016877197,0.02144605,-0.0024271011,0.0,0.0,0.0
569.2804,489.54944,8766176,0.8875,0.08510638,423.8984,-1629.5583,0.016877197,0.02144605,-0.0024271011,0.0,0.0,0.0
571.6441,472.96375,8766193,0.8875,0.12765957,234.92467,-1377.5399,0.016877197,0.02144605,-0.0024271011,0.0,0.0,0.0
574.2534,458.79565,8766210,0.90000004,0.12765957,93.75468,-973.9385,0.016877197,0.02144605,-0.0024271011,0.0,0.0,0.0
577.3653,445.25183,8766227,0.90000004,0.08510638,99.35461,-759.22754,0.016877197,0.02144605,-0.0024271011,0.0,0.0,0.0
580.9495,432.8944,8766243,0.8875,0.09574468,152.6469,-632.9133,0.016877197,0.02144605,-0.0024271011,0.0,0.0,0.0
584.0653,424.21936,8766260,0.90000004,0.11702127,208.47408,-523.6262,0.016877197,0.02144605,-0.0024271011,0.0,0.0,0.0
585.7617,418.4519,8766277,0.8875,0.11702127,179.38826,-380.34256,0.016877197,0.02144605,-0.0024271011,0.0,0.0,0.0
587.82764,414.73425,8766293,0.8875,0.12765957,112.03762,-152.27177,0.016877197,0.02144605,-0.0024271011,0.0,0.0,0.0
591.506,411.05737,8766310,0.90000004,0.12765957,126.00302,-34.01941,0.016877197,0.02144605,-0.0024271011,0.0,0.0,0.0
596.24774,407.36963,8766327,0.90000004,0.12765957,219.69133,-59.217896,0.016877197,0.02144605,-0.0024271011,0.0,0.0,0.0
600.1672,405.69446,8766344,0.9125,0.12765957,299.91818,-82.98167,0.016877197,0.02144605,-0.0024271011,0.0,0.0,0.0
602.79254,405.0338,8766360,0.90000004,0.10638297,277.1899,-54.478367,0.016877197,0.02144605,-0.0024271011,0.0,0.0,0.0
605.2065,405.0338,8766377,0.8875,0.10638297,182.54884,26.761278,0.016877197,0.02144605,-0.0024271011,0.0,0.0,0.0
607.2865,406.3722,8766394,0.8625,0.09574468,81.29233,115.275604,0.016877197,0.02144605,-0.0024271011,0.0,0.0,0.0
609.6531,408.73438,8766410,0.85,0.09574468,79.304184,169.5122,0.016877197,0.02144605,-0.0024271011,0.0,0.0,0.0
612.5914,414.75305,8766427,0.83750004,0.08510638,128.77739,286.15005,0.016877197,0.02144605,-0.0024271011,0.0,0.0,0.0
615.1436,425.8175,8766444,0.8125,0.08510638,175.80388,574.6094,0.016877197,0.02144605,-0.0024271011,0.0,0.0,0.0
613.59607,437.47852,8766461,0.8125,0.09574468,79.30204,833.6674,0.016877197,0.02144605,-0.0024271011,0.0,0.0,0.0
609.06964,452.97363,8766477,0.8,0.10638297,-168.6671,1025.7426,0.016877197,0.02144605,-0.0024271011,0.0,0.0,0.0
600.8944,471.4502,8766494,0.7875,0.08510638,-479.0131,1190.0876,0.016877197,0.02144605,-0.0024271011,0.0,0.0,0.0
590.4804,487.15576,8766511,0.75,0.10638297,-753.2074,1206.8604,0.016877197,0.02144605,-0.0024271011,0.0,0.0,0.0
574.7724,504.7887,8766527,0.75,0.10638297,-986.5418,1175.8905,0.016877197,0.02144605,-0.0024271011,0.0,0.0,0.0
562.6993,517.2648,8766544,0.75,0.08510638,-1046.513,976.4346,0.016877197,0.02144605,-0.0024271011,0.0,0.0,0.0
554.9513,521.67834,8766561,0.7875,0.08510638,-836.75366,531.3435,0.016877197,0.02144605,-0.0024271011,0.0,0.0,0.0
549.5634,522.3163,8766578,0.8,0.08510638,-467.92743,39.834003,0.016877197,0.02144605,-0.0024271011,0.0,0.0,0.0
546.3485,521.91516,8766594,0.8125,0.11702127,-62.229195,-339.97104,0.016877197,0.02144605,-0.0024271011,0.0,0.0,0.0
545.0463,520.08777,8766611,0.825,0.12765957,74.270836,-409.88156,-0.0024982393,-0.014843136,-0.0019416809,0.0,0.0,0.0
544.30066,516.8242,8766628,0.825,0.12765957,87.51189,-325.9179,-0.0024982393,-0.014843136,-0.0019416809,0.0,0.0,0.0
545.93713,512.2992,8766644,0.83750004,0.12765957,139.92545,-322.2347,-0.0024982393,-0.014843136,-0.0019416809,0.0,0.0,0.0
550.5381,506.71472,8766661,0.8625,0.09574468,256.45697,-379.60962,-0.0024982393,-0.014843136,-0.0019416809,0.0,0.0,0.0
557.80035,500.5442,8766678,0.83750004,0.08510638,454.47168,-440.95416,-0.0024982393,-0.014843136,-0.0019416809,0.0,0.0,0.0
564.5439,495.80933,8766695,0.85,0.08510638,585.8617,-419.5269,-0.0024982393,-0.014843136,-0.0019416809,0.0,0.0,0.0
569.26666,492.13025,8766711,0.8625,0.08510638,533.41156,-307.5025,-0.0024982393,-0.014843136,-0.0019416809,0.0,0.0,0.0
572.9043,490.2633,8766728,0.8875,0.08510638,319.03317,-148.52635,-0.0024982393,-0.014843136,-0.0019416809,0.0,0.0,0.0
575.4481,489.44165,8766745,0.8875,0.09574468,139.86655,-18.372112,-0.0024982393,-0.014843136,-0.0019416809,0.0,0.0,0.0
577.6225,489.44165,8766761,0.90000004,0.09574468,51.33936,61.302,-0.0024982393,-0.014843136,-0.0019416809,0.0,0.0,0.0
580.08545,489.44165,8766778,0.9125,0.09574468,58.558792,85.90496,-0.0024982393,-0.014843136,-0.0019416809,0.0,0.0,0.0
582.1686,490.66797,8766795,0.925,0.11702127,87.35904,100.15349,-0.0024982393,-0.014843136,-0.0019416809,0.0,0.0,0.0
584.25055,492.51843,8766811,0.9125,0.11702127,116.59398,125.37193,-0.0024982393,-0.014843136,-0.0019416809,0.0,0.0,0.0
587.5874,494.35852,8766828,0.8875,0.11702127,153.42632,150.52301,-0.0024982393,-0.014843136,-0.0019416809,0.0,0.0,0.0
591.51605,497.09644,8766845,0.8875,0.10638297,212.21207,186.90372,-0.0024982393,-0.014843136,-0.0019416809,0.0,0.0,0.0
596.5056,499.82715,8766862,0.875,0.12765957,299.56796,195.67612,-0.0024982393,-0.014843136,-0.0019416809,0.0,0.0,0.0
601.6707,503.22327,8766878,0.8875,0.10638297,356.6447,201.09152,-0.0024982393,-0.014843136,-0.0019416809,0.0,0.0,0.0
608.7267,506.15942,8766895,0.875,0.10638297,413.1765,218.89925,-0.0024982393,-0.014843136,-0.0019416809,0.0,0.0,0.0
615.05273,508.9088,8766912,0.875,0.10638297,447.17883,197.8174,-0.0024982393,-0.014843136,-0.0019416809,0.0,0.0,0.0
621.2943,510.77234,8766928,0.875,0.12765957,437.03424,141.64328,-0.0024982393,-0.014843136,-0.0019416809,0.0,0.0,0.0
627.0175,512.615,8766945,0.875,0.12765957,384.63275,95.58107,-0.0024982393,-0.014843136,-0.0019416809,0.0,0.0,0.0
631.60583,514.4679,8766962,0.8625,0.12765957,307.6353,74.61118,-0.0024982393,-0.014843136,-0.0019416809,0.0,0.0,0.0
635.25116,515.4215,8766979,0.85,0.12765957,220.39087,64.178795,-0.0024982393,-0.014843136,-0.0019416809,0.0,0.0,0.0
639.90027,517.2655,8766995,0.85,0.11702127,200.18355,68.214745,-0.0024982393,-0.014843136,-0.0019416809,0.0,0.0,0.0
644.058,518.7622,8767012,0.85,0.11702127,209.10463,83.22823,-0.0024982393,-0.014843136,-0.0019416809,0.0,0.0,0.0
648.2028,520.0665,8767029,0.8,0.10638297,240.63446,79.07202,-0.0024982393,-0.014843136,-0.0019416809,0.0,0.0,0.0
652.9085,521.0259,8767045,0.8,0.09574468,266.15842,71.190704,-0.0024982393,-0.014843136,-0.0019416809,0.0,0.0,0.0
662.3278,522.8788,8767062,0.7,0.09574468,376.75262,75.648895,-0.0024982393,-0.014843136,-0.0019416809,0.0,0.0,0.0
668.2603,523.2047,8767073,0.3,0.12765957,513.52,68.03302,-0.0024982393,-0.014843136,-0.0019416809,0.0,0.0,0.0
668.2603,523.2047,8767080,0.3,0.12765957,513.52,68.03302,-0.0024982393,-0.014843136,-0.0019416809,0.0,0.0,0.0
742.2362,400.5913,8767364,0.875,0.12765957,0.0,0.0,-0.03399859,-0.011874497,0.014447212,0.0,0.0,0.0
742.2362,400.5913,8767396,0.8875,0.12765957,-0.0018406153,-8.416647E-4,-0.03399859,-0.011874497,0.014447212,0.0,0.0,0.0
742.2362,400.5913,8767408,0.9125,0.12765957,0.036775112,0.019819863,-0.03399859,-0.011874497,0.014447212,0.0,0.0,0.0
742.2362,400.5913,8767430,0.90000004,0.12765957,0.007527274,0.0030828903,-0.03399859,-0.011874497,0.014447212,0.0,0.0,0.0
742.2362,400.5913,8767440,0.90000004,0.10638297,0.019184072,0.012638095,-0.03399859,-0.011874497,0.014447212,0.0,0.0,0.0
742.2362,400.5913,8767463,0.90000004,0.12765957,-0.015603649,-0.0083960015,-0.03399859,-0.011874497,0.014447212,0.0,0.0,0.0
735.0221,403.31152,8767480,0.90000004,0.12765957,-118.30358,44.526592,-0.03399859,-0.011874497,0.014447212,0.0,0.0,0.0
719.9535,409.4967,8767497,0.875,0.10638297,-764.4155,300.70343,-0.03399859,-0.011874497,0.014447212,0.0,0.0,0.0
714.26263,413.19568,8767513,0.85,0.09574468,-929.7984,414.59103,-0.03399859,-0.011874497,0.014447212,0.0,0.0,0.0
709.957,416.8418,8767530,0.85,0.09574468,-666.928,375.66522,-0.03399859,-0.011874497,0.014447212,0.0,0.0,0.0
704.6447,424.10425,8767547,0.83750004,0.09574468,-130.47858,295.11255,-0.03399859,-0.011874497,0.014447212,0.0,0.0,0.0
698.68475,434.47107,8767563,0.83750004,0.09574468,-64.100746,474.53665,-0.03399859,-0.011874497,0.014447212,0.0,0.0,0.0
693.6189,441.79224,8767580,0.83750004,0.10638297,-296.37027,638.04315,-0.03399859,-0.011874497,0.014447212,0.0,0.0,0.0
687.7944,452.92688,8767597,0.8625,0.12765957,-359.6404,708.7252,-0.03399859,-0.011874497,0.014447212,0.0,0.0,0.0
683.68176,463.87097,8767614,0.8625,0.08510638,-313.708,720.93805,-0.03399859,-0.011874497,0.014447212,0.0,0.0,0.0
680.03143,476.0254,8767630,0.85,0.08510638,-231.74802,737.77,-0.03399859,-0.011874497,0.014447212,0.0,0.0,0.0
677.4081,487.12878,8767647,0.85,0.08510638,-158.80603,768.5621,-0.03399859,-0.011874497,0.014447212,0.0,0.0,0.0
677.2574,495.79932,8767664,0.83750004,0.10638297,-38.067238,667.7339,-0.03399859,-0.011874497,0.014447212,0.0,0.0,0.0
678.1279,503.52808,8767680,0.8125,0.10638297,70.86453,489.78528,0.004801128,0.006500423,0.011557579,0.0,0.0,0.0
680.9386,511.08984,8767697,0.8125,0.10638297,202.22119,373.13773,0.004801128,0.006500423,0.011557579,0.0,0.0,0.0
683.5084,514.32336,8767714,0.8,0.10638297,266.6874,239.71848,0.004801128,0.006500423,0.011557579,0.0,0.0,0.0
687.76086,518.0563,8767731,0.7875,0.11702127,295.65256,130.59433,0.004801128,0.006500423,0.011557579,0.0,0.0,0.0
692.8167,520.2622,8767747,0.8,0.11702127,330.44696,62.37432,0.004801128,0.006500423,0.011557579,0.0,0.0,0.0
698.1401,522.09924,8767764,0.8125,0.11702127,367.9432,9.85991,0.004801128,0.006500423,0.011557579,0.0,0.0,0.0
702.0082,522.3163,8767781,0.85,0.10638297,352.66013,9.071184,0.004801128,0.006500423,0.011557579,0.0,0.0,0.0
705.5846,520.61194,8767797,0.83750004,0.10638297,263.44424,-79.50195,0.004801128,0.006500423,0.011557579,0.0,0.0,0.0
710.615,516.2136,8767814,0.83750004,0.10638297,211.45467,-237.2767,0.004801128,0.006500423,0.011557579,0.0,0.0,0.0
721.68304,504.04846,8767831,0.83750004,0.08510638,432.77643,-576.7189,0.004801128,0.006500423,0.011557579,0.0,0.0,0.0
730.38904,490.06543,8767847,0.825,0.08510638,635.8162,-930.1708,0.004801128,0.006500423,0.011557579,0.0,0.0,0.0
738.6547,476.261,8767864,0.825,0.12765957,695.0339,-1117.1462,0.004801128,0.006500423,0.011557579,0.0,0.0,0.0
746.5664,460.49512,8767881,0.8125,0.11702127,596.8415,-1143.121,0.004801128,0.006500423,0.011557579,0.0,0.0,0.0
754.51245,440.46667,8767898,0.85,0.09574468,490.1099,-1228.4377,0.004801128,0.006500423,0.011557579,0.0,0.0,0.0
757.69965,426.10962,8767914,0.8625,0.11702127,308.08026,-1139.1316,0.004801128,0.006500423,0.011557579,0.0,0.0,0.0
758.73083,415.92004,8767931,0.85,0.12765957,86.74475,-861.49884,0.004801128,0.006500423,0.011557579,0.0,0.0,0.0
758.73083,408.68127,8767948,0.8625,0.12765957,-124.05785,-453.86526,0.004801128,0.006500423,0.011557579,0.0,0.0,0.0
758.37714,403.77637,8767964,0.875,0.12765957,-199.10846,-115.56715,0.004801128,0.006500423,0.011557579,0.0,0.0,0.0
758.231,401.67102,8767981,0.8875,0.12765957,-125.24855,-0.2890237,0.004801128,0.006500423,0.011557579,0.0,0.0,0.0
757.30237,399.82898,8767998,0.8875,0.12765957,-80.21637,74.39332,0.004801128,0.006500423,0.011557579,0.0,0.0,0.0
756.77,398.81433,8768015,0.90000004,0.12765957,-56.23452,68.39948,0.004801128,0.006500423,0.011557579,0.0,0.0,0.0
755.726,398.81433,8768031,0.90000004,0.12765957,-63.235172,62.27463,0.004801128,0.006500423,0.011557579,0.0,0.0,0.0
754.6822,398.81433,8768048,0.8625,0.12765957,-71.53581,56.855053,0.004801128,0.006500423,0.011557579,0.0,0.0,0.0
753.6471,400.74304,8768065,0.83750004,0.12765957,-75.86285,101.73447,0.004801128,0.006500423,0.011557579,0.0,0.0,0.0
753.23267,405.67883,8768081,0.825,0.11702127,-55.681858,233.73314,0.004801128,0.006500423,0.011557579,0.0,0.0,0.0
753.23267,414.70325,8768098,0.8125,0.09574468,-17.590284,455.22107,0.004801128,0.006500423,0.011557579,0.0,0.0,0.0
753.93286,424.94104,8768115,0.8,0.09574468,36.20809,697.0437,0.004801128,0.006500423,0.011557579,0.0,0.0,0.0
755.6987,435.95483,8768132,0.8,0.09574468,101.18456,847.03894,0.004801128,0.006500423,0.011557579,0.0,0.0,0.0
758.08905,444.8921,8768148,0.77500004,0.12765957,157.33792,773.3405,0.004801128,0.006500423,0.011557579,0.0,0.0,0.0
761.5215,455.56702,8768165,0.7625,0.12765957,217.33559,650.1844,0.004801128,0.006500423,0.011557579,0.0,0.0,0.0
766.17426,466.64038,8768182,0.7625,0.08510638,296.36798,615.06433,0.004801128,0.006500423,0.011557579,0.0,0.0,0.0
771.20245,477.66162,8768198,0.75,0.08510638,349.4131,651.3527,0.004801128,0.006500423,0.011557579,0.0,0.0,0.0
774.4727,482.885,8768215,0.7375,0.053191487,317.78195,551.34863,0.019840904,0.0212003,0.025245667,0.0,0.0,0.0
780.596,489.32812,8768232,0.75,0.08510638,311.4173,362.17453,0.019840904,0.0212003,0.025245667,0.0,0.0,0.0
786.827,494.885,8768249,0.75,0.10638297,362.80368,222.71082,0.019840904,0.0212003,0.025245667,0.0,0.0,0.0
792.0101,498.53284,8768265,0.75,0.12765957,376.70004,161.28397,0.019840904,0.0212003,0.025245667,0.0,0.0,0.0
796.0524,501.1405,8768282,0.7625,0.12765957,328.8827,135.57555,0.019840904,0.0212003,0.025245667,0.0,0.0,0.0
800.25793,503.00928,8768299,0.7625,0.12765957,250.07326,82.23201,0.019840904,0.0212003,0.025245667,0.0,0.0,0.0
802.8181,502.76917,8768315,0.75,0.12765957,147.00162,-32.224262,0.019840904,0.0212003,0.025245667,0.0,0.0,0.0
808.3156,500.76074,8768332,0.7375,0.10638297,174.58717,-120.97362,0.019840904,0.0212003,0.025245667,0.0,0.0,0.0
820.2211,492.54224,8768349,0.75,0.06382979,488.7673,-377.9571,0.019840904,0.0212003,0.025245667,0.0,0.0,0.0
830.40985,481.37793,8768365,0.7625,0.08510638,754.1011,-704.1043,0.019840904,0.0212003,0.025245667,0.0,0.0,0.0
839.35425,469.91736,8768382,0.75,0.10638297,820.9642,-934.2735,0.019840904,0.0212003,0.025245667,0.0,0.0,0.0
846.5534,461.04358,8768399,0.7625,0.12765957,622.8631,-888.99854,0.019840904,0.0212003,0.025245667,0.0,0.0,0.0
850.8241,452.07288,8768416,0.77500004,0.09574468,307.04276,-648.363,0.019840904,0.0212003,0.025245667,0.0,0.0,0.0
856.78534,437.28625,8768432,0.7875,0.09574468,173.20853,-599.17267,0.019840904,0.0212003,0.025245667,0.0,0.0,0.0
861.64435,423.83362,8768449,0.7875,0.09574468,193.38684,-806.7338,0.019840904,0.0212003,0.025245667,0.0,0.0,0.0
864.27405,412.70886,8768466,0.8125,0.12765957,184.23772,-868.1963,0.019840904,0.0212003,0.025245667,0.0,0.0,0.0
865.26154,403.56494,8768482,0.83750004,0.11702127,98.75438,-734.71106,0.019840904,0.0212003,0.025245667,0.0,0.0,0.0
865.1962,390.39465,8768499,0.85,0.09574468,-35.753204,-627.00836,0.019840904,0.0212003,0.025245667,0.0,0.0,0.0
865.69604,378.62378,8768516,0.85,0.09574468,-101.242134,-627.1965,0.019840904,0.0212003,0.025245667,0.0,0.0,0.0
865.1962,368.70813,8768533,0.83750004,0.11702127,-89.142166,-686.69556,0.019840904,0.0212003,0.025245667,0.0,0.0,0.0
865.1962,359.93628,8768549,0.83750004,0.12765957,-44.08486,-583.7327,0.019840904,0.0212003,0.025245667,0.0,0.0,0.0
865.1962,351.63306,8768566,0.83750004,0.12765957,-16.73575,-442.10223,0.019840904,0.0212003,0.025245667,0.0,0.0,0.0
865.1962,339.99878,8768583,0.83750004,0.09574468,-5.178967,-487.7307,0.019840904,0.0212003,0.025245667,0.0,0.0,0.0
865.1962,328.57922,8768599,0.83750004,0.09574468,9.292191,-659.26196,0.019840904,0.0212003,0.025245667,0.0,0.0,0.0
864.8168,317.2539,8768616,0.85,0.09574468,-6.7424617,-766.5336,0.019840904,0.0212003,0.025245667,0.0,0.0,0.0
863.7846,308.8119,8768633,0.85,0.12765957,-40.739166,-687.45013,0.019840904,0.0212003,0.025245667,0.0,0.0,0.0
862.7466,301.4314,8768650,0.85,0.12765957,-75.11081,-482.0309,0.019840904,0.0212003,0.025245667,0.0,0.0,0.0
862.1972,295.77478,8768666,0.85,0.12765957,-82.25774,-293.81595,0.019840904,0.0212003,0.025245667,0.0,0.0,0.0
862.1972,289.34863,8768683,0.8875,0.11702127,-35.75632,-262.86243,0.019840904,0.0212003,0.025245667,0.0,0.0,0.0
861.62384,283.80566,8768700,0.8875,0.09574468,-3.9680254,-270.32956,0.019840904,0.0212003,0.025245667,0.0,0.0,0.0
861.1975,278.26514,8768716,0.875,0.09574468,-6.9854403,-295.14633,0.019840904,0.0212003,0.025245667,0.0,0.0,0.0
861.1975,273.88977,8768733,0.8875,0.09574468,-8.75065,-280.5568,0.019840904,0.0212003,0.025245667,0.0,0.0,0.0
861.02484,269.06055,8768750,0.875,0.09574468,-8.07593,-251.67462,0.031872723,0.04896027,0.07619667,0.0,0.0,0.0
860.4695,263.43335,8768767,0.875,0.09574468,-8.4019985,-280.6598,0.031872723,0.04896027,0.07619667,0.0,0.0,0.0
859.698,257.8933,8768783,0.8875,0.11702127,-35.168816,-323.57855,0.031872723,0.04896027,0.07619667,0.0,0.0,0.0
859.698,252.33496,8768800,0.83750004,0.12765957,-41.50388,-359.47354,0.031872723,0.04896027,0.07619667,0.0,0.0,0.0
859.1982,245.9154,8768817,0.875,0.12765957,-26.793865,-384.76974,0.031872723,0.04896027,0.07619667,0.0,0.0,0.0
858.31116,241.0614,8768833,0.8875,0.12765957,-25.824272,-351.08563,0.031872723,0.04896027,0.07619667,0.0,0.0,0.0
857.7789,238.13782,8768850,0.8875,0.12765957,-38.57817,-261.03796,0.031872723,0.04896027,0.07619667,0.0,0.0,0.0
856.7429,236.29639,8768867,0.9125,0.12765957,-60.968086,-118.10424,0.031872723,0.04896027,0.07619667,0.0,0.0,0.0
855.6949,236.21826,8768884,0.96250004,0.12765957,-70.79074,26.922853,0.031872723,0.04896027,0.07619667,0.0,0.0,0.0
854.65875,236.21826,8768900,0.95,0.12765957,-71.18359,95.16713,0.031872723,0.04896027,0.07619667,0.0,0.0,0.0
853.62115,236.21826,8768917,0.925,0.12765957,-70.79733,87.81181,0.031872723,0.04896027,0.07619667,0.0,0.0,0.0
852.57587,239.32593,8768934,0.8625,0.12765957,-67.522606,136.06937,0.031872723,0.04896027,0.07619667,0.0,0.0,0.0
851.5319,245.41418,8768950,0.8,0.10638297,-61.728214,281.81018,0.031872723,0.04896027,0.07619667,0.0,0.0,0.0
852.70026,259.7505,8768967,0.8,0.08510638,-1.6563287,646.7463,0.031872723,0.04896027,0.07619667,0.0,0.0,0.0
853.92706,276.7649,8768984,0.7875,0.10638297,81.00005,1156.8052,0.031872723,0.04896027,0.07619667,0.0,0.0,0.0
855.45935,295.99622,8769000,0.77500004,0.12765957,138.92076,1398.9221,0.031872723,0.04896027,0.07619667,0.0,0.0,0.0
858.06055,316.9796,8769017,0.77500004,0.09574468,172.49673,1504.639,0.031872723,0.04896027,0.07619667,0.0,0.0,0.0
859.99805,334.3119,8769034,0.7625,0.11702127,172.78091,1332.1927,0.031872723,0.04896027,0.07619667,0.0,0.0,0.0
862.9665,352.422,8769051,0.75,0.11702127,168.50403,1122.2468,0.031872723,0.04896027,0.07619667,0.0,0.0,0.0
865.99756,372.34998,8769067,0.77500004,0.09574468,193.41101,1085.9905,0.031872723,0.04896027,0.07619667,0.0,0.0,0.0
868.60175,387.70984,8769084,0.7625,0.11702127,190.97762,1013.3555,0.031872723,0.04896027,0.07619667,0.0,0.0,0.0
871.7899,407.32178,8769101,0.7625,0.10638297,181.7496,1033.3209,0.031872723,0.04896027,0.07619667,0.0,0.0,0.0
875.4677,426.04626,8769117,0.75,0.08510638,209.1332,1094.584,0.031872723,0.04896027,0.07619667,0.0,0.0,0.0
877.8699,440.0609,8769134,0.75,0.09574468,196.21532,1031.8765,0.031872723,0.04896027,0.07619667,0.0,0.0,0.0
881.7354,454.06006,8769151,0.7625,0.10638297,216.51372,921.36584,0.031872723,0.04896027,0.07619667,0.0,0.0,0.0
886.448,462.3578,8769168,0.7875,0.09574468,251.55403,656.9308,0.031872723,0.04896027,0.07619667,0.0,0.0,0.0
889.4996,466.17285,8769184,0.8,0.08510638,238.40758,239.51505,0.031872723,0.04896027,0.07619667,0.0,0.0,0.0
894.37103,469.8479,8769201,0.825,0.08510638,273.3698,-0.11056602,0.031872723,0.04896027,0.07619667,0.0,0.0,0.0
899.70715,472.92334,8769218,0.8125,0.08510638,308.81274,-37.95494,0.031872723,0.04896027,0.07619667,0.0,0.0,0.0
905.29785,474.8153,8769234,0.8,0.09574468,343.62335,-5.5771036,0.031872723,0.04896027,0.07619667,0.0,0.0,0.0
910.6738,475.2256,8769251,0.8,0.09574468,372.95013,17.131504,0.031872723,0.04896027,0.07619667,0.0,0.0,0.0
917.24646,475.2256,8769268,0.7625,0.09574468,366.1752,-54.50445,0.031872723,0.04896027,0.07619667,0.0,0.0,0.0
924.29407,475.2256,8769285,0.71250004,0.08510638,415.57254,-80.92337,0.009498179,-0.008831799,-0.011042595,0.0,0.0,0.0
936.3324,474.37488,8769301,0.65000004,0.08510638,545.7279,-75.55742,0.009498179,-0.008831799,-0.011042595,0.0,0.0,0.0
952.45605,466.1543,8769318,0.4375,0.12765957,917.06616,-288.5401,0.009498179,-0.008831799,-0.011042595,0.0,0.0,0.0
959.16565,461.89807,8769326,0.375,0.14893617,1024.1339,-404.41702,0.009498179,-0.008831799,-0.011042595,0.0,0.0,0.0
959.16565,461.89807,8769333,0.375,0.14893617,1024.1339,-404.41702,0.009498179,-0.008831799,-0.011042595,0.0,0.0,0.0
804.21606,333.9536,8769527,0.9125,0.11702127,0.0,0.0,0.009498179,-0.008831799,-0.011042595,0.0,0.0,0.0
804.21606,333.9536,8769552,0.975,0.11702127,0.043222785,0.017951652,0.009498179,-0.008831799,-0.011042595,0.0,0.0,0.0
804.21606,333.9536,8769569,0.975,0.11702127,0.03668292,0.01432956,0.009498179,-0.008831799,-0.011042595,0.0,0.0,0.0
804.21606,333.9536,8769585,0.8875,0.11702127,-0.007225654,-0.0021508418,0.009498179,-0.008831799,-0.011042595,0.0,0.0,0.0
804.21606,333.9536,8769602,0.8125,0.08510638,0.02409479,0.009968794,0.009498179,-0.008831799,-0.011042595,0.0,0.0,0.0
836.4562,337.0166,8769619,0.7875,0.09574468,1007.626,96.91586,0.009498179,-0.008831799,-0.011042595,0.0,0.0,0.0
859.51746,339.74915,8769635,0.7625,0.11702127,1807.5833,190.07843,0.009498179,-0.008831799,-0.011042595,0.0,0.0,0.0
884.8885,342.14087,8769652,0.77500004,0.10638297,2196.4607,222.95451,0.009498179,-0.008831799,-0.011042595,0.0,0.0,0.0
915.5513,346.1698,8769669,0.71250004,0.12765957,2141.458,231.9344,0.009498179,-0.008831799,-0.011042595,0.0,0.0,0.0
935.1734,349.94666,8769682,0.3125,0.10638297,2062.35,276.09866,0.009498179,-0.008831799,-0.011042595,0.0,0.0,0.0
935.1734,349.94666,8769687,0.3125,0.10638297,2062.35,276.09866,0.009498179,-0.008831799,-0.011042595,0.0,0.0,0.0
1000.1522,375.71326,8769897,0.7625,0.08510638,0.0,0.0,0.023598544,-0.0070654154,0.05516529,0.0,0.0,0.0
1000.1522,375.71326,8769920,0.825,0.08510638,0.081641495,0.034740023,0.023598544,-0.0070654154,0.05516529,0.0,0.0,0.0
1000.1522,375.71326,8769933,0.8625,0.08510638,-0.002522545,5.386743E-4,0.023598544,-0.0070654154,0.05516529,0.0,0.0,0.0
1000.1522,375.71326,8769953,0.8625,0.08510638,0.0060953763,0.0028887438,0.023598544,-0.0070654154,0.05516529,0.0,0.0,0.0
1000.1522,375.71326,8769970,0.85,0.08510638,-0.03019118,-0.011706448,0.023598544,-0.0070654154,0.05516529,0.0,0.0,0.0
1000.1522,375.71326,8769986,0.8,0.08510638,-0.034857642,-0.011335147,0.023598544,-0.0070654154,0.05516529,0.0,0.0,0.0
1000.1522,375.71326,8770003,0.77500004,0.08510638,0.02382213,0.009738504,0.023598544,-0.0070654154,0.05516529,0.0,0.0,0.0
976.8519,388.63086,8770020,0.77500004,0.11702127,-656.38214,360.78183,0.023598544,-0.0070654154,0.05516529,0.0,0.0,0.0
967.13916,395.7257,8770037,0.8,0.10638297,-1107.004,661.48065,0.023598544,-0.0070654154,0.05516529,0.0,0.0,0.0
959.49084,402.7323,8770053,0.77500004,0.09574468,-995.3042,701.48627,0.023598544,-0.0070654154,0.05516529,0.0,0.0,0.0
954.28253,408.7793,8770070,0.7875,0.08510638,-526.06964,520.47546,0.023598544,-0.0070654154,0.05516529,0.0,0.0,0.0
948.41034,421.38733,8770087,0.7625,0.08510638,-12.020948,441.38937,0.023598544,-0.0070654154,0.05516529,0.0,0.0,0.0
944.95996,433.6985,8770103,0.75,0.08510638,-139.02179,748.3942,0.023598544,-0.0070654154,0.05516529,0.0,0.0,0.0
944.67035,443.76843,8770120,0.7625,0.10638297,-46.567287,829.7987,0.023598544,-0.0070654154,0.05516529,0.0,0.0,0.0
946.5354,454.19336,8770137,0.7375,0.10638297,117.31408,769.16003,0.023598544,-0.0070654154,0.05516529,0.0,0.0,0.0
949.595,463.50037,8770153,0.75,0.09574468,295.22885,593.8928,0.023598544,-0.0070654154,0.05516529,0.0,0.0,0.0
953.7334,469.094,8770170,0.7,0.08510638,371.93204,384.4325,0.023598544,-0.0070654154,0.05516529,0.0,0.0,0.0
960.55164,476.5066,8770187,0.725,0.09574468,435.80145,330.8856,0.023598544,-0.0070654154,0.05516529,0.0,0.0,0.0
970.525,484.79224,8770204,0.7375,0.09574468,581.4047,356.03174,0.023598544,-0.0070654154,0.05516529,0.0,0.0,0.0
979.9851,489.07678,8770220,0.75,0.08510638,691.28094,329.05054,0.023598544,-0.0070654154,0.05516529,0.0,0.0,0.0
989.94946,490.68445,8770237,0.75,0.08510638,732.3652,201.78618,0.023598544,-0.0070654154,0.05516529,0.0,0.0,0.0
1002.3989,487.93945,8770254,0.7625,0.08510638,754.37103,-56.446312,0.023598544,-0.0070654154,0.05516529,0.0,0.0,0.0
1016.65906,478.76868,8770270,0.7625,0.09574468,844.0295,-521.2516,0.023598544,-0.0070654154,0.05516529,0.0,0.0,0.0
1027.7527,467.69177,8770287,0.7625,0.12765957,881.60834,-845.48926,0.023598544,-0.0070654154,0.05516529,0.0,0.0,0.0
1036.1047,457.21252,8770304,0.77500004,0.09574468,703.0644,-974.9465,0.023598544,-0.0070654154,0.05516529,0.0,0.0,0.0
1041.2046,446.61816,8770321,0.7875,0.08510638,362.44687,-856.8421,0.023598544,-0.0070654154,0.05516529,0.0,0.0,0.0
1044.0048,432.2213,8770337,0.8125,0.08510638,66.835144,-801.9535,0.023598544,-0.0070654154,0.05516529,0.0,0.0,0.0
1043.2546,421.54407,8770354,0.8,0.10638297,-116.55044,-793.6452,-0.013121165,-0.02165237,-0.051867485,0.0,0.0,0.0
1039.2018,412.28015,8770371,0.825,0.12765957,-309.141,-702.0549,-0.013121165,-0.02165237,-0.051867485,0.0,0.0,0.0
1033.9873,405.73987,8770387,0.8125,0.11702127,-458.25775,-470.85678,-0.013121165,-0.02165237,-0.051867485,0.0,0.0,0.0
1024.5262,396.48816,8770404,0.83750004,0.08510638,-627.8203,-355.23486,-0.013121165,-0.02165237,-0.051867485,0.0,0.0,0.0
1012.46594,389.229,8770421,0.85,0.08510638,-794.37134,-373.3967,-0.013121165,-0.02165237,-0.051867485,0.0,0.0,0.0
1001.1438,382.97876,8770438,0.8625,0.08510638,-881.343,-399.3798,-0.013121165,-0.02165237,-0.051867485,0.0,0.0,0.0
993.3623,379.49976,8770454,0.875,0.08510638,-779.352,-290.3188,-0.013121165,-0.02165237,-0.051867485,0.0,0.0,0.0
989.00854,378.37878,8770471,0.875,0.09574468,-407.72314,-58.860012,-0.013121165,-0.02165237,-0.051867485,0.0,0.0,0.0
986.64343,378.37878,8770488,0.8875,0.09574468,-86.53786,88.05003,-0.013121165,-0.02165237,-0.051867485,0.0,0.0,0.0
984.8644,378.37878,8770504,0.8625,0.09574468,68.15666,142.15344,-0.013121165,-0.02165237,-0.051867485,0.0,0.0,0.0
983.839,378.94495,8770521,0.83750004,0.09574468,83.03066,113.27758,-0.013121165,-0.02165237,-0.051867485,0.0,0.0,0.0
984.01855,381.43872,8770538,0.8,0.08510638,63.39102,130.89854,-0.013121165,-0.02165237,-0.051867485,0.0,0.0,0.0
985.563,384.43127,8770555,0.7875,0.10638297,107.83106,202.24507,-0.013121165,-0.02165237,-0.051867485,0.0,0.0,0.0
988.95166,388.76855,8770571,0.7875,0.10638297,195.57942,278.23056,-0.013121165,-0.02165237,-0.051867485,0.0,0.0,0.0
994.6029,395.1996,8770588,0.77500004,0.10638297,336.049,381.58893,-0.013121165,-0.02165237,-0.051867485,0.0,0.0,0.0
1002.4198,403.49524,8770605,0.77500004,0.09574468,498.0838,512.06335,-0.013121165,-0.02165237,-0.051867485,0.0,0.0,0.0
1010.6669,407.96228,8770621,0.7625,0.10638297,607.64496,492.06857,-0.013121165,-0.02165237,-0.051867485,0.0,0.0,0.0
1017.3047,411.6432,8770638,0.7625,0.11702127,588.3833,354.69098,-0.013121165,-0.02165237,-0.051867485,0.0,0.0,0.0
1025.1403,413.91882,8770655,0.75,0.11702127,514.0773,158.17062,-0.013121165,-0.02165237,-0.051867485,0.0,0.0,0.0
1032.5232,413.91882,8770672,0.75,0.10638297,450.10458,-28.68498,-0.013121165,-0.02165237,-0.051867485,0.0,0.0,0.0
1041.8594,411.41882,8770688,0.75,0.10638297,474.6751,-145.67535,-0.013121165,-0.02165237,-0.051867485,0.0,0.0,0.0
1054.3031,404.02563,8770705,0.77500004,0.10638297,675.4157,-401.8163,-0.013121165,-0.02165237,-0.051867485,0.0,0.0,0.0
1063.2823,396.6305,8770722,0.77500004,0.10638297,733.1642,-611.9913,-0.013121165,-0.02165237,-0.051867485,0.0,0.0,0.0
1069.8402,388.38586,8770738,0.77500004,0.09574468,594.0513,-682.7266,-0.013121165,-0.02165237,-0.051867485,0.0,0.0,0.0
1074.1301,381.0409,8770755,0.8,0.09574468,315.87585,-618.39874,-0.013121165,-0.02165237,-0.051867485,0.0,0.0,0.0
1077.0469,372.72986,8770772,0.825,0.09574468,77.71927,-513.3418,-0.013121165,-0.02165237,-0.051867485,0.0,0.0,0.0
1078.0844,368.7561,8770788,0.83750004,0.11702127,-37.56053,-390.40558,-0.013121165,-0.02165237,-0.051867485,0.0,0.0,0.0
1078.1268,366.82642,8770805,0.8125,0.11702127,-82.94934,-171.12416,-0.013121165,-0.02165237,-0.051867485,0.0,0.0,0.0
1077.0854,364.9768,8770822,0.83750004,0.11702127,-133.2891,-13.377998,-0.013121165,-0.02165237,-0.051867485,0.0,0.0,0.0
1076.0476,364.16272,8770839,0.85,0.11702127,-150.84677,64.54826,-0.013121165,-0.02165237,-0.051867485,0.0,0.0,0.0
1075.0118,364.16272,8770855,0.85,0.09574468,-129.29076,76.28852,-0.013121165,-0.02165237,-0.051867485,0.0,0.0,0.0
1074.1282,365.57922,8770872,0.825,0.08510638,-99.31152,82.38762,-0.013121165,-0.02165237,-0.051867485,0.0,0.0,0.0
1074.8291,371.81165,8770889,0.77500004,0.09574468,-26.902275,252.57652,-0.010496929,0.014678121,0.02250576,0.0,0.0,0.0
1078.0739,381.8385,8770905,0.7625,0.11702127,125.73991,594.3061,-0.010496929,0.014678121,0.02250576,0.0,0.0,0.0
1082.4569,390.5183,8770922,0.75,0.12765957,293.11356,765.81287,-0.010496929,0.014678121,0.02250576,0.0,0.0,0.0
1087.3384,398.63342,8770939,0.7375,0.12765957,383.56604,713.0686,-0.010496929,0.014678121,0.02250576,0.0,0.0,0.0
1094.7247,409.9253,8770956,0.7625,0.08510638,471.68842,652.86707,-0.010496929,0.014678121,0.02250576,0.0,0.0,0.0
1101.8645,420.76587,8770972,0.75,0.08510638,509.74548,646.4967,-0.010496929,0.014678121,0.02250576,0.0,0.0,0.0
1108.5278,432.41907,8770989,0.7625,0.08510638,494.73328,722.0311,-0.010496929,0.014678121,0.02250576,0.0,0.0,0.0
1112.9452,441.09937,8771006,0.77500004,0.09574468,402.4669,677.8605,-0.010496929,0.014678121,0.02250576,0.0,0.0,0.0
1116.6469,448.64746,8771022,0.77500004,0.10638297,238.70914,511.51834,-0.010496929,0.014678121,0.02250576,0.0,0.0,0.0
1118.7124,455.141,8771039,0.7625,0.10638297,112.95462,377.85403,-0.010496929,0.014678121,0.02250576,0.0,0.0,0.0
1119.1135,461.4911,8771056,0.7625,0.09574468,0.15607902,305.18488,-0.010496929,0.014678121,0.02250576,0.0,0.0,0.0
1117.9849,467.02893,8771073,0.77500004,0.08510638,-106.039276,272.6644,-0.010496929,0.014678121,0.02250576,0.0,0.0,0.0
1115.791,471.64575,8771089,0.7875,0.08510638,-190.53665,257.09647,-0.010496929,0.014678121,0.02250576,0.0,0.0,0.0
1113.4987,475.95605,8771106,0.7875,0.08510638,-233.27582,234.77492,-0.010496929,0.014678121,0.02250576,0.0,0.0,0.0
1111.1288,478.3241,8771123,0.8,0.08510638,-216.0433,160.22964,-0.010496929,0.014678121,0.02250576,0.0,0.0,0.0
1108.3342,480.13184,8771139,0.8125,0.08510638,-186.74074,85.79327,-0.010496929,0.014678121,0.02250576,0.0,0.0,0.0
1105.7576,481.9547,8771156,0.8125,0.08510638,-173.25722,33.473606,-0.010496929,0.014678121,0.02250576,0.0,0.0,0.0
1102.6514,483.79517,8771173,0.8,0.08510638,-179.74129,31.971386,-0.010496929,0.014678121,0.02250576,0.0,0.0,0.0
1099.1764,486.28186,8771190,0.8,0.08510638,-195.74063,93.65722,-0.010496929,0.014678121,0.02250576,0.0,0.0,0.0
1095.3721,488.44165,8771206,0.77500004,0.09574468,-231.88586,145.80063,-0.010496929,0.014678121,0.02250576,0.0,0.0,0.0
1092.1931,490.2882,8771223,0.7375,0.09574468,-235.04808,140.97183,-0.010496929,0.014678121,0.02250576,0.0,0.0,0.0
1088.6234,493.88416,8771233,0.575,0.12765957,-258.00455,173.07092,-0.010496929,0.014678121,0.02250576,0.0,0.0,0.0
1088.6234,493.88416,8771239,0.575,0.12765957,-258.00455,173.07092,-0.010496929,0.014678121,0.02250576,0.0,0.0,0.0
