x,y,timestamp,pressure,fingerarea,velocityx,velocityy,accelx,accely,accelz,gyrox,gyroy,gyroz
300.8799,189.12756,71753329,0.625,0.10638297,0.0,0.0,0.013889171,-0.010071665,0.011844635,0.0,0.0,0.0
300.8799,189.12756,71753348,0.65000004,0.10638297,-0.006471757,-0.004451911,0.013889171,-0.010071665,0.011844635,0.0,0.0,0.0
300.8799,189.12756,71753365,0.6625,0.10638297,0.003950955,0.0037597117,0.013889171,-0.010071665,0.011844635,0.0,0.0,0.0
300.8799,189.12756,71753382,0.6875,0.12765957,0.0056910454,0.002661838,0.013889171,-0.010071665,0.011844635,0.0,0.0,0.0
300.8799,189.12756,71753389,0.6875,0.10638297,0.014638113,0.00919096,0.013889171,-0.010071665,0.011844635,0.0,0.0,0.0
300.8799,189.12756,71753415,0.7,0.12765957,0.021821702,0.014255136,0.013889171,-0.010071665,0.011844635,0.0,0.0,0.0
300.8799,189.12756,71753431,0.7,0.10638297,-0.0022314943,-2.3729936E-4,0.013889171,-0.010071665,0.011844635,0.0,0.0,0.0
300.8799,189.12756,71753449,0.7,0.09574468,-0.0076147127,-0.005748139,0.013889171,-0.010071665,0.011844635,0.0,0.0,0.0
300.8799,189.12756,71753478,0.71250004,0.08510638,-0.01288102,-0.008234588,0.013889171,-0.010071665,0.011844635,0.0,0.0,0.0
300.8799,189.12756,71753498,0.7,0.08510638,0.006585999,0.0048795524,0.013889171,-0.010071665,0.011844635,0.0,0.0,0.0
296.69617,208.2511,71753515,0.7,0.06382979,-110.95337,507.11435,0.013889171,-0.010071665,0.011844635,0.0,0.0,0.0
295.58774,216.1997,71753532,0.71250004,0.08510638,-186.78212,965.2023,0.013889171,-0.010071665,0.011844635,0.0,0.0,0.0
294.6798,223.43884,71753549,0.7,0.09574468,-146.83725,879.6417,0.013889171,-0.010071665,0.011844635,0.0,0.0,0.0
292.9513,230.6427,71753566,0.7,0.10638297,-120.614426,703.28467,0.013889171,-0.010071665,0.011844635,0.0,0.0,0.0
290.3682,240.74146,71753582,0.7,0.09574468,-92.57412,371.09808,0.013889171,-0.010071665,0.011844635,0.0,0.0,0.0
288.00146,251.79419,71753599,0.7,0.08510638,-132.33376,474.77307,0.013889171,-0.010071665,0.011844635,0.0,0.0,0.0
286.2614,261.1996,71753616,0.6875,0.06382979,-160.00803,689.24884,0.013889171,-0.010071665,0.011844635,0.0,0.0,0.0
284.7511,268.6809,71753632,0.7,0.06382979,-111.388725,587.78595,0.013889171,-0.010071665,0.011844635,0.0,0.0,0.0
281.70108,277.04517,71753649,0.7,0.09574468,-107.456604,448.29413,0.013889171,-0.010071665,0.011844635,0.0,0.0,0.0
279.46292,286.45752,71753666,0.6875,0.10638297,-143.82065,425.11337,0.013889171,-0.010071665,0.011844635,0.0,0.0,0.0
276.86218,297.61572,71753683,0.675,0.08510638,-162.72783,573.33026,0.013889171,-0.010071665,0.011844635,0.0,0.0,0.0
275.31223,306.95044,71753699,0.675,0.06382979,-145.55164,657.1113,0.013889171,-0.010071665,0.011844635,0.0,0.0,0.0
273.21964,319.75146,71753716,0.6875,0.07446808,-112.75502,757.1038,0.013889171,-0.010071665,0.011844635,0.0,0.0,0.0
271.6513,328.58032,71753733,0.6875,0.08510638,-92.20923,693.18414,0.013889171,-0.010071665,0.011844635,0.0,0.0,0.0
269.72928,336.55627,71753749,0.675,0.12765957,-98.72806,558.13385,0.011111341,0.007942677,-0.038524628,0.0,0.0,0.0
267.281,348.55994,71753766,0.675,0.10638297,-110.41877,548.603,0.011111341,0.007942677,-0.038524628,0.0,0.0,0.0
263.91476,359.65942,71753783,0.6875,0.09574468,-172.75002,621.41144,0.011111341,0.007942677,-0.038524628,0.0,0.0,0.0
260.0705,372.4176,71753800,0.6875,0.08510638,-244.1609,785.821,0.011111341,0.007942677,-0.038524628,0.0,0.0,0.0
257.28815,382.30933,71753816,0.6875,0.08510638,-251.69345,763.7942,0.011111341,0.007942677,-0.038524628,0.0,0.0,0.0
253.56293,392.88757,71753833,0.6875,0.12765957,-222.05142,615.1485,0.011111341,0.007942677,-0.038524628,0.0,0.0,0.0
249.52554,407.0232,71753850,0.6875,0.09574468,-209.21185,671.8266,0.011111341,0.007942677,-0.038524628,0.0,0.0,0.0
243.90735,420.86035,71753866,0.6875,0.06382979,-272.28598,795.9407,0.011111341,0.007942677,-0.038524628,0.0,0.0,0.0
237.99051,432.38525,71753883,0.6875,0.053191487,-380.01865,864.6399,0.011111341,0.007942677,-0.038524628,0.0,0.0,0.0
232.75882,440.7649,71753900,0.7,0.10638297,-400.7987,698.11206,0.011111341,0.007942677,-0.038524628,0.0,0.0,0.0
225.40182,452.89014,71753917,0.675,0.10638297,-422.28134,567.39386,0.011111341,0.007942677,-0.038524628,0.0,0.0,0.0
219.82794,464.01978,71753933,0.7,0.08510638,-406.9033,573.88055,0.011111341,0.007942677,-0.038524628,0.0,0.0,0.0
216.23105,468.1306,71753950,0.6875,0.08510638,-307.47382,446.0704,0.011111341,0.007942677,-0.038524628,0.0,0.0,0.0
209.77057,477.12622,71753967,0.71250004,0.08510638,-300.84674,422.6317,0.011111341,0.007942677,-0.038524628,0.0,0.0,0.0
203.13443,483.02417,71753983,0.71250004,0.07446808,-322.49127,292.96597,0.011111341,0.007942677,-0.038524628,0.0,0.0,0.0
196.51822,487.73853,71754000,0.725,0.08510638,-416.21738,267.27542,0.011111341,0.007942677,-0.038524628,0.0,0.0,0.0
189.81067,491.39917,71754017,0.7625,0.08510638,-454.82684,218.77106,0.011111341,0.007942677,-0.038524628,0.0,0.0,0.0
182.97516,493.57117,71754033,0.77500004,0.08510638,-419.31012,78.438255,0.011111341,0.007942677,-0.038524628,0.0,0.0,0.0
176.17928,493.88416,71754050,0.7625,0.08510638,-417.0136,10.463849,0.011111341,0.007942677,-0.038524628,0.0,0.0,0.0
170.8115,492.24548,71754067,0.77500004,0.08510638,-371.71915,-118.448296,0.011111341,0.007942677,-0.038524628,0.0,0.0,0.0
166.16798,489.6587,71754084,0.7875,0.08510638,-306.02692,-212.19849,0.011111341,0.007942677,-0.038524628,0.0,0.0,0.0
162.88292,484.92468,71754100,0.8,0.09574468,-202.93607,-326.08026,0.011111341,0.007942677,-0.038524628,0.0,0.0,0.0
158.21434,475.6432,71754117,0.8,0.11702127,-181.97281,-510.19067,0.011111341,0.007942677,-0.038524628,0.0,0.0,0.0
155.74,466.3977,71754134,0.7875,0.12765957,-160.20978,-669.17456,0.011111341,0.007942677,-0.038524628,0.0,0.0,0.0
155.9271,457.04102,71754150,0.8,0.11702127,-61.614742,-732.6653,0.011111341,0.007942677,-0.038524628,0.0,0.0,0.0
156.62436,450.72095,71754167,0.8,0.09574468,62.267796,-608.19977,0.011111341,0.007942677,-0.038524628,0.0,0.0,0.0
159.06935,443.11133,71754184,0.8125,0.08510638,191.6152,-457.57742,0.011111341,0.007942677,-0.038524628,0.0,0.0,0.0
161.91829,436.14368,71754201,0.7875,0.08510638,252.40285,-384.41415,0.011111341,0.007942677,-0.038524628,0.0,0.0,0.0
167.24998,428.02612,71754217,0.8125,0.08510638,315.04694,-424.2364,0.011111341,0.007942677,-0.038524628,0.0,0.0,0.0
173.29384,421.14038,71754234,0.8,0.09574468,409.45746,-457.42004,0.011111341,0.007942677,-0.038524628,0.0,0.0,0.0
180.45651,415.54053,71754251,0.8,0.09574468,482.18475,-379.00436,0.011111341,0.007942677,-0.038524628,0.0,0.0,0.0
187.55684,411.69006,71754267,0.7875,0.12765957,505.88516,-256.64056,0.011111341,0.007942677,-0.038524628,0.0,0.0,0.0
194.47055,409.589,71754284,0.77500004,0.12765957,489.98337,-129.21101,0.008889072,0.022354126,0.017180443,0.0,0.0,0.0
202.89587,408.5879,71754301,0.7625,0.12765957,476.1265,-4.1794543,0.008889072,0.022354126,0.017180443,0.0,0.0,0.0
212.8623,409.56592,71754318,0.77500004,0.09574468,557.0207,88.50583,0.008889072,0.022354126,0.017180443,0.0,0.0,0.0
222.10425,412.41772,71754334,0.7625,0.08510638,622.6514,202.3461,0.008889072,0.022354126,0.017180443,0.0,0.0,0.0
231.4638,416.115,71754351,0.7875,0.08510638,639.25287,298.0641,0.008889072,0.022354126,0.017180443,0.0,0.0,0.0
237.48428,419.89185,71754368,0.75,0.06382979,518.53925,337.91376,0.008889072,0.022354126,0.017180443,0.0,0.0,0.0
242.39072,425.99084,71754384,0.75,0.08510638,329.78976,378.23715,0.008889072,0.022354126,0.017180443,0.0,0.0,0.0
247.57901,435.10437,71754401,0.7375,0.08510638,195.82793,475.29953,0.008889072,0.022354126,0.017180443,0.0,0.0,0.0
252.21985,446.08057,71754418,0.7375,0.12765957,202.12599,701.6278,0.008889072,0.022354126,0.017180443,0.0,0.0,0.0
254.71393,455.2804,71754435,0.7375,0.11702127,181.89935,773.5757,0.008889072,0.022354126,0.017180443,0.0,0.0,0.0
256.25156,463.54797,71754451,0.75,0.09574468,88.45535,660.759,0.008889072,0.022354126,0.017180443,0.0,0.0,0.0
257.66913,472.24988,71754468,0.725,0.08510638,1.7928153,493.65036,0.008889072,0.022354126,0.017180443,0.0,0.0,0.0
259.31918,481.80554,71754485,0.7375,0.08510638,-1.0775591,479.66986,0.008889072,0.022354126,0.017180443,0.0,0.0,0.0
261.3549,487.56372,71754501,0.725,0.09574468,67.51737,470.77628,0.008889072,0.022354126,0.017180443,0.0,0.0,0.0
263.41547,491.26013,71754518,0.71250004,0.08510638,125.550674,301.89462,0.008889072,0.022354126,0.017180443,0.0,0.0,0.0
266.1747,495.10852,71754535,0.725,0.10638297,148.73491,140.84937,0.008889072,0.022354126,0.017180443,0.0,0.0,0.0
269.75146,496.7102,71754552,0.7375,0.09574468,194.6778,16.444483,0.008889072,0.022354126,0.017180443,0.0,0.0,0.0
274.03183,498.61243,71754568,0.71250004,0.09574468,257.86243,10.695196,0.008889072,0.022354126,0.017180443,0.0,0.0,0.0
277.0409,499.2152,71754585,0.7375,0.09574468,264.94064,14.439381,0.008889072,0.022354126,0.017180443,0.0,0.0,0.0
279.55264,499.2152,71754602,0.7375,0.09574468,222.42964,-22.018929,0.008889072,0.022354126,0.017180443,0.0,0.0,0.0
281.914,498.7461,71754618,0.75,0.08510638,129.14717,-58.8731,0.008889072,0.022354126,0.017180443,0.0,0.0,0.0
283.99472,496.89685,71754635,0.75,0.08510638,95.340996,-118.43079,0.008889072,0.022354126,0.017180443,0.0,0.0,0.0
287.07568,493.5443,71754652,0.7375,0.06382979,125.61334,-195.96533,0.008889072,0.022354126,0.017180443,0.0,0.0,0.0
289.5182,489.2025,71754668,0.7375,0.06382979,147.26103,-279.21826,0.008889072,0.022354126,0.017180443,0.0,0.0,0.0
293.01675,483.7096,71754685,0.75,0.08510638,181.94763,-374.27637,0.008889072,0.022354126,0.017180443,0.0,0.0,0.0
297.20978,477.307,71754702,0.7375,0.08510638,238.35228,-428.00653,0.008889072,0.022354126,0.017180443,0.0,0.0,0.0
301.40036,470.7556,71754719,0.7375,0.12765957,276.9618,-465.68216,0.008889072,0.022354126,0.017180443,0.0,0.0,0.0
305.5625,464.31824,71754735,0.7375,0.12765957,290.47864,-455.5344,0.008889072,0.022354126,0.017180443,0.0,0.0,0.0
310.10938,458.98474,71754752,0.725,0.11702127,286.37228,-390.70346,0.008889072,0.022354126,0.017180443,0.0,0.0,0.0
314.36838,453.46362,71754769,0.7375,0.08510638,271.778,-331.80417,0.008889072,0.022354126,0.017180443,0.0,0.0,0.0
318.53,449.4735,71754785,0.7375,0.08510638,261.1987,-249.91899,0.008889072,0.022354126,0.017180443,0.0,0.0,0.0
322.9189,443.901,71754802,0.75,0.07446808,255.95396,-249.6846,0.008889072,0.022354126,0.017180443,0.0,0.0,0.0
328.35452,437.92798,71754819,0.725,0.06382979,282.73163,-309.4652,0.023111261,0.001883328,-0.03425598,0.0,0.0,0.0
334.60516,430.52063,71754836,0.725,0.06382979,354.70676,-408.48413,0.023111261,0.001883328,-0.03425598,0.0,0.0,0.0
341.32736,423.14673,71754852,0.7375,0.08510638,428.70203,-494.86728,0.023111261,0.001883328,-0.03425598,0.0,0.0,0.0
347.54562,417.31213,71754869,0.7375,0.09574468,442.3304,-463.4814,0.023111261,0.001883328,-0.03425598,0.0,0.0,0.0
352.84918,411.80127,71754886,0.7375,0.12765957,385.10242,-370.87448,0.023111261,0.001883328,-0.03425598,0.0,0.0,0.0
359.0113,405.34448,71754902,0.725,0.12765957,336.39456,-320.1564,0.023111261,0.001883328,-0.03425598,0.0,0.0,0.0
365.27597,398.89856,71754919,0.725,0.11702127,335.8005,-333.36987,0.023111261,0.001883328,-0.03425598,0.0,0.0,0.0
374.6423,390.56323,71754936,0.7375,0.07446808,457.53394,-439.29688,0.023111261,0.001883328,-0.03425598,0.0,0.0,0.0
384.94876,382.33972,71754953,0.7375,0.06382979,614.13306,-525.1019,0.023111261,0.001883328,-0.03425598,0.0,0.0,0.0
396.08643,374.91357,71754969,0.725,0.08510638,735.2839,-531.04,0.023111261,0.001883328,-0.03425598,0.0,0.0,0.0
404.85455,368.7256,71754986,0.725,0.08510638,718.6787,-467.31097,0.023111261,0.001883328,-0.03425598,0.0,0.0,0.0
411.9849,363.48682,71755003,0.75,0.11702127,569.7276,-351.085,0.023111261,0.001883328,-0.03425598,0.0,0.0,0.0
419.17465,358.90576,71755019,0.725,0.12765957,371.83112,-229.9464,0.023111261,0.001883328,-0.03425598,0.0,0.0,0.0
427.03387,355.6786,71755036,0.7375,0.12765957,346.4247,-168.63403,0.023111261,0.001883328,-0.03425598,0.0,0.0,0.0
435.5062,354.38916,71755053,0.7375,0.10638297,436.29926,-85.70958,0.023111261,0.001883328,-0.03425598,0.0,0.0,0.0
442.45154,354.38916,71755070,0.7375,0.10638297,482.65118,24.211746,0.023111261,0.001883328,-0.03425598,0.0,0.0,0.0
448.2556,354.38916,71755086,0.725,0.09574468,414.47345,100.59805,0.023111261,0.001883328,-0.03425598,0.0,0.0,0.0
453.5125,354.38916,71755103,0.7375,0.09574468,304.2692,102.35621,0.023111261,0.001883328,-0.03425598,0.0,0.0,0.0
458.7151,355.2273,71755120,0.7375,0.09574468,246.2108,65.43473,0.023111261,0.001883328,-0.03425598,0.0,0.0,0.0
462.88446,355.2777,71755136,0.7375,0.10638297,226.32188,40.57042,0.023111261,0.001883328,-0.03425598,0.0,0.0,0.0
466.19244,356.99536,71755153,0.75,0.10638297,186.57532,64.948074,0.023111261,0.001883328,-0.03425598,0.0,0.0,0.0
469.04584,358.07385,71755170,0.7375,0.09574468,150.39777,91.68296,0.023111261,0.001883328,-0.03425598,0.0,0.0,0.0
471.09033,357.9431,71755187,0.7375,0.09574468,105.42941,62.088467,0.023111261,0.001883328,-0.03425598,0.0,0.0,0.0
473.17334,357.9431,71755203,0.7375,0.09574468,83.50908,12.449054,0.023111261,0.001883328,-0.03425598,0.0,0.0,0.0
474.53174,358.83167,71755220,0.725,0.09574468,70.02542,7.63232,0.023111261,0.001883328,-0.03425598,0.0,0.0,0.0
474.32343,358.83167,71755237,0.7375,0.09574468,2.0456111,3.7986126,0.023111261,0.001883328,-0.03425598,0.0,0.0,0.0
474.32343,358.83167,71755253,0.725,0.09574468,-34.653553,2.9078588,0.023111261,0.001883328,-0.03425598,0.0,0.0,0.0
474.32343,358.83167,71755270,0.7375,0.09574468,-59.74145,-6.026992,0.023111261,0.001883328,-0.03425598,0.0,0.0,0.0
473.44897,357.27722,71755287,0.7375,0.10638297,-62.888195,-56.78475,0.023111261,0.001883328,-0.03425598,0.0,0.0,0.0
470.87286,355.52124,71755303,0.7375,0.10638297,-101.26971,-106.91908,0.023111261,0.001883328,-0.03425598,0.0,0.0,0.0
462.3952,354.38916,71755320,0.75,0.10638297,-342.56927,-141.57335,0.023111261,0.001883328,-0.03425598,0.0,0.0,0.0
446.37744,354.38916,71755337,0.7375,0.10638297,-823.872,-73.534195,0.023111261,0.001883328,-0.03425598,0.0,0.0,0.0
432.37,356.22998,71755354,0.7625,0.11702127,-1179.2649,78.850296,0.01848901,0.06550664,0.18859577,0.0,0.0,0.0
416.58643,361.0271,71755370,0.7375,0.08510638,-1249.4128,241.02937,0.01848901,0.06550664,0.18859577,0.0,0.0,0.0
398.47003,369.6482,71755387,0.7375,0.06382979,-1233.3235,477.62204,0.01848901,0.06550664,0.18859577,0.0,0.0,0.0
386.1092,378.89807,71755404,0.7375,0.09574468,-1002.07336,673.66473,0.01848901,0.06550664,0.18859577,0.0,0.0,0.0
376.4072,387.662,71755420,0.7375,0.11702127,-734.8132,740.68036,0.01848901,0.06550664,0.18859577,0.0,0.0,0.0
368.45355,396.9098,71755437,0.7375,0.10638297,-420.92834,654.4938,0.01848901,0.06550664,0.18859577,0.0,0.0,0.0
359.6216,409.40393,71755454,0.75,0.08510638,-283.69748,663.37103,0.01848901,0.06550664,0.18859577,0.0,0.0,0.0
348.82108,429.98865,71755471,0.7375,0.08510638,-444.52094,999.9335,0.01848901,0.06550664,0.18859577,0.0,0.0,0.0
342.60016,442.5631,71755487,0.75,0.09574468,-498.5564,1168.1719,0.01848901,0.06550664,0.18859577,0.0,0.0,0.0
339.47772,452.92065,71755504,0.75,0.10638297,-346.97522,969.3507,0.01848901,0.06550664,0.18859577,0.0,0.0,0.0
338.86755,463.79932,71755521,0.75,0.08510638,-47.266804,627.61273,0.01848901,0.06550664,0.18859577,0.0,0.0,0.0
340.7971,474.97754,71755537,0.7375,0.06382979,222.0308,445.15045,0.01848901,0.06550664,0.18859577,0.0,0.0,0.0
344.47006,483.4076,71755554,0.7375,0.08510638,360.04776,478.74982,0.01848901,0.06550664,0.18859577,0.0,0.0,0.0
349.7182,488.8678,71755571,0.7375,0.08510638,422.49963,424.92236,0.01848901,0.06550664,0.18859577,0.0,0.0,0.0
355.97308,493.35754,71755588,0.7375,0.08510638,480.63913,246.68279,0.01848901,0.06550664,0.18859577,0.0,0.0,0.0
362.83142,495.66113,71755604,0.7375,0.09574468,507.74396,70.73162,0.01848901,0.06550664,0.18859577,0.0,0.0,0.0
370.6547,494.4845,71755621,0.725,0.08510638,520.63116,-91.83373,0.01848901,0.06550664,0.18859577,0.0,0.0,0.0
378.8789,488.33167,71755638,0.7375,0.07446808,537.8214,-310.68137,0.01848901,0.06550664,0.18859577,0.0,0.0,0.0
388.21735,478.64233,71755654,0.7375,0.08510638,571.58405,-651.866,0.01848901,0.06550664,0.18859577,0.0,0.0,0.0
397.25412,466.15417,71755671,0.725,0.10638297,603.26044,-908.0489,0.01848901,0.06550664,0.18859577,0.0,0.0,0.0
405.1134,453.15247,71755688,0.7375,0.08510638,555.0942,-1022.6945,0.01848901,0.06550664,0.18859577,0.0,0.0,0.0
413.92227,435.56128,71755705,0.71250004,0.07446808,493.73746,-1067.9436,0.01848901,0.06550664,0.18859577,0.0,0.0,0.0
420.07175,421.66504,71755721,0.71250004,0.11702127,438.2656,-1111.6058,0.01848901,0.06550664,0.18859577,0.0,0.0,0.0
425.52527,410.92297,71755738,0.71250004,0.12765957,324.71085,-893.9269,0.01848901,0.06550664,0.18859577,0.0,0.0,0.0
433.90356,396.0299,71755755,0.71250004,0.06382979,358.451,-775.368,0.01848901,0.06550664,0.18859577,0.0,0.0,0.0
442.16696,382.22937,71755771,0.725,0.08510638,443.92133,-759.1501,0.01848901,0.06550664,0.18859577,0.0,0.0,0.0
448.32288,371.28687,71755788,0.725,0.09574468,464.46124,-719.97437,0.01848901,0.06550664,0.18859577,0.0,0.0,0.0
451.07593,365.287,71755805,0.7375,0.10638297,351.51135,-588.4943,0.01848901,0.06550664,0.18859577,0.0,0.0,0.0
452.4781,360.9729,71755822,0.725,0.10638297,93.27884,-246.70752,0.01848901,0.06550664,0.18859577,0.0,0.0,0.0
453.0332,358.11072,71755838,0.7375,0.10638297,-83.44305,-6.9450183,0.01848901,0.06550664,0.18859577,0.0,0.0,0.0
453.33026,355.7323,71755855,0.725,0.10638297,-106.571495,28.57698,0.01848901,0.06550664,0.18859577,0.0,0.0,0.0
453.33026,353.94482,71755871,0.7375,0.10638297,-94.92851,21.741941,0.01848901,0.06550664,0.18859577,0.0,0.0,0.0
453.33026,354.38916,71755888,0.75,0.10638297,-36.04593,21.268785,-0.017208785,-0.04359469,-0.049123764,0.0,0.0,0.0
452.96954,356.56018,71755905,0.75,0.08510638,-26.205961,107.87349,-0.017208785,-0.04359469,-0.049123764,0.0,0.0,0.0
451.161,365.65527,71755922,0.7375,0.06382979,-63.51722,379.0392,-0.017208785,-0.04359469,-0.049123764,0.0,0.0,0.0
448.54083,377.636,71755939,0.75,0.08510638,-143.44551,752.0179,-0.017208785,-0.04359469,-0.049123764,0.0,0.0,0.0
445.37506,389.75452,71755955,0.725,0.09574468,-225.57098,987.94244,-0.017208785,-0.04359469,-0.049123764,0.0,0.0,0.0
441.21924,402.72595,71755972,0.7375,0.10638297,-284.0342,991.92957,-0.017208785,-0.04359469,-0.049123764,0.0,0.0,0.0
437.05936,415.78906,71755989,0.725,0.07446808,-302.1192,920.123,-0.017208785,-0.04359469,-0.049123764,0.0,0.0,0.0
433.37424,429.7788,71756005,0.7375,0.08510638,-277.57077,850.4688,-0.017208785,-0.04359469,-0.049123764,0.0,0.0,0.0
432.19382,440.95923,71756022,0.7375,0.10638297,-185.33913,804.7659,-0.017208785,-0.04359469,-0.049123764,0.0,0.0,0.0
431.6816,449.95398,71756039,0.725,0.12765957,-52.172836,650.8231,-0.017208785,-0.04359469,-0.049123764,0.0,0.0,0.0
431.33743,458.61597,71756055,0.7375,0.10638297,52.28735,467.59988,-0.017208785,-0.04359469,-0.049123764,0.0,0.0,0.0
432.3715,469.18945,71756072,0.725,0.08510638,96.11782,430.77057,-0.017208785,-0.04359469,-0.049123764,0.0,0.0,0.0
433.94214,478.45374,71756089,0.725,0.07446808,127.4067,509.14807,-0.017208785,-0.04359469,-0.049123764,0.0,0.0,0.0
436.01053,485.0204,71756106,0.725,0.08510638,158.77342,516.2997,-0.017208785,-0.04359469,-0.049123764,0.0,0.0,0.0
437.95392,488.10132,71756122,0.7375,0.08510638,168.88074,298.85486,-0.017208785,-0.04359469,-0.049123764,0.0,0.0,0.0
440.9862,491.79785,71756139,0.7375,0.08510638,173.4149,95.483185,-0.017208785,-0.04359469,-0.049123764,0.0,0.0,0.0
446.14746,494.7069,71756156,0.7375,0.09574468,246.84053,22.256634,-0.017208785,-0.04359469,-0.049123764,0.0,0.0,0.0
449.86432,495.66113,71756172,0.725,0.08510638,313.51453,28.719988,-0.017208785,-0.04359469,-0.049123764,0.0,0.0,0.0
453.48572,495.66113,71756189,0.7375,0.08510638,301.76575,-4.010332,-0.017208785,-0.04359469,-0.049123764,0.0,0.0,0.0
458.84662,492.68872,71756206,0.725,0.07446808,289.2023,-144.19403,-0.017208785,-0.04359469,-0.049123764,0.0,0.0,0.0
464.7384,486.0443,71756223,0.725,0.08510638,320.70132,-366.15173,-0.017208785,-0.04359469,-0.049123764,0.0,0.0,0.0
470.81586,476.42322,71756239,0.725,0.11702127,379.90582,-606.28094,-0.017208785,-0.04359469,-0.049123764,0.0,0.0,0.0
477.5929,464.97144,71756256,0.725,0.10638297,443.5032,-808.9922,-0.017208785,-0.04359469,-0.049123764,0.0,0.0,0.0
485.8271,451.2229,71756273,0.725,0.07446808,478.23813,-937.5333,-0.017208785,-0.04359469,-0.049123764,0.0,0.0,0.0
493.52216,437.11145,71756289,0.7375,0.08510638,506.6764,-972.65295,-0.017208785,-0.04359469,-0.049123764,0.0,0.0,0.0
501.0943,421.7284,71756306,0.7375,0.10638297,520.3287,-1011.5356,-0.017208785,-0.04359469,-0.049123764,0.0,0.0,0.0
510.09967,403.2522,71756323,0.75,0.09574468,500.19092,-1058.1265,-0.017208785,-0.04359469,-0.049123764,0.0,0.0,0.0
518.1376,383.72302,71756340,0.725,0.07446808,515.3829,-1210.1285,-0.017208785,-0.04359469,-0.049123764,0.0,0.0,0.0
524.025,366.84253,71756356,0.725,0.08510638,451.8018,-1215.4613,-0.017208785,-0.04359469,-0.049123764,0.0,0.0,0.0
529.7514,350.11926,71756373,0.7375,0.12765957,361.8066,-1133.8788,-0.017208785,-0.04359469,-0.049123764,0.0,0.0,0.0
534.92975,331.68396,71756390,0.7375,0.08510638,268.31506,-1051.5311,-0.017208785,-0.04359469,-0.049123764,0.0,0.0,0.0
539.6024,316.00513,71756406,0.7375,0.10638297,221.43855,-971.0392,-0.017208785,-0.04359469,-0.049123764,0.0,0.0,0.0
545.3115,298.5553,71756423,0.7375,0.10638297,273.16647,-1014.91766,0.0022329688,0.013124257,-0.023299217,0.0,0.0,0.0
551.11084,281.14343,71756440,0.75,0.06382979,315.82343,-1025.3091,0.0022329688,0.013124257,-0.023299217,0.0,0.0,0.0
557.23004,266.05945,71756457,0.7375,0.08510638,352.71567,-951.9257,0.0022329688,0.013124257,-0.023299217,0.0,0.0,0.0
566.1914,245.81982,71756473,0.7375,0.12765957,485.3238,-1066.2377,0.0022329688,0.013124257,-0.023299217,0.0,0.0,0.0
572.35895,231.19177,71756490,0.7375,0.08510638,496.6227,-1041.2284,0.0022329688,0.013124257,-0.023299217,0.0,0.0,0.0
578.8078,216.44775,71756507,0.725,0.07446808,446.37717,-927.5112,0.0022329688,0.013124257,-0.023299217,0.0,0.0,0.0
582.4781,206.83582,71756523,0.725,0.11702127,312.7996,-709.827,0.0022329688,0.013124257,-0.023299217,0.0,0.0,0.0
587.1434,195.17065,71756540,0.725,0.12765957,180.13327,-481.06296,0.0022329688,0.013124257,-0.023299217,0.0,0.0,0.0
592.3501,182.21313,71756557,0.725,0.10638297,202.04654,-552.73145,0.0022329688,0.013124257,-0.023299217,0.0,0.0,0.0
598.1144,167.33472,71756574,0.725,0.07446808,278.85843,-748.0574,0.0022329688,0.013124257,-0.023299217,0.0,0.0,0.0
601.32,154.31873,71756590,0.7375,0.10638297,293.55902,-892.7373,0.0022329688,0.013124257,-0.023299217,0.0,0.0,0.0
602.88275,145.1416,71756607,0.725,0.12765957,180.92142,-785.7202,0.0022329688,0.013124257,-0.023299217,0.0,0.0,0.0
603.88153,134.92664,71756624,0.7375,0.10638297,26.993528,-577.9794,0.0022329688,0.013124257,-0.023299217,0.0,0.0,0.0
603.6503,127.7782,71756640,0.725,0.08510638,-68.10039,-409.69547,0.0022329688,0.013124257,-0.023299217,0.0,0.0,0.0
601.87115,121.3949,71756657,0.725,0.08510638,-136.4951,-306.9013,0.0022329688,0.013124257,-0.023299217,0.0,0.0,0.0
599.8596,116.03137,71756674,0.75,0.09574468,-176.479,-260.17825,0.0022329688,0.013124257,-0.023299217,0.0,0.0,0.0
597.02527,110.48035,71756690,0.725,0.08510638,-229.09322,-233.56339,0.0022329688,0.013124257,-0.023299217,0.0,0.0,0.0
593.89905,106.3363,71756707,0.75,0.09574468,-242.8955,-238.0491,0.0022329688,0.013124257,-0.023299217,0.0,0.0,0.0
589.822,102.79065,71756724,0.725,0.08510638,-245.73471,-196.3803,0.0022329688,0.013124257,-0.023299217,0.0,0.0,0.0
583.3986,99.670654,71756741,0.7375,0.08510638,-330.39362,-157.4946,0.0022329688,0.013124257,-0.023299217,0.0,0.0,0.0
576.75183,97.82532,71756757,0.7375,0.08510638,-420.33423,-94.24199,0.0022329688,0.013124257,-0.023299217,0.0,0.0,0.0
571.0293,97.611694,71756774,0.7375,0.08510638,-471.8689,-25.223234,0.0022329688,0.013124257,-0.023299217,0.0,0.0,0.0
565.807,97.611694,71756791,0.7375,0.08510638,-417.03568,45.098785,0.0022329688,0.013124257,-0.023299217,0.0,0.0,0.0
561.149,99.45361,71756807,0.7375,0.08510638,-303.24893,129.10764,0.0022329688,0.013124257,-0.023299217,0.0,0.0,0.0
557.57947,102.31116,71756824,0.75,0.08510638,-216.01878,195.65926,0.0022329688,0.013124257,-0.023299217,0.0,0.0,0.0
553.20184,110.43298,71756841,0.75,0.08510638,-188.51364,368.19885,0.0022329688,0.013124257,-0.023299217,0.0,0.0,0.0
549.1217,118.66345,71756858,0.7375,0.12765957,-208.20361,564.95056,0.0022329688,0.013124257,-0.023299217,0.0,0.0,0.0
547.6325,129.60168,71756874,0.7375,0.12765957,-164.12445,752.3239,0.0022329688,0.013124257,-0.023299217,0.0,0.0,0.0
546.79987,139.81091,71756891,0.7375,0.08510638,-70.126205,797.4434,0.0022329688,0.013124257,-0.023299217,0.0,0.0,0.0
546.03046,156.05298,71756908,0.7375,0.08510638,23.511503,910.1167,0.0022329688,0.013124257,-0.023299217,0.0,0.0,0.0
545.49493,169.28186,71756924,0.7375,0.10638297,52.445934,950.58,0.0022329688,0.013124257,-0.023299217,0.0,0.0,0.0
545.30035,183.04431,71756941,0.7375,0.12765957,15.82155,907.55676,0.0022329688,0.013124257,-0.023299217,0.0,0.0,0.0
544.8005,198.58069,71756958,0.725,0.08510638,-10.966359,887.0976,-0.030213628,-0.005500585,-0.018639565,0.0,0.0,0.0
544.8005,216.2461,71756975,0.7375,0.08510638,-3.4334223,975.5728,-0.030213628,-0.005500585,-0.018639565,0.0,0.0,0.0
544.8005,231.32214,71756991,0.7375,0.12765957,7.869537,1036.9727,-0.030213628,-0.005500585,-0.018639565,0.0,0.0,0.0
546.86237,247.32458,71757008,0.7375,0.08510638,64.798645,1011.1514,-0.030213628,-0.005500585,-0.018639565,0.0,0.0,0.0
548.9256,262.99597,71757025,0.725,0.08510638,138.44467,965.5143,-0.030213628,-0.005500585,-0.018639565,0.0,0.0,0.0
551.5853,277.5609,71757041,0.725,0.09574468,196.70071,917.96234,-0.030213628,-0.005500585,-0.018639565,0.0,0.0,0.0
552.9548,291.75903,71757058,0.725,0.09574468,182.74113,875.51654,-0.030213628,-0.005500585,-0.018639565,0.0,0.0,0.0
555.21326,306.70264,71757075,0.71250004,0.06382979,143.69234,846.18134,-0.030213628,-0.005500585,-0.018639565,0.0,0.0,0.0
556.6349,321.2533,71757092,0.725,0.06382979,94.22188,841.6868,-0.030213628,-0.005500585,-0.018639565,0.0,0.0,0.0
558.0019,333.48132,71757108,0.71250004,0.09574468,78.78722,832.8388,-0.030213628,-0.005500585,-0.018639565,0.0,0.0,0.0
559.5696,346.24536,71757125,0.71250004,0.10638297,79.693,757.09406,-0.030213628,-0.005500585,-0.018639565,0.0,0.0,0.0
560.9157,359.1366,71757142,0.71250004,0.08510638,72.55617,682.39606,-0.030213628,-0.005500585,-0.018639565,0.0,0.0,0.0
562.8153,372.5531,71757158,0.7,0.06382979,83.65747,700.08136,-0.030213628,-0.005500585,-0.018639565,0.0,0.0,0.0
564.5721,385.19177,71757175,0.7,0.08510638,104.11307,766.7674,-0.030213628,-0.005500585,-0.018639565,0.0,0.0,0.0
566.2288,396.34753,71757192,0.725,0.10638297,119.78821,739.161,-0.030213628,-0.005500585,-0.018639565,0.0,0.0,0.0
567.7961,408.6206,71757209,0.7,0.08510638,106.77372,685.82117,-0.030213628,-0.005500585,-0.018639565,0.0,0.0,0.0
567.793,420.656,71757225,0.7,0.06382979,48.193485,692.33875,-0.030213628,-0.005500585,-0.018639565,0.0,0.0,0.0
567.793,432.56055,71757242,0.71250004,0.08510638,-11.799449,722.2551,-0.030213628,-0.005500585,-0.018639565,0.0,0.0,0.0
568.4201,441.70532,71757259,0.71250004,0.09574468,-25.553614,664.761,-0.030213628,-0.005500585,-0.018639565,0.0,0.0,0.0
568.29285,449.80823,71757275,0.7,0.10638297,-21.658054,520.2055,-0.030213628,-0.005500585,-0.018639565,0.0,0.0,0.0
568.79266,458.4607,71757292,0.71250004,0.09574468,6.7916093,428.98093,-0.030213628,-0.005500585,-0.018639565,0.0,0.0,0.0
569.29254,464.8169,71757309,0.71250004,0.08510638,32.337196,365.63254,-0.030213628,-0.005500585,-0.018639565,0.0,0.0,0.0
569.29254,468.90784,71757326,0.7,0.08510638,21.157658,276.1881,-0.030213628,-0.005500585,-0.018639565,0.0,0.0,0.0
569.29254,471.04858,71757342,0.71250004,0.06382979,5.8472075,110.94158,-0.030213628,-0.005500585,-0.018639565,0.0,0.0,0.0
568.5132,470.78308,71757359,0.725,0.08510638,-29.829462,-72.11207,-0.030213628,-0.005500585,-0.018639565,0.0,0.0,0.0
567.46814,470.78308,71757376,0.725,0.08510638,-69.73276,-142.38933,-0.030213628,-0.005500585,-0.018639565,0.0,0.0,0.0
566.4024,470.78308,71757392,0.725,0.08510638,-86.96785,-122.592705,-0.030213628,-0.005500585,-0.018639565,0.0,0.0,0.0
565.32745,469.06592,71757409,0.71250004,0.09574468,-88.25411,-103.43284,-0.030213628,-0.005500585,-0.018639565,0.0,0.0,0.0
561.67804,460.74963,71757426,0.7,0.09574468,-148.08614,-297.99826,-0.030213628,-0.005500585,-0.018639565,0.0,0.0,0.0
558.5973,448.6349,71757442,0.7,0.06382979,-227.8714,-728.31323,-0.030213628,-0.005500585,-0.018639565,0.0,0.0,0.0
557.79626,431.739,71757459,0.7,0.08510638,-195.20183,-1086.5896,-0.030213628,-0.005500585,-0.018639565,0.0,0.0,0.0
559.10693,416.15002,71757476,0.725,0.10638297,-48.689537,-1280.0259,-0.030213628,-0.005500585,-0.018639565,0.0,0.0,0.0
561.88654,403.81982,71757493,0.71250004,0.09574468,157.56888,-1125.4316,-0.02417091,-0.020400494,-0.014911652,0.0,0.0,0.0
566.18964,389.15845,71757509,0.725,0.06382979,332.6103,-931.77106,-0.02417091,-0.020400494,-0.014911652,0.0,0.0,0.0
572.6215,373.45032,71757526,0.725,0.08510638,435.95175,-835.65857,-0.02417091,-0.020400494,-0.014911652,0.0,0.0,0.0
578.0211,360.6527,71757543,0.725,0.12765957,462.4927,-859.8881,-0.02417091,-0.020400494,-0.014911652,0.0,0.0,0.0
584.24963,350.21948,71757559,0.71250004,0.11702127,425.7293,-730.68854,-0.02417091,-0.020400494,-0.014911652,0.0,0.0,0.0
594.7303,336.97925,71757576,0.7375,0.08510638,521.41394,-634.6824,-0.02417091,-0.020400494,-0.014911652,0.0,0.0,0.0
606.36334,326.6361,71757593,0.725,0.06382979,684.04047,-603.89636,-0.02417091,-0.020400494,-0.014911652,0.0,0.0,0.0
619.7722,319.9442,71757610,0.7375,0.06382979,872.684,-514.132,-0.02417091,-0.020400494,-0.014911652,0.0,0.0,0.0
630.3077,317.0664,71757626,0.75,0.09574468,866.18317,-260.62555,-0.02417091,-0.020400494,-0.014911652,0.0,0.0,0.0
639.0978,318.97852,71757643,0.7375,0.09574468,676.6882,117.17355,-0.02417091,-0.020400494,-0.014911652,0.0,0.0,0.0
647.3069,322.64282,71757660,0.725,0.08510638,500.47653,394.43668,-0.02417091,-0.020400494,-0.014911652,0.0,0.0,0.0
653.7249,327.25415,71757676,0.7375,0.08510638,348.72498,502.59717,-0.02417091,-0.020400494,-0.014911652,0.0,0.0,0.0
658.6594,331.7572,71757693,0.75,0.09574468,260.40662,489.8106,-0.02417091,-0.020400494,-0.014911652,0.0,0.0,0.0
661.8933,339.79187,71757710,0.7625,0.10638297,167.03877,470.72308,-0.02417091,-0.020400494,-0.014911652,0.0,0.0,0.0
659.39923,353.17847,71757727,0.75,0.10638297,-55.778828,673.3045,-0.02417091,-0.020400494,-0.014911652,0.0,0.0,0.0
652.15924,365.193,71757743,0.725,0.08510638,-399.05478,885.3695,-0.02417091,-0.020400494,-0.014911652,0.0,0.0,0.0
635.85175,383.48657,71757760,0.7375,0.09574468,-899.1949,1103.0825,-0.02417091,-0.020400494,-0.014911652,0.0,0.0,0.0
612.8244,399.36523,71757777,0.725,0.12765957,-1488.8491,1190.5079,-0.02417091,-0.020400494,-0.014911652,0.0,0.0,0.0
597.51306,406.25195,71757793,0.71250004,0.11702127,-1595.6018,828.7548,-0.02417091,-0.020400494,-0.014911652,0.0,0.0,0.0
588.72235,407.69934,71757810,0.71250004,0.10638297,-1099.6476,288.65836,-0.02417091,-0.020400494,-0.014911652,0.0,0.0,0.0
582.8821,406.85254,71757827,0.7,0.10638297,-450.45538,-243.02309,-0.02417091,-0.020400494,-0.014911652,0.0,0.0,0.0
580.77484,403.21948,71757844,0.725,0.10638297,56.04724,-498.308,-0.02417091,-0.020400494,-0.014911652,0.0,0.0,0.0
581.3561,392.76428,71757860,0.725,0.08510638,219.74838,-654.9724,-0.02417091,-0.020400494,-0.014911652,0.0,0.0,0.0
585.2382,380.73083,71757877,0.725,0.09574468,335.37418,-869.032,-0.02417091,-0.020400494,-0.014911652,0.0,0.0,0.0
587.8793,375.54834,71757894,0.7375,0.09574468,388.93484,-804.2357,-0.02417091,-0.020400494,-0.014911652,0.0,0.0,0.0
590.5497,371.92456,71757910,0.725,0.08510638,344.72528,-501.5098,-0.02417091,-0.020400494,-0.014911652,0.0,0.0,0.0
592.5927,370.3822,71757927,0.7375,0.08510638,194.79053,-17.508812,-0.02417091,-0.020400494,-0.014911652,0.0,0.0,0.0
594.6427,370.70068,71757944,0.725,0.08510638,101.07869,173.09764,-0.02417091,-0.020400494,-0.014911652,0.0,0.0,0.0
597.0561,373.07446,71757961,0.725,0.08510638,98.39653,219.90935,-0.02417091,-0.020400494,-0.014911652,0.0,0.0,0.0
600.69867,378.61523,71757977,0.7375,0.08510638,159.73166,331.37784,-0.02417091,-0.020400494,-0.014911652,0.0,0.0,0.0
606.6121,386.6693,71757994,0.725,0.10638297,283.33017,520.3898,-0.02417091,-0.020400494,-0.014911652,0.0,0.0,0.0
613.969,397.58203,71758011,0.725,0.10638297,436.16394,703.6596,-0.02417091,-0.020400494,-0.014911652,0.0,0.0,0.0
623.27295,408.8816,71758027,0.725,0.08510638,576.3771,819.4678,-0.019336734,-3.2037497E-4,0.020070076,0.0,0.0,0.0
631.94434,420.37634,71758044,0.725,0.08510638,633.2993,819.36725,-0.019336734,-3.2037497E-4,0.020070076,0.0,0.0,0.0
639.5764,432.15613,71758061,0.71250004,0.09574468,600.6053,808.79517,-0.019336734,-3.2037497E-4,0.020070076,0.0,0.0,0.0
648.6225,441.81372,71758077,0.71250004,0.12765957,567.86957,730.2404,-0.019336734,-3.2037497E-4,0.020070076,0.0,0.0,0.0
657.75336,450.73413,71758094,0.71250004,0.10638297,558.91736,605.06366,-0.019336734,-3.2037497E-4,0.020070076,0.0,0.0,0.0
665.1404,456.47485,71758111,0.71250004,0.10638297,529.3363,446.3051,-0.019336734,-3.2037497E-4,0.020070076,0.0,0.0,0.0
671.7125,461.4817,71758128,0.71250004,0.09574468,445.4141,241.97676,-0.019336734,-3.2037497E-4,0.020070076,0.0,0.0,0.0
678.93384,465.69263,71758144,0.725,0.08510638,351.73605,143.90584,-0.019336734,-3.2037497E-4,0.020070076,0.0,0.0,0.0
682.954,467.64282,71758161,0.71250004,0.08510638,273.7699,77.675186,-0.019336734,-3.2037497E-4,0.020070076,0.0,0.0,0.0
685.606,468.11755,71758178,0.725,0.08510638,160.17638,0.64773005,-0.019336734,-3.2037497E-4,0.020070076,0.0,0.0,0.0
687.3723,468.11755,71758194,0.725,0.08510638,51.56974,-70.89374,-0.019336734,-3.2037497E-4,0.020070076,0.0,0.0,0.0
689.1593,468.11755,71758211,0.725,0.09574468,-14.056361,-114.46121,-0.019336734,-3.2037497E-4,0.020070076,0.0,0.0,0.0
690.2029,468.11755,71758228,0.725,0.09574468,-7.4101796,-78.948456,-0.019336734,-3.2037497E-4,0.020070076,0.0,0.0,0.0
691.24603,467.2411,71758245,0.725,0.11702127,31.52047,-40.931015,-0.019336734,-3.2037497E-4,0.020070076,0.0,0.0,0.0
692.26636,465.42737,71758261,0.71250004,0.12765957,35.735245,-84.21399,-0.019336734,-3.2037497E-4,0.020070076,0.0,0.0,0.0
694.4978,459.5382,71758278,0.7,0.11702127,75.348274,-242.65942,-0.019336734,-3.2037497E-4,0.020070076,0.0,0.0,0.0
697.56976,450.29114,71758295,0.71250004,0.09574468,155.06165,-505.5851,-0.019336734,-3.2037497E-4,0.020070076,0.0,0.0,0.0
701.4616,440.57947,71758311,0.725,0.08510638,234.31303,-699.4501,-0.019336734,-3.2037497E-4,0.020070076,0.0,0.0,0.0
705.0107,432.99976,71758328,0.71250004,0.08510638,285.5009,-742.2341,-0.019336734,-3.2037497E-4,0.020070076,0.0,0.0,0.0
709.3932,425.61694,71758345,0.7,0.08510638,285.0299,-561.5071,-0.019336734,-3.2037497E-4,0.020070076,0.0,0.0,0.0
715.4547,417.06836,71758362,0.71250004,0.10638297,312.40015,-436.11255,-0.019336734,-3.2037497E-4,0.020070076,0.0,0.0,0.0
724.7672,406.98328,71758378,0.71250004,0.10638297,476.16653,-501.226,-0.019336734,-3.2037497E-4,0.020070076,0.0,0.0,0.0
732.95233,398.34412,71758395,0.71250004,0.08510638,601.22345,-562.13354,-0.019336734,-3.2037497E-4,0.020070076,0.0,0.0,0.0
741.00354,391.0249,71758412,0.71250004,0.09574468,615.8331,-547.14685,-0.019336734,-3.2037497E-4,0.020070076,0.0,0.0,0.0
749.342,382.8385,71758428,0.7,0.08510638,543.48083,-453.46927,-0.019336734,-3.2037497E-4,0.020070076,0.0,0.0,0.0
757.51337,374.2129,71758445,0.725,0.08510638,493.02606,-435.90344,-0.019336734,-3.2037497E-4,0.020070076,0.0,0.0,0.0
766.3309,364.94995,71758462,0.7,0.10638297,505.34418,-519.848,-0.019336734,-3.2037497E-4,0.020070076,0.0,0.0,0.0
775.71515,353.80884,71758479,0.71250004,0.09574468,555.4942,-640.5791,-0.019336734,-3.2037497E-4,0.020070076,0.0,0.0,0.0
784.46014,343.7964,71758495,0.71250004,0.08510638,564.0389,-686.3876,-0.019336734,-3.2037497E-4,0.020070076,0.0,0.0,0.0
792.1905,333.54858,71758512,0.71250004,0.07446808,525.27576,-669.03455,-0.019336734,-3.2037497E-4,0.020070076,0.0,0.0,0.0
798.88086,325.36926,71758529,0.6875,0.08510638,443.96814,-583.8466,-0.019336734,-3.2037497E-4,0.020070076,0.0,0.0,0.0
805.0563,319.6051,71758545,0.7,0.09574468,349.07425,-424.92224,-0.019336734,-3.2037497E-4,0.020070076,0.0,0.0,0.0
811.73956,314.52026,71758562,0.71250004,0.08510638,326.98285,-266.60614,-0.015469391,-0.016256303,5.6266785E-5,0.0,0.0,0.0
818.9399,310.97302,71758579,0.7,0.08510638,369.38547,-153.0156,-0.015469391,-0.016256303,5.6266785E-5,0.0,0.0,0.0
827.4392,308.57996,71758596,0.7,0.09574468,454.18344,-77.18744,-0.015469391,-0.016256303,5.6266785E-5,0.0,0.0,0.0
835.9309,308.187,71758612,0.725,0.08510638,528.14594,1.6795807,-0.015469391,-0.016256303,5.6266785E-5,0.0,0.0,0.0
842.3252,308.187,71758629,0.71250004,0.08510638,519.32623,73.44765,-0.015469391,-0.016256303,5.6266785E-5,0.0,0.0,0.0
846.8872,308.187,71758646,0.7,0.08510638,357.62717,96.80394,-0.015469391,-0.016256303,5.6266785E-5,0.0,0.0,0.0
850.6071,309.90845,71758662,0.71250004,0.08510638,203.18277,117.61652,-0.015469391,-0.016256303,5.6266785E-5,0.0,0.0,0.0
852.75635,311.79077,71758679,0.7,0.08510638,81.63499,137.00407,-0.015469391,-0.016256303,5.6266785E-5,0.0,0.0,0.0
854.3349,313.63806,71758696,0.71250004,0.09574468,22.313381,155.37086,-0.015469391,-0.016256303,5.6266785E-5,0.0,0.0,0.0
856.2942,315.37952,71758713,0.71250004,0.08510638,33.251667,155.39784,-0.015469391,-0.016256303,5.6266785E-5,0.0,0.0,0.0
858.468,317.31152,71758729,0.71250004,0.08510638,60.771603,131.50574,-0.015469391,-0.016256303,5.6266785E-5,0.0,0.0,0.0
858.6983,317.96057,71758746,0.725,0.09574468,61.041348,83.10763,-0.015469391,-0.016256303,5.6266785E-5,0.0,0.0,0.0
858.6983,317.96057,71758763,0.71250004,0.08510638,20.150253,26.424404,-0.015469391,-0.016256303,5.6266785E-5,0.0,0.0,0.0
858.6983,319.20825,71758779,0.7,0.08510638,-50.57198,-5.9416676,-0.015469391,-0.016256303,5.6266785E-5,0.0,0.0,0.0
858.6983,318.849,71758796,0.6875,0.08510638,-53.15587,-18.10565,-0.015469391,-0.016256303,5.6266785E-5,0.0,0.0,0.0
857.59064,317.4203,71758813,0.675,0.07446808,-46.851704,-47.533424,-0.015469391,-0.016256303,5.6266785E-5,0.0,0.0,0.0
853.7073,315.59338,71758829,0.7,0.08510638,-132.72044,-104.44259,-0.015469391,-0.016256303,5.6266785E-5,0.0,0.0,0.0
842.6382,312.99365,71758846,0.6875,0.08510638,-442.43155,-173.96208,-0.015469391,-0.016256303,5.6266785E-5,0.0,0.0,0.0
827.25806,310.9276,71758863,0.7,0.08510638,-900.1315,-197.37697,-0.015469391,-0.016256303,5.6266785E-5,0.0,0.0,0.0
812.99805,310.85254,71758880,0.7,0.08510638,-1200.5646,-92.181335,-0.015469391,-0.016256303,5.6266785E-5,0.0,0.0,0.0
801.75433,312.71167,71758896,0.71250004,0.06382979,-1038.7397,69.06013,-0.015469391,-0.016256303,5.6266785E-5,0.0,0.0,0.0
789.70404,317.56482,71758913,0.7,0.06382979,-852.7199,247.79233,-0.015469391,-0.016256303,5.6266785E-5,0.0,0.0,0.0
778.92194,325.33716,71758930,0.725,0.08510638,-634.4703,480.3557,-0.015469391,-0.016256303,5.6266785E-5,0.0,0.0,0.0
769.20416,333.68042,71758946,0.7,0.11702127,-544.03125,632.4076,-0.015469391,-0.016256303,5.6266785E-5,0.0,0.0,0.0
761.5744,341.63977,71758963,0.71250004,0.12765957,-474.73416,660.0971,-0.015469391,-0.016256303,5.6266785E-5,0.0,0.0,0.0
754.8092,351.5868,71758980,0.7375,0.08510638,-345.17117,601.1713,-0.015469391,-0.016256303,5.6266785E-5,0.0,0.0,0.0
747.2158,368.67175,71758997,0.725,0.08510638,-343.18115,824.5395,-0.015469391,-0.016256303,5.6266785E-5,0.0,0.0,0.0
743.66656,382.80762,71759013,0.725,0.08510638,-272.24448,1021.4408,-0.015469391,-0.016256303,5.6266785E-5,0.0,0.0,0.0
742.7361,394.77734,71759030,0.725,0.12765957,-104.77909,994.8705,-0.015469391,-0.016256303,5.6266785E-5,0.0,0.0,0.0
743.1089,407.2329,71759047,0.7375,0.10638297,84.78,823.74945,-0.015469391,-0.016256303,5.6266785E-5,0.0,0.0,0.0
744.5961,420.92493,71759063,0.7375,0.08510638,219.7943,676.7184,-0.015469391,-0.016256303,5.6266785E-5,0.0,0.0,0.0
747.7258,433.4353,71759080,0.71250004,0.09574468,264.52954,751.8142,-0.015469391,-0.016256303,5.6266785E-5,0.0,0.0,0.0
750.8375,442.59766,71759097,0.71250004,0.12765957,276.38754,700.1511,-0.028375514,-0.013005048,-0.06395531,0.0,0.0,0.0
753.9554,447.94617,71759114,0.725,0.12765957,267.33154,459.66995,-0.028375514,-0.013005048,-0.06395531,0.0,0.0,0.0
758.2069,453.64722,71759130,0.71250004,0.10638297,268.85632,219.16481,-0.028375514,-0.013005048,-0.06395531,0.0,0.0,0.0
763.81757,458.86682,71759147,0.7375,0.09574468,311.28375,120.46108,-0.028375514,-0.013005048,-0.06395531,0.0,0.0,0.0
769.6476,463.44067,71759164,0.71250004,0.08510638,373.7651,167.50899,-0.028375514,-0.013005048,-0.06395531,0.0,0.0,0.0
775.08484,463.67505,71759180,0.725,0.09574468,398.26895,123.8219,-0.028375514,-0.013005048,-0.06395531,0.0,0.0,0.0
785.79614,460.48047,71759197,0.7,0.12765957,501.6829,-108.57667,-0.028375514,-0.013005048,-0.06395531,0.0,0.0,0.0
796.4269,451.15454,71759214,0.7,0.09574468,661.8078,-510.5327,-0.028375514,-0.013005048,-0.06395531,0.0,0.0,0.0
805.33685,437.6931,71759231,0.6875,0.07446808,706.5462,-900.744,-0.028375514,-0.013005048,-0.06395531,0.0,0.0,0.0
818.562,411.88525,71759247,0.7,0.12765957,742.5851,-1396.1366,-0.028375514,-0.013005048,-0.06395531,0.0,0.0,0.0
826.77423,393.73828,71759264,0.6875,0.08510638,685.4665,-1723.6991,-0.028375514,-0.013005048,-0.06395531,0.0,0.0,0.0
832.9957,370.86816,71759281,0.7,0.08510638,503.12067,-1658.9473,-0.028375514,-0.013005048,-0.06395531,0.0,0.0,0.0
833.7065,353.17322,71759297,0.7,0.09574468,195.03178,-1401.5463,-0.028375514,-0.013005048,-0.06395531,0.0,0.0,0.0
832.5835,340.29468,71759314,0.6875,0.08510638,-157.13034,-952.85895,-0.028375514,-0.013005048,-0.06395531,0.0,0.0,0.0
829.89667,330.36694,71759331,0.7,0.06382979,-363.77274,-581.4992,-0.028375514,-0.013005048,-0.06395531,0.0,0.0,0.0
826.92725,324.5686,71759348,0.71250004,0.08510638,-379.22333,-320.69202,-0.028375514,-0.013005048,-0.06395531,0.0,0.0,0.0
823.542,320.7235,71759364,0.71250004,0.09574468,-318.2532,-11.522324,-0.028375514,-0.013005048,-0.06395531,0.0,0.0,0.0
820.7896,317.2124,71759381,0.7,0.09574468,-253.14696,27.847443,-0.028375514,-0.013005048,-0.06395531,0.0,0.0,0.0
818.97455,314.8745,71759398,0.7,0.09574468,-157.10374,-4.532081,-0.028375514,-0.013005048,-0.06395531,0.0,0.0,0.0
817.9387,314.4065,71759414,0.7,0.09574468,-75.75018,-10.107204,-0.028375514,-0.013005048,-0.06395531,0.0,0.0,0.0
816.9536,316.2129,71759431,0.725,0.08510638,-25.295557,72.61311,-0.028375514,-0.013005048,-0.06395531,0.0,0.0,0.0
816.712,322.91138,71759448,0.71250004,0.09574468,13.103765,333.90915,-0.028375514,-0.013005048,-0.06395531,0.0,0.0,0.0
817.57996,332.54883,71759464,0.725,0.10638297,46.518562,608.5017,-0.028375514,-0.013005048,-0.06395531,0.0,0.0,0.0
819.05316,342.88464,71759481,0.725,0.12765957,93.16224,789.0363,-0.028375514,-0.013005048,-0.06395531,0.0,0.0,0.0
821.20496,354.3595,71759498,0.71250004,0.10638297,152.33319,851.5877,-0.028375514,-0.013005048,-0.06395531,0.0,0.0,0.0
824.4488,367.82068,71759515,0.71250004,0.06382979,206.40857,857.6147,-0.028375514,-0.013005048,-0.06395531,0.0,0.0,0.0
827.9377,379.1941,71759531,0.71250004,0.08510638,252.67284,855.00397,-0.028375514,-0.013005048,-0.06395531,0.0,0.0,0.0
832.0913,389.00598,71759548,0.71250004,0.10638297,285.94943,759.84985,-0.028375514,-0.013005048,-0.06395531,0.0,0.0,0.0
835.93726,396.56018,71759565,0.7,0.10638297,290.0316,574.2171,-0.028375514,-0.013005048,-0.06395531,0.0,0.0,0.0
841.0951,405.29272,71759581,0.6875,0.08510638,293.93497,402.50217,-0.028375514,-0.013005048,-0.06395531,0.0,0.0,0.0
846.6701,415.6388,71759598,0.675,0.07446808,332.568,450.591,-0.028375514,-0.013005048,-0.06395531,0.0,0.0,0.0
853.8155,427.84473,71759615,0.6875,0.08510638,420.09222,659.61115,-0.028375514,-0.013005048,-0.06395531,0.0,0.0,0.0
858.1115,433.9552,71759632,0.7,0.09574468,390.17828,619.01373,-0.022700414,0.005595982,0.012835503,0.0,0.0,0.0
864.3463,440.70715,71759648,0.6875,0.10638297,351.7229,442.79218,-0.022700414,0.005595982,0.012835503,0.0,0.0,0.0
870.5837,446.25073,71759665,0.6875,0.12765957,342.77557,252.85382,-0.022700414,0.005595982,0.012835503,0.0,0.0,0.0
878.17346,451.0056,71759682,0.6875,0.10638297,407.39743,216.58997,-0.022700414,0.005595982,0.012835503,0.0,0.0,0.0
885.5344,453.86206,71759698,0.6875,0.10638297,478.7638,168.53017,-0.022700414,0.005595982,0.012835503,0.0,0.0,0.0
892.81415,455.71606,71759715,0.6875,0.10638297,490.9872,85.08139,-0.022700414,0.005595982,0.012835503,0.0,0.0,0.0
899.56494,456.56702,71759732,0.6875,0.12765957,451.58676,3.0559678,-0.022700414,0.005595982,0.012835503,0.0,0.0,0.0
905.174,454.6156,71759749,0.6875,0.11702127,378.05087,-113.547066,-0.022700414,0.005595982,0.012835503,0.0,0.0,0.0
914.6368,448.3086,71759765,0.6875,0.09574468,404.42203,-300.09134,-0.022700414,0.005595982,0.012835503,0.0,0.0,0.0
926.99396,436.5503,71759782,0.6625,0.06382979,596.85516,-627.8262,-0.022700414,0.005595982,0.012835503,0.0,0.0,0.0
936.4283,423.23877,71759799,0.675,0.09574468,730.9374,-941.98785,-0.022700414,0.005595982,0.012835503,0.0,0.0,0.0
945.23724,408.46863,71759815,0.6625,0.09574468,709.1615,-1127.3842,-0.022700414,0.005595982,0.012835503,0.0,0.0,0.0
956.37646,384.21545,71759832,0.65000004,0.06382979,619.06,-1351.5988,-0.022700414,0.005595982,0.012835503,0.0,0.0,0.0
961.68567,363.44678,71759849,0.6625,0.10638297,459.57437,-1533.9146,-0.022700414,0.005595982,0.012835503,0.0,0.0,0.0
964.42554,341.1494,71759866,0.6625,0.08510638,244.17986,-1568.6687,-0.022700414,0.005595982,0.012835503,0.0,0.0,0.0
965.1637,320.32007,71759882,0.65000004,0.08510638,-7.6519237,-1502.8351,-0.022700414,0.005595982,0.012835503,0.0,0.0,0.0
965.1637,296.4585,71759899,0.6625,0.12765957,-190.9148,-1274.9723,-0.022700414,0.005595982,0.012835503,0.0,0.0,0.0
965.1604,265.463,71759916,0.65000004,0.08510638,-175.79099,-1600.9875,-0.022700414,0.005595982,0.012835503,0.0,0.0,0.0
965.1637,247.8346,71759932,0.65000004,0.12765957,-94.903404,-1619.1703,-0.022700414,0.005595982,0.012835503,0.0,0.0,0.0
964.76465,228.77393,71759949,0.65000004,0.08510638,-51.56775,-1303.0667,-0.022700414,0.005595982,0.012835503,0.0,0.0,0.0
964.6638,211.16357,71759966,0.65000004,0.07446808,-27.11569,-998.1984,-0.022700414,0.005595982,0.012835503,0.0,0.0,0.0
965.8229,192.1903,71759983,0.6375,0.12765957,20.701239,-779.53143,-0.022700414,0.005595982,0.012835503,0.0,0.0,0.0
967.55676,177.44226,71759999,0.6375,0.08510638,88.26385,-897.8346,-0.022700414,0.005595982,0.012835503,0.0,0.0,0.0
969.11,163.2428,71760016,0.65000004,0.08510638,142.01312,-864.8053,-0.022700414,0.005595982,0.012835503,0.0,0.0,0.0
970.734,152.82275,71760033,0.6375,0.09574468,147.17702,-690.99994,-0.022700414,0.005595982,0.012835503,0.0,0.0,0.0
972.45337,145.81079,71760049,0.6375,0.11702127,125.031876,-434.93286,-0.022700414,0.005595982,0.012835503,0.0,0.0,0.0
973.161,142.54797,71760066,0.6375,0.12765957,78.77541,-159.35487,-0.022700414,0.005595982,0.012835503,0.0,0.0,0.0
973.6609,140.43909,71760083,0.65000004,0.12765957,38.15731,75.81062,-0.022700414,0.005595982,0.012835503,0.0,0.0,0.0
973.6609,138.59229,71760099,0.675,0.12765957,-7.692793,113.45552,-0.022700414,0.005595982,0.012835503,0.0,0.0,0.0
974.136,136.74976,71760116,0.6625,0.12765957,-25.19048,47.906624,-0.022700414,0.005595982,0.012835503,0.0,0.0,0.0
974.6605,136.70581,71760133,0.6625,0.11702127,8.077073,3.7868762,-0.022700414,0.005595982,0.012835503,0.0,0.0,0.0
975.7168,136.70581,71760150,0.675,0.10638297,46.4335,18.215944,-0.018160328,0.0044767857,0.026268005,0.0,0.0,0.0
977.3572,141.67444,71760166,0.6625,0.09574468,86.63022,177.26215,-0.018160328,0.0044767857,0.026268005,0.0,0.0,0.0
978.3091,152.51733,71760183,0.65000004,0.08510638,99.16759,508.36475,-0.018160328,0.0044767857,0.026268005,0.0,0.0,0.0
977.44934,165.97693,71760200,0.6625,0.09574468,38.656837,864.1557,-0.018160328,0.0044767857,0.026268005,0.0,0.0,0.0
976.4099,176.68848,71760216,0.6625,0.12765957,-47.50843,1003.5774,-0.018160328,0.0044767857,0.026268005,0.0,0.0,0.0
976.16003,186.57642,71760233,0.6625,0.11702127,-101.28818,840.85785,-0.018160328,0.0044767857,0.026268005,0.0,0.0,0.0
976.16003,199.60693,71760250,0.6625,0.08510638,-64.338135,717.95844,-0.018160328,0.0044767857,0.026268005,0.0,0.0,0.0
976.6599,214.41016,71760267,0.6375,0.08510638,14.932561,799.1157,-0.018160328,0.0044767857,0.026268005,0.0,0.0,0.0
976.28,226.05347,71760283,0.65000004,0.11702127,37.949856,874.0243,-0.018160328,0.0044767857,0.026268005,0.0,0.0,0.0
975.6603,238.92029,71760300,0.65000004,0.12765957,-8.813655,834.0105,-0.018160328,0.0044767857,0.026268005,0.0,0.0,0.0
974.698,252.56665,71760317,0.6375,0.09574468,-53.471737,745.4714,-0.018160328,0.0044767857,0.026268005,0.0,0.0,0.0
974.16077,265.53528,71760333,0.6375,0.08510638,-76.707985,754.01776,-0.018160328,0.0044767857,0.026268005,0.0,0.0,0.0
973.12,276.63855,71760350,0.65000004,0.11702127,-66.49192,741.7555,-0.018160328,0.0044767857,0.026268005,0.0,0.0,0.0
972.58044,285.94763,71760367,0.6375,0.12765957,-44.677025,625.9464,-0.018160328,0.0044767857,0.026268005,0.0,0.0,0.0
971.5311,297.13818,71760384,0.6375,0.09574468,-50.245556,551.0278,-0.018160328,0.0044767857,0.026268005,0.0,0.0,0.0
971.16174,310.79773,71760400,0.6375,0.08510638,-44.10739,623.56,-0.018160328,0.0044767857,0.026268005,0.0,0.0,0.0
971.16174,323.96094,71760417,0.65000004,0.08510638,-23.842953,788.2827,-0.018160328,0.0044767857,0.026268005,0.0,0.0,0.0
971.16174,335.1958,71760434,0.6375,0.11702127,14.079734,865.2506,-0.018160328,0.0044767857,0.026268005,0.0,0.0,0.0
971.16174,345.83215,71760450,0.6375,0.12765957,31.81389,716.39575,-0.018160328,0.0044767857,0.026268005,0.0,0.0,0.0
971.16174,356.9347,71760467,0.6375,0.09574468,17.978168,604.0444,-0.018160328,0.0044767857,0.026268005,0.0,0.0,0.0
971.6615,368.0155,71760484,0.625,0.08510638,15.376676,574.32336,-0.018160328,0.0044767857,0.026268005,0.0,0.0,0.0
972.56287,379.99536,71760501,0.65000004,0.08510638,36.176945,657.81415,-0.018160328,0.0044767857,0.026268005,0.0,0.0,0.0
974.10095,391.85083,71760517,0.6375,0.12765957,86.56413,723.15027,-0.018160328,0.0044767857,0.026268005,0.0,0.0,0.0
976.1244,403.95508,71760534,0.65000004,0.11702127,128.8979,740.0033,-0.018160328,0.0044767857,0.026268005,0.0,0.0,0.0
978.73315,415.06982,71760551,0.6375,0.07446808,166.9107,716.60535,-0.018160328,0.0044767857,0.026268005,0.0,0.0,0.0
981.3303,425.0902,71760567,0.65000004,0.07446808,187.10327,648.5106,-0.018160328,0.0044767857,0.026268005,0.0,0.0,0.0
985.0532,432.39258,71760584,0.65000004,0.06382979,218.07957,503.0447,-0.018160328,0.0044767857,0.026268005,0.0,0.0,0.0
988.5679,436.8634,71760601,0.65000004,0.09574468,243.85942,294.70807,-0.018160328,0.0044767857,0.026268005,0.0,0.0,0.0
993.7533,442.98962,71760618,0.6625,0.10638297,287.05832,201.5022,-0.018160328,0.0044767857,0.026268005,0.0,0.0,0.0
1000.1703,449.34583,71760634,0.65000004,0.10638297,367.6458,226.42271,-0.018160328,0.0044767857,0.026268005,0.0,0.0,0.0
1006.94336,454.37134,71760651,0.65000004,0.12765957,451.2476,318.9327,-0.018160328,0.0044767857,0.026268005,0.0,0.0,0.0
1012.3523,457.10193,71760668,0.6625,0.10638297,455.55136,267.01422,-0.018160328,0.0044767857,0.026268005,0.0,0.0,0.0
1016.1697,458.9497,71760684,0.65000004,0.11702127,325.658,98.914986,-0.030528262,0.067581415,0.06901455,0.0,0.0,0.0
1018.9082,459.23254,71760701,0.6625,0.12765957,158.29439,-38.004696,-0.030528262,0.067581415,0.06901455,0.0,0.0,0.0
1021.4026,458.4878,71760718,0.65000004,0.12765957,62.244797,-110.86142,-0.030528262,0.067581415,0.06901455,0.0,0.0,0.0
1024.4912,455.85986,71760735,0.65000004,0.12765957,83.55488,-171.72935,-0.030528262,0.067581415,0.06901455,0.0,0.0,0.0
1027.6522,452.10876,71760751,0.6625,0.09574468,157.639,-264.70825,-0.030528262,0.067581415,0.06901455,0.0,0.0,0.0
1032.3074,440.05884,71760768,0.65000004,0.07446808,234.07985,-550.91235,-0.030528262,0.067581415,0.06901455,0.0,0.0,0.0
1036.9609,427.13782,71760785,0.65000004,0.08510638,298.45822,-857.1764,-0.030528262,0.067581415,0.06901455,0.0,0.0,0.0
1040.0698,416.1338,71760801,0.6625,0.12765957,272.54,-973.6749,-0.030528262,0.067581415,0.06901455,0.0,0.0,0.0
1044.6066,404.81152,71760818,0.6625,0.09574468,256.84372,-924.0268,-0.030528262,0.067581415,0.06901455,0.0,0.0,0.0
1049.5284,395.8053,71760835,0.65000004,0.06382979,255.43689,-688.3526,-0.030528262,0.067581415,0.06901455,0.0,0.0,0.0
1057.3375,383.32935,71760851,0.65000004,0.06382979,379.1709,-576.87885,-0.030528262,0.067581415,0.06901455,0.0,0.0,0.0
1065.6188,371.79688,71760868,0.6375,0.08510638,546.0697,-676.3006,-0.030528262,0.067581415,0.06901455,0.0,0.0,0.0
1073.3661,361.32263,71760885,0.6375,0.12765957,589.5236,-705.61145,-0.030528262,0.067581415,0.06901455,0.0,0.0,0.0
1082.0232,351.17102,71760902,0.65000004,0.12765957,575.5654,-672.43884,-0.030528262,0.067581415,0.06901455,0.0,0.0,0.0
1090.6221,342.5432,71760918,0.65000004,0.08510638,511.49542,-510.10468,-0.030528262,0.067581415,0.06901455,0.0,0.0,0.0
1101.4132,332.45715,71760935,0.6375,0.06382979,555.34,-468.93777,-0.030528262,0.067581415,0.06901455,0.0,0.0,0.0
1112.4966,323.40906,71760952,0.6375,0.06382979,694.9228,-527.8731,-0.030528262,0.067581415,0.06901455,0.0,0.0,0.0
1121.8267,316.0144,71760968,0.65000004,0.09574468,686.4572,-501.81952,-0.030528262,0.067581415,0.06901455,0.0,0.0,0.0
1132.2908,311.52075,71760985,0.6375,0.09574468,647.8825,-369.0572,-0.030528262,0.067581415,0.06901455,0.0,0.0,0.0
1143.52,307.97754,71761002,0.65000004,0.10638297,613.66046,-190.41971,-0.030528262,0.067581415,0.06901455,0.0,0.0,0.0
1150.6593,306.41003,71761019,0.65000004,0.09574468,550.7865,-31.809078,-0.030528262,0.067581415,0.06901455,0.0,0.0,0.0
1156.395,306.41003,71761035,0.65000004,0.08510638,440.04373,67.58232,-0.030528262,0.067581415,0.06901455,0.0,0.0,0.0
1161.2401,306.41003,71761052,0.6625,0.08510638,250.29417,104.87088,-0.030528262,0.067581415,0.06901455,0.0,0.0,0.0
1165.573,306.84302,71761069,0.6625,0.08510638,144.63176,99.03855,-0.030528262,0.067581415,0.06901455,0.0,0.0,0.0
1169.0033,308.72363,71761085,0.6625,0.08510638,125.42654,111.43962,-0.030528262,0.067581415,0.06901455,0.0,0.0,0.0
1171.7826,309.964,71761102,0.675,0.08510638,128.83006,132.6638,-0.030528262,0.067581415,0.06901455,0.0,0.0,0.0
1173.364,310.64648,71761119,0.6625,0.07446808,81.372894,103.995155,-0.030528262,0.067581415,0.06901455,0.0,0.0,0.0
1175.0188,311.60498,71761136,0.65000004,0.07446808,53.541737,63.815506,-0.030528262,0.067581415,0.06901455,0.0,0.0,0.0
1176.5159,311.74097,71761152,0.6625,0.07446808,35.14935,17.507647,-0.030528262,0.067581415,0.06901455,0.0,0.0,0.0
1177.5968,311.74097,71761169,0.65000004,0.07446808,46.778194,-7.519546,-0.030528262,0.067581415,0.06901455,0.0,0.0,0.0
1177.5945,311.74097,71761186,0.65000004,0.07446808,21.54604,-13.956575,-0.030528262,0.067581415,0.06901455,0.0,0.0,0.0
1177.5945,311.74097,71761202,0.6375,0.06382979,-14.692622,-23.60218,-0.030528262,0.067581415,0.06901455,0.0,0.0,0.0
1176.4773,311.53198,71761219,0.6375,0.08510638,-66.920296,-16.028181,-0.008422613,-0.009934872,-0.31278896,0.0,0.0,0.0
1174.786,309.6891,71761236,0.6375,0.08510638,-116.97929,-56.201504,-0.008422613,-0.009934872,-0.31278896,0.0,0.0,0.0
1170.5371,307.64905,71761253,0.6375,0.09574468,-200.28287,-122.34837,-0.008422613,-0.009934872,-0.31278896,0.0,0.0,0.0
1161.4133,303.76953,71761269,0.6375,0.10638297,-449.3068,-227.1036,-0.008422613,-0.009934872,-0.31278896,0.0,0.0,0.0
1151.359,301.65747,71761286,0.65000004,0.12765957,-706.0821,-232.8153,-0.008422613,-0.009934872,-0.31278896,0.0,0.0,0.0
1140.874,300.19043,71761303,0.6625,0.12765957,-834.65393,-170.23058,-0.008422613,-0.009934872,-0.31278896,0.0,0.0,0.0
1131.345,300.83508,71761319,0.65000004,0.09574468,-775.9888,-33.127182,-0.008422613,-0.009934872,-0.31278896,0.0,0.0,0.0
1120.9789,304.29102,71761336,0.65000004,0.09574468,-651.16394,174.90662,-0.008422613,-0.009934872,-0.31278896,0.0,0.0,0.0
1113.0361,307.9734,71761353,0.65000004,0.08510638,-552.34045,316.46124,-0.008422613,-0.009934872,-0.31278896,0.0,0.0,0.0
1104.7512,314.28845,71761370,0.6625,0.07446808,-469.64578,418.4438,-0.008422613,-0.009934872,-0.31278896,0.0,0.0,0.0
1098.5271,321.62488,71761386,0.65000004,0.09574468,-397.47803,508.3531,-0.008422613,-0.009934872,-0.31278896,0.0,0.0,0.0
1092.8453,329.01587,71761403,0.6625,0.11702127,-309.23944,542.67236,-0.008422613,-0.009934872,-0.31278896,0.0,0.0,0.0
1086.6005,342.17822,71761420,0.65000004,0.12765957,-290.60764,702.91516,-0.008422613,-0.009934872,-0.31278896,0.0,0.0,0.0
1083.8442,354.3579,71761436,0.65000004,0.09574468,-219.86626,825.7064,-0.008422613,-0.009934872,-0.31278896,0.0,0.0,0.0
1083.1252,372.24744,71761453,0.6625,0.08510638,-80.250626,1002.23755,-0.008422613,-0.009934872,-0.31278896,0.0,0.0,0.0
1083.1252,385.55554,71761470,0.675,0.11702127,78.07769,1080.8903,-0.008422613,-0.009934872,-0.31278896,0.0,0.0,0.0
1083.888,398.95203,71761486,0.65000004,0.12765957,159.52838,967.2913,-0.008422613,-0.009934872,-0.31278896,0.0,0.0,0.0
1085.2301,410.5769,71761503,0.65000004,0.09574468,153.18288,791.6328,-0.008422613,-0.009934872,-0.31278896,0.0,0.0,0.0
1087.8019,424.95874,71761520,0.65000004,0.08510638,173.88824,689.4796,-0.008422613,-0.009934872,-0.31278896,0.0,0.0,0.0
1091.5411,436.66858,71761537,0.6625,0.08510638,220.06143,703.47955,-0.008422613,-0.009934872,-0.31278896,0.0,0.0,0.0
1095.712,445.92114,71761553,0.65000004,0.12765957,291.46817,643.96545,-0.008422613,-0.009934872,-0.31278896,0.0,0.0,0.0
1100.9069,453.59924,71761570,0.675,0.10638297,346.73492,494.3577,-0.008422613,-0.009934872,-0.31278896,0.0,0.0,0.0
1107.6207,461.9021,71761587,0.6625,0.08510638,413.43588,372.1952,-0.008422613,-0.009934872,-0.31278896,0.0,0.0,0.0
1115.3932,469.25354,71761603,0.65000004,0.07446808,485.4378,347.82947,-0.008422613,-0.009934872,-0.31278896,0.0,0.0,0.0
1123.6818,473.7379,71761620,0.6625,0.08510638,550.3992,317.5899,-0.008422613,-0.009934872,-0.31278896,0.0,0.0,0.0
1130.6893,475.2256,71761637,0.6625,0.08510638,534.86285,153.83212,-0.008422613,-0.009934872,-0.31278896,0.0,0.0,0.0
1142.6642,474.66284,71761654,0.65000004,0.08510638,592.2797,-52.219963,-0.008422613,-0.009934872,-0.31278896,0.0,0.0,0.0
1155.7238,468.99097,71761670,0.65000004,0.09574468,743.9454,-317.08737,-0.008422613,-0.009934872,-0.31278896,0.0,0.0,0.0
1167.2802,458.8551,71761687,0.6625,0.10638297,867.2269,-644.8122,-0.008422613,-0.009934872,-0.31278896,0.0,0.0,0.0
1176.7031,445.32617,71761704,0.6375,0.07446808,773.7976,-915.82697,-0.008422613,-0.009934872,-0.31278896,0.0,0.0,0.0
1185.8452,428.0011,71761720,0.6625,0.11702127,573.27106,-1213.0491,-0.008422613,-0.009934872,-0.31278896,0.0,0.0,0.0
1195.2579,405.7174,71761737,0.65000004,0.12765957,460.23337,-1447.5038,-0.008422613,-0.009934872,-0.31278896,0.0,0.0,0.0
1197.491,385.77893,71761754,0.65000004,0.08510638,309.22366,-1507.7058,-0.046738088,0.040052086,0.06976795,0.0,0.0,0.0
1195.3243,369.44287,71761771,0.6375,0.09574468,-10.379377,-1362.5039,-0.046738088,0.040052086,0.06976795,0.0,0.0,0.0
1189.6982,356.38953,71761787,0.6375,0.12765957,-424.87057,-974.5387,-0.046738088,0.040052086,0.06976795,0.0,0.0,0.0
1182.9225,347.05432,71761804,0.6375,0.08510638,-659.31006,-557.4472,-0.046738088,0.040052086,0.06976795,0.0,0.0,0.0
1171.5536,336.13672,71761821,0.65000004,0.06382979,-814.3359,-398.61517,-0.046738088,0.040052086,0.06976795,0.0,0.0,0.0
1160.5616,325.92285,71761837,0.65000004,0.07446808,-848.45636,-430.76425,-0.046738088,0.040052086,0.06976795,0.0,0.0,0.0
1149.7974,318.57043,71761854,0.65000004,0.09574468,-815.3529,-444.58917,-0.046738088,0.040052086,0.06976795,0.0,0.0,0.0
1139.9944,313.2804,71761871,0.65000004,0.08510638,-727.12415,-351.54767,-0.046738088,0.040052086,0.06976795,0.0,0.0,0.0
1131.8202,311.74097,71761888,0.65000004,0.08510638,-581.8881,-149.89653,-0.046738088,0.040052086,0.06976795,0.0,0.0,0.0
1124.7994,311.74097,71761904,0.65000004,0.08510638,-455.7248,77.29486,-0.046738088,0.040052086,0.06976795,0.0,0.0,0.0
1119.4066,313.16565,71761921,0.65000004,0.06382979,-331.56168,201.33385,-0.046738088,0.040052086,0.06976795,0.0,0.0,0.0
1116.4287,315.01575,71761938,0.65000004,0.06382979,-167.53658,260.81207,-0.046738088,0.040052086,0.06976795,0.0,0.0,0.0
1112.4657,321.57397,71761954,0.65000004,0.06382979,-87.42743,345.95157,-0.046738088,0.040052086,0.06976795,0.0,0.0,0.0
1110.2758,328.9447,71761971,0.6625,0.08510638,-61.507767,493.67825,-0.046738088,0.040052086,0.06976795,0.0,0.0,0.0
1110.5753,335.5121,71761988,0.6625,0.09574468,-16.55673,584.8645,-0.046738088,0.040052086,0.06976795,0.0,0.0,0.0
1112.6174,341.06494,71762005,0.65000004,0.10638297,117.1883,495.68658,-0.046738088,0.040052086,0.06976795,0.0,0.0,0.0
1115.1976,345.57764,71762021,0.65000004,0.09574468,241.38881,352.44852,-0.046738088,0.040052086,0.06976795,0.0,0.0,0.0
1118.431,350.3694,71762038,0.65000004,0.10638297,299.6767,221.68878,-0.046738088,0.040052086,0.06976795,0.0,0.0,0.0
1123.2504,353.95422,71762055,0.6625,0.08510638,321.01495,184.05519,-0.046738088,0.040052086,0.06976795,0.0,0.0,0.0
1128.0508,357.7229,71762071,0.6625,0.09574468,334.32544,179.18188,-0.046738088,0.040052086,0.06976795,0.0,0.0,0.0
1131.904,359.1847,71762088,0.6625,0.09574468,325.4216,129.01593,-0.046738088,0.040052086,0.06976795,0.0,0.0,0.0
1135.5936,360.60864,71762105,0.675,0.09574468,281.40497,76.960266,-0.046738088,0.040052086,0.06976795,0.0,0.0,0.0
1137.6737,360.60864,71762122,0.6625,0.09574468,165.20331,-17.340858,-0.046738088,0.040052086,0.06976795,0.0,0.0,0.0
1139.5986,360.31738,71762138,0.6375,0.08510638,78.23132,-65.92799,-0.046738088,0.040052086,0.06976795,0.0,0.0,0.0
1142.0354,359.33875,71762155,0.6375,0.10638297,65.8113,-94.68106,-0.046738088,0.040052086,0.06976795,0.0,0.0,0.0
1145.898,357.36865,71762172,0.6375,0.10638297,128.11534,-134.60107,-0.046738088,0.040052086,0.06976795,0.0,0.0,0.0
1148.4531,355.41174,71762188,0.65000004,0.09574468,201.56801,-155.59453,-0.046738088,0.040052086,0.06976795,0.0,0.0,0.0
1150.5604,353.5387,71762205,0.65000004,0.10638297,186.09933,-160.03111,-0.046738088,0.040052086,0.06976795,0.0,0.0,0.0
1153.1283,351.70837,71762222,0.65000004,0.10638297,142.91342,-139.50458,-0.046738088,0.040052086,0.06976795,0.0,0.0,0.0
1155.2198,351.72363,71762238,0.65000004,0.10638297,119.47391,-69.81073,-0.046738088,0.040052086,0.06976795,0.0,0.0,0.0
1157.142,350.83508,71762255,0.65000004,0.10638297,109.18159,-22.567791,-0.046738088,0.040052086,0.06976795,0.0,0.0,0.0
1160.208,350.83508,71762272,0.65000004,0.10638297,139.54698,15.170945,-0.046738088,0.040052086,0.06976795,0.0,0.0,0.0
1161.995,350.83508,71762289,0.65000004,0.10638297,138.65836,31.631609,0.0026095286,4.1663647E-5,0.05581379,0.0,0.0,0.0
1163.3188,350.83508,71762305,0.6625,0.10638297,117.92979,24.184952,0.0026095286,4.1663647E-5,0.05581379,0.0,0.0,0.0
1164.3585,350.83508,71762322,0.675,0.10638297,71.46669,16.603588,0.0026095286,4.1663647E-5,0.05581379,0.0,0.0,0.0
1165.7017,350.83508,71762339,0.6625,0.10638297,34.776524,0.034253236,0.0026095286,4.1663647E-5,0.05581379,0.0,0.0,0.0
1168.4642,350.83508,71762355,0.6625,0.10638297,75.23438,0.050384972,0.0026095286,4.1663647E-5,0.05581379,0.0,0.0,0.0
1171.6156,350.83508,71762372,0.6625,0.10638297,173.60243,0.013546503,0.0026095286,4.1663647E-5,0.05581379,0.0,0.0,0.0
1174.4376,349.94666,71762389,0.65000004,0.12765957,236.64265,-26.478544,0.0026095286,4.1663647E-5,0.05581379,0.0,0.0,0.0
1177.0114,349.1322,71762406,0.65000004,0.12765957,220.32384,-48.56327,0.0026095286,4.1663647E-5,0.05581379,0.0,0.0,0.0
1178.5962,348.16968,71762422,0.65000004,0.12765957,134.85292,-76.93605,0.0026095286,4.1663647E-5,0.05581379,0.0,0.0,0.0
1180.679,347.2052,71762439,0.65000004,0.12765957,89.51497,-74.55207,0.0026095286,4.1663647E-5,0.05581379,0.0,0.0,0.0
1183.8423,345.3562,71762456,0.65000004,0.12765957,121.43303,-92.57383,0.0026095286,4.1663647E-5,0.05581379,0.0,0.0,0.0
1187.4805,343.4967,71762472,0.65000004,0.11702127,194.96637,-117.42423,0.0026095286,4.1663647E-5,0.05581379,0.0,0.0,0.0
1192.4896,341.63025,71762489,0.6375,0.10638297,278.97342,-132.90955,0.0026095286,4.1663647E-5,0.05581379,0.0,0.0,0.0
1196.387,339.81824,71762506,0.65000004,0.10638297,314.01184,-137.8285,0.0026095286,4.1663647E-5,0.05581379,0.0,0.0,0.0
1199.548,337.96936,71762523,0.6375,0.08510638,263.13373,-111.69675,0.0026095286,4.1663647E-5,0.05581379,0.0,0.0,0.0
1204.2153,335.61548,71762539,0.65000004,0.08510638,240.46791,-120.328,0.0026095286,4.1663647E-5,0.05581379,0.0,0.0,0.0
1208.0548,332.49023,71762556,0.6375,0.08510638,235.91267,-170.20908,0.0026095286,4.1663647E-5,0.05581379,0.0,0.0,0.0
1212.0264,330.00586,71762573,0.6375,0.06382979,236.4444,-183.40547,0.0026095286,4.1663647E-5,0.05581379,0.0,0.0,0.0
1214.3872,327.9076,71762589,0.6375,0.06382979,203.64697,-171.16586,0.0026095286,4.1663647E-5,0.05581379,0.0,0.0,0.0
1216.4663,326.0597,71762606,0.65000004,0.06382979,124.76294,-125.71662,0.0026095286,4.1663647E-5,0.05581379,0.0,0.0,0.0
1219.0426,323.32568,71762623,0.6375,0.06382979,88.531364,-113.23025,0.0026095286,4.1663647E-5,0.05581379,0.0,0.0,0.0
1222.1207,320.58984,71762640,0.65000004,0.06382979,129.46577,-150.8519,0.0026095286,4.1663647E-5,0.05581379,0.0,0.0,0.0
1225.2115,317.84277,71762656,0.65000004,0.08510638,176.06377,-173.49268,0.0026095286,4.1663647E-5,0.05581379,0.0,0.0,0.0
1227.2891,315.9961,71762673,0.6375,0.08510638,177.03082,-156.29448,0.0026095286,4.1663647E-5,0.05581379,0.0,0.0,0.0
1229.3857,313.24426,71762690,0.65000004,0.08510638,132.92062,-139.60379,0.0026095286,4.1663647E-5,0.05581379,0.0,0.0,0.0
1230.994,310.1117,71762706,0.6375,0.08510638,85.796196,-144.1911,0.0026095286,4.1663647E-5,0.05581379,0.0,0.0,0.0
1232.519,308.2893,71762723,0.6375,0.10638297,68.252174,-142.68916,0.0026095286,4.1663647E-5,0.05581379,0.0,0.0,0.0
1234.1005,305.9442,71762740,0.65000004,0.10638297,84.09597,-155.75774,0.0026095286,4.1663647E-5,0.05581379,0.0,0.0,0.0
1235.6741,304.1012,71762757,0.6375,0.12765957,84.16983,-120.25377,0.0026095286,4.1663647E-5,0.05581379,0.0,0.0,0.0
1237.7551,302.2516,71762773,0.6375,0.12765957,103.72629,-101.94911,0.0026095286,4.1663647E-5,0.05581379,0.0,0.0,0.0
1238.9565,300.40002,71762790,0.65000004,0.12765957,100.59263,-91.266785,0.0026095286,4.1663647E-5,0.05581379,0.0,0.0,0.0
1239.995,298.5542,71762807,0.6375,0.12765957,77.918304,-93.56331,0.0026095286,4.1663647E-5,0.05581379,0.0,0.0,0.0
1241.0317,296.7113,71762823,0.6375,0.12765957,51.51756,-110.040085,0.0020876229,-0.015966654,0.028651237,0.0,0.0,0.0
1242.5637,293.98804,71762840,0.6375,0.12765957,53.45391,-136.33261,0.0020876229,-0.015966654,0.028651237,0.0,0.0,0.0
1244.1537,292.1222,71762857,0.6375,0.11702127,80.475266,-141.2244,0.0020876229,-0.015966654,0.028651237,0.0,0.0,0.0
1246.2299,289.38843,71762873,0.65000004,0.11702127,120.074394,-156.46756,0.0020876229,-0.015966654,0.028651237,0.0,0.0,0.0
1248.351,287.50317,71762890,0.65000004,0.11702127,139.62651,-139.32767,0.0020876229,-0.015966654,0.028651237,0.0,0.0,0.0
1249.2593,285.64014,71762907,0.6375,0.09574468,113.52012,-113.51155,0.0020876229,-0.015966654,0.028651237,0.0,0.0,0.0
1249.2709,283.84253,71762924,0.65000004,0.09574468,43.791958,-99.77749,0.0020876229,-0.015966654,0.028651237,0.0,0.0,0.0
1249.8126,281.99097,71762940,0.6375,0.09574468,-18.343676,-95.133224,0.0020876229,-0.015966654,0.028651237,0.0,0.0,0.0
1250.3524,279.64258,71762957,0.6375,0.08510638,-14.087378,-120.23872,0.0020876229,-0.015966654,0.028651237,0.0,0.0,0.0
1250.5708,274.74915,71762974,0.6375,0.08510638,11.148611,-208.45251,0.0020876229,-0.015966654,0.028651237,0.0,0.0,0.0
1250.5708,270.5763,71762990,0.625,0.08510638,10.666598,-302.83136,0.0020876229,-0.015966654,0.028651237,0.0,0.0,0.0
1249.7329,267.0028,71763007,0.6375,0.08510638,-21.273453,-312.36646,0.0020876229,-0.015966654,0.028651237,0.0,0.0,0.0
1248.6643,264.8153,71763024,0.6375,0.09574468,-70.559654,-251.59918,0.0020876229,-0.015966654,0.028651237,0.0,0.0,0.0
1247.6283,262.97375,71763040,0.6375,0.09574468,-95.902084,-126.48202,0.0020876229,-0.015966654,0.028651237,0.0,0.0,0.0
1246.0826,262.8733,71763057,0.6375,0.08510638,-103.60814,-6.6855407,0.0020876229,-0.015966654,0.028651237,0.0,0.0,0.0
1243.9967,263.82947,71763074,0.6625,0.08510638,-123.98152,71.32415,0.0020876229,-0.015966654,0.028651237,0.0,0.0,0.0
1241.9097,269.6754,71763090,0.6625,0.08510638,-139.52269,248.25166,0.0020876229,-0.015966654,0.028651237,0.0,0.0,0.0
1240.438,277.1676,71763107,0.6625,0.10638297,-138.35808,477.97763,0.0020876229,-0.015966654,0.028651237,0.0,0.0,0.0
1240.574,287.1687,71763124,0.65000004,0.12765957,-63.452244,675.1767,0.0020876229,-0.015966654,0.028651237,0.0,0.0,0.0
1244.7896,300.7688,71763141,0.65000004,0.09574468,118.55597,867.54175,0.0020876229,-0.015966654,0.028651237,0.0,0.0,0.0
1253.4905,320.0232,71763157,0.65000004,0.07446808,459.65378,1153.9087,0.0020876229,-0.015966654,0.028651237,0.0,0.0,0.0
1260.8712,332.60852,71763174,0.625,0.10638297,659.668,1194.362,0.0020876229,-0.015966654,0.028651237,0.0,0.0,0.0
1272.1296,348.02307,71763191,0.6375,0.09574468,777.7376,1065.8405,0.0020876229,-0.015966654,0.028651237,0.0,0.0,0.0
1284.3431,367.974,71763207,0.6375,0.07446808,812.4561,967.57306,0.0020876229,-0.015966654,0.028651237,0.0,0.0,0.0
1292.6284,382.76465,71763224,0.6375,0.09574468,734.6848,997.6717,0.0020876229,-0.015966654,0.028651237,0.0,0.0,0.0
1299.2555,397.9629,71763241,0.6375,0.12765957,568.1551,1036.9241,0.0020876229,-0.015966654,0.028651237,0.0,0.0,0.0
1302.9845,411.85474,71763258,0.625,0.09574468,288.35196,927.39954,0.0020876229,-0.015966654,0.028651237,0.0,0.0,0.0
1303.5535,430.29358,71763274,0.625,0.09574468,-7.041532,879.6299,0.0020876229,-0.015966654,0.028651237,0.0,0.0,0.0
1298.501,454.98267,71763291,0.625,0.10638297,-280.2492,1171.2407,0.0020876229,-0.015966654,0.028651237,0.0,0.0,0.0
1287.241,484.3723,71763308,0.625,0.06382979,-641.7557,1729.742,0.0020876229,-0.015966654,0.028651237,0.0,0.0,0.0
1270.1311,501.98718,71763324,0.6,0.12765957,-1063.1134,1694.2354,0.0020876229,-0.015966654,0.028651237,0.0,0.0,0.0
1244.4883,521.802,71763341,0.6375,0.08510638,-1599.0194,1451.9397,0.0020876229,-0.015966654,0.028651237,0.0,0.0,0.0
1202.8796,540.0574,71763358,0.6375,0.08510638,-2377.265,1120.0093,-0.014329903,-0.028773338,0.0069208145,0.0,0.0,0.0
1167.4645,552.6572,71763374,0.625,0.08510638,-2871.014,766.01,-0.014329903,-0.028773338,0.0069208145,0.0,0.0,0.0
1139.2833,563.1974,71763391,0.625,0.12765957,-2600.5586,632.1215,-0.014329903,-0.028773338,0.0069208145,0.0,0.0,0.0
1121.656,571.84375,71763408,0.625,0.09574468,-1606.0183,337.09006,-0.014329903,-0.028773338,0.0069208145,0.0,0.0,0.0
1111.9454,577.66016,71763425,0.58750004,0.06382979,-520.2848,199.49005,-0.014329903,-0.028773338,0.0069208145,0.0,0.0,0.0
1109.1168,580.069,71763435,0.26250002,0.07446808,-87.1523,144.28316,-0.014329903,-0.028773338,0.0069208145,0.0,0.0,0.0
1109.1168,580.069,71763442,0.26250002,0.07446808,-87.1523,144.28316,-0.014329903,-0.028773338,0.0069208145,0.0,0.0,0.0
883.19037,246.88025,71763966,0.65000004,0.09574468,0.0,0.0,0.0045360774,-0.0070186853,0.053536415,0.0,0.0,0.0
883.19037,246.88025,71763993,0.6875,0.10638297,-0.026701018,-0.007730963,0.0045360774,-0.0070186853,0.053536415,0.0,0.0,0.0
912.365,243.85986,71764009,0.675,0.12765957,1942.0833,-226.242,0.0045360774,-0.0070186853,0.053536415,0.0,0.0,0.0
988.77075,239.34155,71764026,0.6625,0.12765957,4932.169,-344.69043,0.0045360774,-0.0070186853,0.053536415,0.0,0.0,0.0
1095.9457,234.61401,71764043,0.6375,0.10638297,7303.9756,-358.41,0.0045360774,-0.0070186853,0.053536415,0.0,0.0,0.0
1166.0983,222.89062,71764055,0.16250001,0.07446808,8266.677,-580.969,0.0045360774,-0.0070186853,0.053536415,0.0,0.0,0.0
1166.0983,222.89062,71764062,0.16250001,0.07446808,8266.677,-580.969,0.0045360774,-0.0070186853,0.053536415,0.0,0.0,0.0
