x,y,timestamp,pressure,fingerarea,velocityx,velocityy,accelx,accely,accelz,gyrox,gyroy,gyroz
350.86365,96.72327,8780501,0.83750004,0.08510638,0.0,0.0,0.0026273634,-0.011209369,0.05226326,0.0,0.0,0.0
350.86365,96.72327,8780531,0.8125,0.08510638,-0.004212149,-6.5869896E-4,0.0026273634,-0.011209369,0.05226326,0.0,0.0,0.0
343.36917,110.67969,8780547,0.875,0.08510638,-409.16208,761.9685,0.0026273634,-0.011209369,0.05226326,0.0,0.0,0.0
332.85577,132.17969,8780564,0.90000004,0.12765957,-884.22833,1746.4213,0.0026273634,-0.011209369,0.05226326,0.0,0.0,0.0
324.54425,154.86755,8780581,0.9125,0.08510638,-860.5699,1918.603,0.0026273634,-0.011209369,0.05226326,0.0,0.0,0.0
315.20496,179.8247,8780597,0.9125,0.12765957,-782.87933,1968.2604,0.0026273634,-0.011209369,0.05226326,0.0,0.0,0.0
301.5391,213.36731,8780614,0.90000004,0.08510638,-773.18713,2087.3025,0.0026273634,-0.011209369,0.05226326,0.0,0.0,0.0
288.27682,243.19043,8780631,0.875,0.09574468,-788.48517,2050.436,0.0026273634,-0.011209369,0.05226326,0.0,0.0,0.0
272.81168,276.15063,8780648,0.875,0.10638297,-994.4698,2213.2227,0.0026273634,-0.011209369,0.05226326,0.0,0.0,0.0
258.32913,307.43628,8780664,0.875,0.09574468,-1024.4329,2106.6648,0.0026273634,-0.011209369,0.05226326,0.0,0.0,0.0
245.31067,330.8318,8780681,0.85,0.10638297,-928.7764,1799.6907,0.0026273634,-0.011209369,0.05226326,0.0,0.0,0.0
226.0044,357.36548,8780698,0.8625,0.08510638,-958.9359,1428.1741,0.0026273634,-0.011209369,0.05226326,0.0,0.0,0.0
207.26672,380.41052,8780714,0.85,0.10638297,-1121.5012,1243.7716,0.0026273634,-0.011209369,0.05226326,0.0,0.0,0.0
190.16522,395.78845,8780731,0.875,0.10638297,-1210.4546,1030.3298,0.0026273634,-0.011209369,0.05226326,0.0,0.0,0.0
176.55544,404.30737,8780748,0.9125,0.10638297,-1057.3628,620.15784,0.0026273634,-0.011209369,0.05226326,0.0,0.0,0.0
167.71576,405.92236,8780764,0.95,0.12765957,-679.6627,66.28531,0.0026273634,-0.011209369,0.05226326,0.0,0.0,0.0
161.18347,405.1255,8780781,0.96250004,0.12765957,-305.70233,-431.89783,0.0026273634,-0.011209369,0.05226326,0.0,0.0,0.0
157.46202,402.41028,8780798,1.0,0.12765957,-77.91206,-541.1038,0.0026273634,-0.011209369,0.05226326,0.0,0.0,0.0
154.35114,397.78992,8780815,1.0375,0.11702127,14.189785,-505.27817,0.0026273634,-0.011209369,0.05226326,0.0,0.0,0.0
152.86261,386.44922,8780831,1.025,0.09574468,32.424408,-630.3056,0.0026273634,-0.011209369,0.05226326,0.0,0.0,0.0
152.42824,374.5625,8780848,1.0,0.11702127,47.49535,-826.2561,0.0026273634,-0.011209369,0.05226326,0.0,0.0,0.0
154.20927,364.6886,8780865,0.975,0.12765957,117.77061,-904.21155,0.0026273634,-0.011209369,0.05226326,0.0,0.0,0.0
157.5455,354.33313,8780881,0.975,0.12765957,225.01453,-823.0144,0.0026273634,-0.011209369,0.05226326,0.0,0.0,0.0
160.06151,349.70544,8780898,0.9875,0.10638297,271.4881,-433.93048,0.0026273634,-0.011209369,0.05226326,0.0,0.0,0.0
163.92549,344.17004,8780915,1.0,0.10638297,286.29468,-232.28429,0.0026273634,-0.011209369,0.05226326,0.0,0.0,0.0
168.88875,339.13123,8780932,1.0,0.09574468,305.15546,-184.40794,0.0026273634,-0.011209369,0.05226326,0.0,0.0,0.0
174.56021,336.0365,8780948,1.0,0.09574468,357.8048,-157.17859,0.0026273634,-0.011209369,0.05226326,0.0,0.0,0.0
178.85971,334.84204,8780965,0.9875,0.09574468,367.12964,-97.384384,0.0026273634,-0.011209369,0.05226326,0.0,0.0,0.0
183.03368,335.5597,8780982,0.9875,0.10638297,289.96597,70.14124,0.0026273634,-0.011209369,0.05226326,0.0,0.0,0.0
187.65195,338.2079,8780998,0.96250004,0.12765957,244.49448,204.60779,0.0026273634,-0.011209369,0.05226326,0.0,0.0,0.0
193.86435,341.9203,8781015,0.95,0.12765957,279.81012,314.38617,0.03410189,-0.008967519,-0.0061893463,0.0,0.0,0.0
201.8023,347.54114,8781032,0.9375,0.12765957,412.88986,387.94705,0.03410189,-0.008967519,-0.0061893463,0.0,0.0,0.0
212.25388,354.9353,8781049,0.9375,0.09574468,598.591,485.72638,0.03410189,-0.008967519,-0.0061893463,0.0,0.0,0.0
222.06119,362.3186,8781065,0.925,0.08510638,710.55707,544.69696,0.03410189,-0.008967519,-0.0061893463,0.0,0.0,0.0
234.96442,373.9922,8781082,0.925,0.08510638,799.4886,659.56757,0.03410189,-0.008967519,-0.0061893463,2.9360124E-6,0.0,0.0
246.02182,383.16394,8781099,0.9125,0.11702127,788.8369,694.1882,0.03410189,-0.008967519,-0.0061893463,0.0,0.0,0.0
255.67236,389.77124,8781115,0.8875,0.12765957,682.363,574.6504,0.03410189,-0.008967519,-0.0061893463,0.0,0.0,0.0
267.28503,395.76367,8781132,0.90000004,0.10638297,661.9367,425.70282,0.03410189,-0.008967519,-0.0061893463,0.0,0.0,0.0
279.71555,401.31604,8781149,0.875,0.10638297,699.07385,267.88007,0.03410189,-0.008967519,-0.0061893463,0.0,0.0,0.0
291.0946,405.34448,8781166,0.875,0.10638297,731.7916,196.43404,0.03410189,-0.008967519,-0.0061893463,0.0,0.0,0.0
301.29395,407.485,8781182,0.875,0.12765957,682.0951,116.635765,0.03410189,-0.008967519,-0.0061893463,0.0,0.0,0.0
309.71777,408.5879,8781199,0.875,0.12765957,553.9094,28.335194,0.03410189,-0.008967519,-0.0061893463,0.0,0.0,0.0
316.12268,408.5879,8781216,0.8875,0.12765957,388.60327,-58.056976,0.03410189,-0.008967519,-0.0061893463,0.0,0.0,0.0
320.3672,408.5879,8781232,0.8875,0.12765957,240.4619,-101.237686,0.03410189,-0.008967519,-0.0061893463,0.0,0.0,0.0
324.54303,406.73486,8781249,0.90000004,0.10638297,140.41158,-121.61041,0.03410189,-0.008967519,-0.0061893463,0.0,0.0,0.0
328.7055,403.84802,8781266,0.90000004,0.10638297,131.29268,-176.45018,0.03410189,-0.008967519,-0.0061893463,0.0,0.0,0.0
333.51935,399.00964,8781283,0.875,0.09574468,186.1402,-277.09708,0.03410189,-0.008967519,-0.0061893463,0.0,0.0,0.0
342.50656,390.9756,8781299,0.875,0.08510638,367.29,-441.49146,0.03410189,-0.008967519,-0.0061893463,0.0,0.0,0.0
355.9853,375.271,8781316,0.8875,0.11702127,676.8244,-784.48425,0.03410189,-0.008967519,-0.0061893463,0.0,0.0,0.0
366.69296,361.2588,8781333,0.875,0.12765957,891.84454,-1096.851,0.03410189,-0.008967519,-0.0061893463,0.0,0.0,0.0
377.2859,348.3639,8781349,0.925,0.10638297,866.0113,-1108.7471,0.03410189,-0.008967519,-0.0061893463,0.0,0.0,0.0
385.7144,336.50037,8781366,0.9125,0.08510638,637.45074,-891.3367,0.03410189,-0.008967519,-0.0061893463,0.0,0.0,0.0
394.51627,324.87085,8781383,0.9125,0.08510638,450.62732,-665.5587,0.03410189,-0.008967519,-0.0061893463,0.0,0.0,0.0
401.6057,316.04785,8781399,0.90000004,0.09574468,393.6188,-550.9558,0.03410189,-0.008967519,-0.0061893463,0.0,0.0,0.0
407.04834,310.35986,8781416,0.90000004,0.10638297,326.95255,-389.2209,0.03410189,-0.008967519,-0.0061893463,0.0,0.0,0.0
411.73615,306.50574,8781433,0.8875,0.12765957,248.12006,-189.26509,0.03410189,-0.008967519,-0.0061893463,0.0,0.0,0.0
415.89618,303.7207,8781450,0.90000004,0.12765957,181.46786,-44.972393,0.03410189,-0.008967519,-0.0061893463,0.0,0.0,0.0
420.04962,301.87476,8781466,0.90000004,0.12765957,168.69716,8.065223,0.03410189,-0.008967519,-0.0061893463,0.0,0.0,0.0
424.2067,301.9674,8781483,0.9125,0.12765957,202.80663,45.39863,0.03410189,-0.008967519,-0.0061893463,0.0,0.0,0.0
426.615,301.9674,8781500,0.925,0.12765957,186.45094,77.73478,0.03410189,-0.008967519,-0.0061893463,0.0,0.0,0.0
428.71204,301.9674,8781516,0.925,0.12765957,127.16888,82.61723,0.03410189,-0.008967519,-0.0061893463,0.0,0.0,0.0
430.04343,301.9674,8781533,0.95,0.12765957,64.11418,57.542614,0.03410189,-0.008967519,-0.0061893463,0.0,0.0,0.0
430.33777,301.9674,8781550,0.96250004,0.12765957,-1.6600477,9.060466,0.011281513,-0.007174015,0.043047905,0.0,0.0,0.0
430.33777,301.9674,8781567,0.96250004,0.10638297,-35.8699,-0.011352695,0.011281513,-0.007174015,0.043047905,0.0,0.0,0.0
429.53036,303.4027,8781583,0.975,0.11702127,-71.698975,35.834507,0.011281513,-0.007174015,0.043047905,0.0,0.0,0.0
428.522,304.63293,8781600,0.96250004,0.11702127,-100.042595,90.56582,0.011281513,-0.007174015,0.043047905,0.0,0.0,0.0
426.5446,305.33887,8781617,0.95,0.11702127,-123.15992,92.34748,0.011281513,-0.007174015,0.043047905,0.0,0.0,0.0
423.1033,307.95312,8781633,0.9375,0.09574468,-181.94086,113.51193,0.011281513,-0.007174015,0.043047905,0.0,0.0,0.0
416.48087,312.52393,8781650,0.9125,0.08510638,-323.74982,199.75052,0.011281513,-0.007174015,0.043047905,0.0,0.0,0.0
409.17935,318.08643,8781667,0.90000004,0.08510638,-486.20096,340.40015,0.011281513,-0.007174015,0.043047905,0.0,0.0,0.0
401.88257,325.48132,8781684,0.90000004,0.09574468,-566.1485,489.82758,0.011281513,-0.007174015,0.043047905,0.0,0.0,0.0
395.7479,330.93372,8781700,0.90000004,0.12765957,-524.7941,492.77512,0.011281513,-0.007174015,0.043047905,0.0,0.0,0.0
389.56854,339.78662,8781717,0.875,0.12765957,-422.8473,496.88495,0.011281513,-0.007174015,0.043047905,0.0,0.0,0.0
385.18622,348.53894,8781734,0.875,0.10638297,-310.37793,552.1981,0.011281513,-0.007174015,0.043047905,0.0,0.0,0.0
381.22037,360.1942,8781750,0.875,0.08510638,-227.48303,659.54663,0.011281513,-0.007174015,0.043047905,0.0,0.0,0.0
378.10092,371.73096,8781767,0.85,0.08510638,-147.84813,776.0338,0.011281513,-0.007174015,0.043047905,0.0,0.0,0.0
375.59012,382.51453,8781784,0.85,0.09574468,-105.81357,762.91473,0.011281513,-0.007174015,0.043047905,0.0,0.0,0.0
374.0301,390.46948,8781801,0.8625,0.12765957,-67.14508,624.069,0.011281513,-0.007174015,0.043047905,0.0,0.0,0.0
373.00198,397.7798,8781817,0.8625,0.12765957,-38.11943,447.61688,0.011281513,-0.007174015,0.043047905,0.0,0.0,0.0
373.75436,405.19873,8781834,0.8625,0.11702127,29.82885,332.4252,0.011281513,-0.007174015,0.043047905,0.0,0.0,0.0
374.80087,415.20752,8781851,0.8625,0.09574468,104.26387,403.1194,0.011281513,-0.007174015,0.043047905,0.0,0.0,0.0
376.83087,424.47302,8781867,0.83750004,0.08510638,157.32368,555.0463,0.011281513,-0.007174015,0.043047905,0.0,0.0,0.0
379.9438,432.7898,8781884,0.825,0.08510638,212.82938,597.0572,0.011281513,-0.007174015,0.043047905,0.0,0.0,0.0
383.62747,437.38574,8781901,0.825,0.09574468,252.9578,434.28027,0.011281513,-0.007174015,0.043047905,0.0,0.0,0.0
389.49454,442.9226,8781918,0.8125,0.10638297,331.47894,273.55234,0.011281513,-0.007174015,0.043047905,0.0,0.0,0.0
396.4889,447.3723,8781934,0.8125,0.10638297,434.03836,181.38512,0.011281513,-0.007174015,0.043047905,0.0,0.0,0.0
404.05685,451.10742,8781951,0.825,0.12765957,507.71692,160.79669,0.011281513,-0.007174015,0.043047905,0.0,0.0,0.0
409.4645,452.1245,8781968,0.85,0.12765957,487.52072,121.176186,0.011281513,-0.007174015,0.043047905,0.0,0.0,0.0
413.6366,452.1245,8781984,0.8875,0.12765957,355.6624,-24.573355,0.011281513,-0.007174015,0.043047905,0.0,0.0,0.0
416.70303,451.61462,8782001,0.875,0.12765957,190.4358,-106.773155,0.011281513,-0.007174015,0.043047905,0.0,0.0,0.0
420.02908,449.292,8782018,0.85,0.11702127,94.437035,-171.58258,0.011281513,-0.007174015,0.043047905,0.0,0.0,0.0
424.2475,443.40344,8782035,0.8875,0.09574468,128.13058,-296.8109,0.011281513,-0.007174015,0.043047905,0.0,0.0,0.0
429.75204,432.01514,8782051,0.875,0.08510638,245.69823,-572.81116,0.011281513,-0.007174015,0.043047905,0.0,0.0,0.0
437.59128,413.81128,8782068,0.8875,0.12765957,428.4217,-1024.8193,0.011281513,-0.007174015,0.043047905,0.0,0.0,0.0
442.3134,401.53442,8782085,0.90000004,0.10638297,458.67044,-1216.9738,0.025025211,0.026260734,0.08243847,0.0,0.0,0.0
447.52808,386.7068,8782101,0.875,0.08510638,381.29688,-1130.0643,0.025025211,0.026260734,0.08243847,0.0,0.0,0.0
451.63757,372.9823,8782118,0.8875,0.09574468,276.38153,-952.7819,0.025025211,0.026260734,0.08243847,0.0,0.0,0.0
454.6985,361.9641,8782135,0.875,0.10638297,171.36644,-731.995,0.025025211,0.026260734,0.08243847,0.0,0.0,0.0
456.00836,352.79895,8782151,0.90000004,0.10638297,91.88943,-569.69763,0.025025211,0.026260734,0.08243847,0.0,0.0,0.0
456.32928,346.26953,8782168,0.8875,0.09574468,3.471828,-409.37448,0.025025211,0.026260734,0.08243847,0.0,0.0,0.0
455.59918,340.72192,8782185,0.9125,0.08510638,-91.72258,-242.10674,0.025025211,0.026260734,0.08243847,0.0,0.0,0.0
454.56763,335.22095,8782202,0.9125,0.08510638,-134.94716,-212.06772,0.025025211,0.026260734,0.08243847,0.0,0.0,0.0
453.52936,329.68433,8782218,0.925,0.08510638,-132.67087,-227.09106,0.025025211,0.026260734,0.08243847,0.0,0.0,0.0
452.4933,326.24622,8782235,0.9375,0.08510638,-103.895485,-227.26619,0.025025211,0.026260734,0.08243847,0.0,0.0,0.0
451.45782,324.40564,8782252,0.95,0.08510638,-74.72499,-138.26927,0.025025211,0.026260734,0.08243847,0.0,0.0,0.0
450.4272,323.2915,8782268,0.975,0.08510638,-60.809452,-30.494085,0.025025211,0.026260734,0.08243847,0.0,0.0,0.0
449.37274,323.2915,8782285,0.96250004,0.08510638,-61.931915,65.73415,0.025025211,0.026260734,0.08243847,0.0,0.0,0.0
448.32782,324.18738,8782302,0.925,0.08510638,-63.693687,103.933495,0.025025211,0.026260734,0.08243847,0.0,0.0,0.0
447.28857,327.88916,8782319,0.8875,0.09574468,-63.586437,192.80211,0.025025211,0.026260734,0.08243847,0.0,0.0,0.0
447.3322,333.51855,8782335,0.8625,0.09574468,-32.945377,343.2672,0.025025211,0.026260734,0.08243847,0.0,0.0,0.0
447.3322,340.23218,8782352,0.8625,0.10638297,4.197857,467.30078,0.025025211,0.026260734,0.08243847,0.0,0.0,0.0
448.01343,350.66956,8782369,0.85,0.09574468,41.325344,632.9024,0.025025211,0.026260734,0.08243847,0.0,0.0,0.0
450.3399,360.6394,8782385,0.8625,0.08510638,106.21293,725.4786,0.025025211,0.026260734,0.08243847,0.0,0.0,0.0
453.51477,371.9265,8782402,0.825,0.08510638,201.60594,780.82983,0.025025211,0.026260734,0.08243847,0.0,0.0,0.0
457.0713,382.35413,8782419,0.825,0.09574468,272.01318,746.2147,0.025025211,0.026260734,0.08243847,0.0,0.0,0.0
459.93756,390.12366,8782436,0.8,0.10638297,272.11533,604.95886,0.025025211,0.026260734,0.08243847,0.0,0.0,0.0
463.58563,395.98352,8782452,0.77500004,0.12765957,220.99515,392.84155,0.025025211,0.026260734,0.08243847,0.0,0.0,0.0
469.23157,404.19006,8782469,0.7875,0.11702127,263.57452,305.90637,0.025025211,0.026260734,0.08243847,0.0,0.0,0.0
476.46228,412.26587,8782486,0.7875,0.09574468,386.0943,366.5662,0.025025211,0.026260734,0.08243847,0.0,0.0,0.0
485.05023,418.18152,8782502,0.7625,0.08510638,538.31683,417.45663,0.025025211,0.026260734,0.08243847,0.0,0.0,0.0
492.38,422.84094,8782519,0.7625,0.08510638,588.5194,360.0833,0.025025211,0.026260734,0.08243847,0.0,0.0,0.0
499.63702,425.5647,8782536,0.7625,0.08510638,528.2871,184.12465,0.025025211,0.026260734,0.08243847,0.0,0.0,0.0
506.9541,425.46936,8782552,0.7875,0.08510638,454.24075,-9.902769,0.025025211,0.026260734,0.08243847,0.0,0.0,0.0
513.26056,422.32178,8782569,0.75,0.08510638,374.25543,-197.69273,0.025025211,0.026260734,0.08243847,0.0,0.0,0.0
531.5448,405.7379,8782586,0.7625,0.12765957,651.2408,-653.761,0.025025211,0.026260734,0.08243847,0.0,0.0,0.0
544.404,388.35278,8782603,0.7875,0.08510638,934.0283,-1175.9613,0.025025211,0.026260734,0.08243847,0.0,0.0,0.0
556.2869,368.62268,8782619,0.825,0.10638297,1030.1597,-1571.3347,0.0040201694,0.0050085783,0.0019512177,0.0,0.0,0.0
569.9253,342.44226,8782636,0.825,0.08510638,919.9312,-1747.2521,0.0040201694,0.0050085783,0.0019512177,0.0,0.0,0.0
579.8139,316.74902,8782653,0.8625,0.09574468,677.1923,-1814.1136,0.0040201694,0.0050085783,0.0019512177,0.0,0.0,0.0
585.66296,294.63306,8782669,0.83750004,0.12765957,439.2523,-1653.6075,0.0040201694,0.0050085783,0.0019512177,0.0,0.0,0.0
588.20197,270.38538,8782686,0.875,0.09574468,144.04343,-1454.6199,0.0040201694,0.0050085783,0.0019512177,0.0,0.0,0.0
588.7862,246.53711,8782703,0.8875,0.12765957,-122.021,-1369.2704,0.0040201694,0.0050085783,0.0019512177,0.0,0.0,0.0
588.7862,225.18298,8782720,0.90000004,0.09574468,-228.95901,-1311.4495,0.0040201694,0.0050085783,0.0019512177,0.0,0.0,0.0
586.24164,210.26367,8782736,0.925,0.11702127,-218.8305,-1144.6168,0.0040201694,0.0050085783,0.0019512177,0.0,0.0,0.0
583.63556,197.47107,8782753,0.90000004,0.12765957,-249.7989,-774.21295,0.0040201694,0.0050085783,0.0019512177,0.0,0.0,0.0
580.5054,187.39929,8782770,0.9125,0.12765957,-267.18115,-448.9625,0.0040201694,0.0050085783,0.0019512177,0.0,0.0,0.0
576.9143,180.46326,8782786,0.90000004,0.10638297,-273.76703,-280.11356,0.0040201694,0.0050085783,0.0019512177,0.0,0.0,0.0
572.7904,174.90967,8782803,0.9125,0.08510638,-276.08383,-167.51736,0.0040201694,0.0050085783,0.0019512177,0.0,0.0,0.0
568.7734,169.26147,8782820,0.925,0.08510638,-261.2825,-158.55466,0.0040201694,0.0050085783,0.0019512177,0.0,0.0,0.0
562.54645,163.36218,8782837,0.9125,0.08510638,-331.26315,-237.31532,0.0040201694,0.0050085783,0.0019512177,0.0,0.0,0.0
557.65063,160.1864,8782853,0.925,0.08510638,-367.5148,-236.65904,0.0040201694,0.0050085783,0.0019512177,0.0,0.0,0.0
553.8324,159.80688,8782870,0.925,0.08510638,-325.35837,-98.92725,0.0040201694,0.0050085783,0.0019512177,0.0,0.0,0.0
550.38495,160.43494,8782887,0.9125,0.08510638,-221.75818,86.390625,0.0040201694,0.0050085783,0.0019512177,2.9360124E-6,0.0,0.0
547.12573,162.2793,8782903,0.9125,0.11702127,-145.33888,223.14748,0.0040201694,0.0050085783,0.0019512177,2.9360124E-6,0.0,0.0
543.04584,169.14551,8782920,0.9125,0.11702127,-164.9781,352.8927,0.0040201694,0.0050085783,0.0019512177,2.9360124E-6,0.0,0.0
539.3329,179.24524,8782937,0.875,0.12765957,-218.71999,586.3886,0.0040201694,0.0050085783,0.0019512177,2.9360124E-6,0.0,0.0
536.23987,192.98218,8782954,0.875,0.09574468,-219.63676,883.4929,0.0040201694,0.0050085783,0.0019512177,0.0,0.0,0.0
535.8034,209.6958,8782970,0.8625,0.09574468,-119.01181,1130.5996,0.0040201694,0.0050085783,0.0019512177,0.0,0.0,0.0
535.2003,226.13611,8782987,0.85,0.12765957,-5.4210176,1239.8689,0.0040201694,0.0050085783,0.0019512177,0.0,0.0,0.0
535.9413,246.2666,8783004,0.875,0.11702127,86.02225,1276.2444,0.0040201694,0.0050085783,0.0019512177,0.0,0.0,0.0
536.64703,268.2887,8783020,0.8125,0.09574468,114.092026,1385.8378,0.0040201694,0.0050085783,0.0019512177,0.0,0.0,0.0
537.5253,287.16455,8783037,0.8125,0.12765957,94.55342,1334.9988,0.0040201694,0.0050085783,0.0019512177,0.0,0.0,0.0
537.8028,308.80786,8783054,0.825,0.09574468,66.5748,1325.3926,0.0040201694,0.0050085783,0.0019512177,0.0,0.0,0.0
537.5019,328.10486,8783071,0.8125,0.09574468,14.427537,1257.068,0.0040201694,0.0050085783,0.0019512177,0.0,0.0,0.0
536.8031,345.94763,8783087,0.8125,0.12765957,-51.93235,1093.5002,0.0040201694,0.0050085783,0.0019512177,0.0,0.0,0.0
535.8034,364.45203,8783104,0.825,0.09574468,-86.89896,1052.2234,0.0040201694,0.0050085783,0.0019512177,0.0,0.0,0.0
534.8989,382.3562,8783121,0.825,0.09574468,-83.77801,1005.6948,0.0040201694,0.0050085783,0.0019512177,0.0,0.0,0.0
534.8038,397.99963,8783137,0.825,0.12765957,-52.939487,957.10565,0.0040201694,0.0050085783,0.0019512177,0.0,0.0,0.0
534.3039,416.28894,8783154,0.83750004,0.09574468,-22.616192,1003.0496,0.0032161362,0.0040068626,0.0015611649,0.0,0.0,0.0
533.8041,433.9447,8783171,0.8125,0.09574468,-14.991639,1035.5325,0.0032161362,0.0040068626,0.0015611649,0.0,0.0,0.0
533.2341,445.76538,8783187,0.8125,0.12765957,-16.612755,901.7193,0.0032161362,0.0040068626,0.0015611649,0.0,0.0,0.0
533.93,458.7987,8783204,0.8,0.11702127,0.38494006,748.7978,0.0032161362,0.0040068626,0.0015611649,0.0,0.0,0.0
534.43494,471.2921,8783221,0.8125,0.09574468,29.78089,623.80524,0.0032161362,0.0040068626,0.0015611649,0.0,0.0,0.0
534.3039,479.64478,8783238,0.825,0.09574468,40.86231,509.26685,0.0032161362,0.0040068626,0.0015611649,0.0,0.0,0.0
534.8038,487.64746,8783254,0.825,0.09574468,37.336082,435.76675,0.0032161362,0.0040068626,0.0015611649,0.0,0.0,0.0
534.8038,491.91675,8783271,0.8125,0.09574468,13.221776,251.32935,0.0032161362,0.0040068626,0.0015611649,0.0,0.0,0.0
534.8038,494.26135,8783288,0.825,0.11702127,-2.6912782,64.2413,0.0032161362,0.0040068626,0.0015611649,0.0,0.0,0.0
534.8038,496.2456,8783304,0.85,0.11702127,-5.368405,-22.399746,0.0032161362,0.0040068626,0.0015611649,0.0,0.0,0.0
534.8038,496.54968,8783321,0.83750004,0.11702127,-8.946766,-74.86194,0.0032161362,0.0040068626,0.0015611649,0.0,0.0,0.0
534.8038,496.54968,8783338,0.8625,0.11702127,-5.3654313,-80.560326,0.0032161362,0.0040068626,0.0015611649,0.0,0.0,0.0
534.8038,496.54968,8783355,0.875,0.09574468,0.04858931,-65.931274,0.0032161362,0.0040068626,0.0015611649,0.0,0.0,0.0
534.8038,494.77063,8783371,0.8625,0.09574468,0.038903743,-95.834694,0.0032161362,0.0040068626,0.0015611649,0.0,0.0,0.0
535.3669,490.88098,8783388,0.83750004,0.09574468,12.76344,-178.4865,0.0032161362,0.0040068626,0.0015611649,0.0,0.0,0.0
536.88544,476.5735,8783405,0.8625,0.11702127,65.273476,-566.69995,0.0032161362,0.0040068626,0.0015611649,0.0,0.0,0.0
539.048,456.83167,8783421,0.8875,0.11702127,128.63496,-1151.3713,0.0032161362,0.0040068626,0.0015611649,0.0,0.0,0.0
542.2688,434.58545,8783438,0.9125,0.09574468,196.34688,-1599.5498,0.0032161362,0.0040068626,0.0015611649,0.0,0.0,0.0
546.0275,415.77612,8783455,0.90000004,0.12765957,249.20052,-1640.7081,0.0032161362,0.0040068626,0.0015611649,0.0,0.0,0.0
551.0663,398.75098,8783472,0.90000004,0.10638297,310.84943,-1274.4426,0.0032161362,0.0040068626,0.0015611649,0.0,0.0,0.0
557.1378,381.87427,8783488,0.90000004,0.08510638,382.91684,-1011.7762,0.0032161362,0.0040068626,0.0015611649,0.0,0.0,0.0
562.8273,371.21265,8783505,0.8875,0.10638297,422.01297,-731.3209,0.0032161362,0.0040068626,0.0015611649,0.0,0.0,0.0
568.4358,363.02002,8783522,0.8875,0.12765957,386.0028,-415.49356,0.0032161362,0.0040068626,0.0015611649,0.0,0.0,0.0
576.8513,353.4463,8783538,0.8875,0.12765957,418.05585,-297.1365,0.0032161362,0.0040068626,0.0015611649,0.0,0.0,0.0
583.61597,346.6941,8783555,0.875,0.11702127,448.58566,-263.54807,0.0032161362,0.0040068626,0.0015611649,0.0,0.0,0.0
591.0246,340.37183,8783572,0.875,0.10638297,481.21094,-312.96008,0.0032161362,0.0040068626,0.0015611649,0.0,0.0,0.0
596.34406,337.48608,8783589,0.9125,0.10638297,429.7188,-246.4645,0.0032161362,0.0040068626,0.0015611649,0.0,0.0,0.0
598.89185,336.61914,8783605,0.9375,0.10638297,241.82866,-44.191822,0.0032161362,0.0040068626,0.0015611649,0.0,0.0,0.0
600.9741,336.61914,8783622,0.96250004,0.10638297,87.12122,88.39992,0.0032161362,0.0040068626,0.0015611649,0.0,0.0,0.0
601.532,336.61914,8783634,0.975,0.12765957,4.6715207,144.90103,0.0032161362,0.0040068626,0.0015611649,0.0,0.0,0.0
602.0178,336.61914,8783654,0.975,0.12765957,-81.17997,133.31708,0.0032161362,0.0040068626,0.0015611649,0.0,0.0,0.0
602.2818,340.88867,8783672,0.9375,0.12765957,-59.598846,159.22046,0.0032161362,0.0040068626,0.0015611649,0.0,0.0,0.0
602.04016,345.01587,8783689,0.9125,0.12765957,-41.81634,263.6275,0.018572908,-0.036794513,-0.014751434,0.0,0.0,0.0
600.72015,351.05603,8783706,0.8625,0.12765957,-68.05574,401.1041,0.018572908,-0.036794513,-0.014751434,0.0,0.0,0.0
599.15,359.5398,8783722,0.83750004,0.08510638,-110.999985,522.29926,0.018572908,-0.036794513,-0.014751434,0.0,0.0,0.0
595.40295,371.12305,8783739,0.825,0.09574468,-195.05705,678.14795,0.018572908,-0.036794513,-0.014751434,0.0,0.0,0.0
591.82587,380.97205,8783756,0.8,0.09574468,-264.04538,792.23517,0.018572908,-0.036794513,-0.014751434,0.0,0.0,0.0
587.5298,389.4972,8783772,0.8,0.11702127,-309.33902,730.0891,0.018572908,-0.036794513,-0.014751434,0.0,0.0,0.0
583.88715,395.14258,8783789,0.825,0.12765957,-297.7354,493.15927,0.018572908,-0.036794513,-0.014751434,0.0,0.0,0.0
579.22675,402.4795,8783806,0.83750004,0.12765957,-281.99866,317.6511,0.018572908,-0.036794513,-0.014751434,0.0,0.0,0.0
576.175,406.0249,8783822,0.85,0.10638297,-238.47845,217.20598,0.018572908,-0.036794513,-0.014751434,0.0,0.0,0.0
573.6518,408.71167,8783839,0.8625,0.09574468,-180.60211,143.19774,0.018572908,-0.036794513,-0.014751434,0.0,0.0,0.0
571.29193,410.80908,8783855,0.8625,0.09574468,-118.01413,55.042904,0.018572908,-0.036794513,-0.014751434,0.0,0.0,0.0
570.58014,410.36487,8783873,0.875,0.09574468,-44.59646,-53.026043,0.018572908,-0.036794513,-0.014751434,0.0,0.0,0.0
568.6021,412.14185,8783889,0.8625,0.09574468,-40.76278,-46.875084,0.018572908,-0.036794513,-0.014751434,0.0,0.0,0.0
567.5859,412.51013,8783906,0.8875,0.09574468,-61.551704,1.470923,0.018572908,-0.036794513,-0.014751434,0.0,0.0,0.0
566.54,413.0304,8783923,0.925,0.09574468,-56.634144,16.390976,0.018572908,-0.036794513,-0.014751434,0.0,0.0,0.0
565.5233,413.0304,8783939,0.925,0.09574468,-48.71532,4.0949574,0.018572908,-0.036794513,-0.014751434,0.0,0.0,0.0
564.794,413.0304,8783956,0.9375,0.09574468,-37.30482,-24.099407,0.018572908,-0.036794513,-0.014751434,0.0,0.0,0.0
564.2941,413.0304,8783973,0.95,0.09574468,-30.812658,-9.107854,0.018572908,-0.036794513,-0.014751434,0.0,0.0,0.0
564.2941,413.0304,8783990,0.95,0.09574468,-6.153207,-14.1823845,0.018572908,-0.036794513,-0.014751434,0.0,0.0,0.0
564.2941,413.0304,8784002,0.9375,0.09574468,11.938234,-10.092888,0.018572908,-0.036794513,-0.014751434,0.0,0.0,0.0
564.2941,413.0304,8784023,0.95,0.10638297,24.00008,0.032622386,0.018572908,-0.036794513,-0.014751434,0.0,0.0,0.0
564.2941,413.0304,8784040,0.95,0.10638297,12.87206,0.008068728,0.018572908,-0.036794513,-0.014751434,0.0,0.0,0.0
564.2941,413.0304,8784051,0.925,0.09574468,8.89042,-0.012594338,0.018572908,-0.036794513,-0.014751434,0.0,0.0,0.0
564.9328,413.2771,8784073,0.83750004,0.09574468,16.720894,3.834011,0.018572908,-0.036794513,-0.014751434,0.0,0.0,0.0
565.95233,415.08948,8784090,0.8,0.08510638,49.311428,56.294346,0.018572908,-0.036794513,-0.014751434,0.0,0.0,0.0
568.93427,419.5016,8784106,0.7875,0.08510638,137.6405,200.63017,0.018572908,-0.036794513,-0.014751434,0.0,0.0,0.0
572.7342,425.8374,8784123,0.77500004,0.08510638,238.53658,386.29675,0.018572908,-0.036794513,-0.014751434,0.0,0.0,0.0
576.8303,432.18677,8784140,0.77500004,0.09574468,304.28665,496.32175,0.018572908,-0.036794513,-0.014751434,0.0,0.0,0.0
581.7233,438.54968,8784157,0.8,0.11702127,334.71103,503.09668,0.018572908,-0.036794513,-0.014751434,-1.6608594E-5,1.6608594E-5,0.0
586.7104,444.24817,8784173,0.77500004,0.12765957,346.16272,432.02884,0.018572908,-0.036794513,-0.014751434,-1.6608594E-5,1.6608594E-5,0.0
590.88574,448.92615,8784190,0.8,0.12765957,311.51294,322.4914,0.018572908,-0.036794513,-0.014751434,-1.6608594E-5,1.6608594E-5,0.0
595.03564,454.45886,8784207,0.8,0.12765957,265.0129,272.8599,0.018572908,-0.036794513,-0.014751434,-1.6608594E-5,1.6608594E-5,0.0
599.7056,460.03894,8784223,0.8125,0.09574468,248.49876,292.4748,-0.017141674,-0.021435648,0.06819916,0.0,2.9360124E-6,0.0
604.3639,464.65186,8784240,0.8125,0.09574468,263.6138,300.9396,-0.017141674,-0.021435648,0.06819916,0.0,2.9360124E-6,0.0
609.0122,468.32422,8784257,0.825,0.08510638,292.8367,265.84378,-0.017141674,-0.021435648,0.06819916,0.0,2.9360124E-6,0.0
613.1553,470.95056,8784274,0.83750004,0.08510638,280.1207,182.76062,-0.017141674,-0.021435648,0.06819916,0.0,2.9360124E-6,0.0
616.3391,472.8097,8784290,0.8625,0.08510638,220.77077,88.301025,-0.017141674,-0.021435648,0.06819916,0.0,-2.9360124E-6,0.0
619.2179,474.59863,8784307,0.8875,0.08510638,167.79393,47.12967,-0.017141674,-0.021435648,0.06819916,0.0,-2.9360124E-6,0.0
621.2015,474.33704,8784324,0.90000004,0.08510638,115.272545,-9.631411,-0.017141674,-0.021435648,0.06819916,0.0,-2.9360124E-6,0.0
622.4833,474.33704,8784340,0.9125,0.08510638,69.811905,-46.015934,-0.017141674,-0.021435648,0.06819916,0.0,-2.9360124E-6,0.0
624.0471,474.33704,8784357,0.9125,0.08510638,44.930244,-53.364998,-0.017141674,-0.021435648,0.06819916,0.0,0.0,0.0
624.58466,474.33704,8784374,0.90000004,0.09574468,15.067721,-42.08275,-0.017141674,-0.021435648,0.06819916,0.0,0.0,0.0
625.6156,473.73047,8784391,0.90000004,0.10638297,20.67466,-19.087217,-0.017141674,-0.021435648,0.06819916,0.0,0.0,0.0
626.66144,471.87134,8784407,0.9125,0.10638297,36.07562,-69.50905,-0.017141674,-0.021435648,0.06819916,0.0,0.0,0.0
627.70435,470.01746,8784424,0.8875,0.10638297,53.249016,-131.39453,-0.017141674,-0.021435648,0.06819916,0.0,0.0,0.0
629.2756,467.2246,8784441,0.8125,0.12765957,80.16895,-184.08163,-0.017141674,-0.021435648,0.06819916,0.0,0.0,0.0
630.85406,462.56897,8784457,0.8,0.12765957,101.48433,-259.70233,-0.017141674,-0.021435648,0.06819916,0.0,0.0,0.0
635.0457,455.0686,8784474,0.8,0.09574468,183.67125,-394.28253,-0.017141674,-0.021435648,0.06819916,0.0,0.0,0.0
642.7961,438.56067,8784491,0.8125,0.09574468,384.0362,-805.32935,-0.017141674,-0.021435648,0.06819916,3.355443E-6,0.0,0.0
651.2618,421.92273,8784507,0.85,0.12765957,555.1085,-1138.4198,-0.017141674,-0.021435648,0.06819916,3.355443E-6,0.0,0.0
660.3334,406.10718,8784524,0.85,0.09574468,667.1803,-1277.4044,-0.017141674,-0.021435648,0.06819916,3.355443E-6,0.0,0.0
668.7901,391.99292,8784541,0.83750004,0.08510638,630.9931,-1091.8822,-0.017141674,-0.021435648,0.06819916,3.355443E-6,0.0,0.0
676.2228,380.65173,8784558,0.8625,0.08510638,530.6186,-782.2848,-0.017141674,-0.021435648,0.06819916,0.0,0.0,0.0
683.49976,371.86975,8784574,0.875,0.11702127,450.582,-557.7189,-0.017141674,-0.021435648,0.06819916,0.0,0.0,0.0
690.07544,366.1692,8784591,0.85,0.11702127,355.99875,-289.8913,-0.017141674,-0.021435648,0.06819916,0.0,0.0,0.0
697.7874,361.9862,8784608,0.8625,0.12765957,383.63156,-136.11871,-0.017141674,-0.021435648,0.06819916,0.0,0.0,0.0
705.03937,359.01172,8784624,0.8625,0.12765957,420.7558,-44.36681,-0.017141674,-0.021435648,0.06819916,0.0,0.0,0.0
712.9052,357.1411,8784641,0.8625,0.10638297,460.38687,-8.381292,-0.017141674,-0.021435648,0.06819916,0.0,0.0,0.0
720.7784,356.16614,8784658,0.875,0.10638297,487.93457,5.4786882,-0.017141674,-0.021435648,0.06819916,0.0,0.0,0.0
727.9922,356.16614,8784675,0.8625,0.10638297,472.82846,40.117035,-0.017141674,-0.021435648,0.06819916,0.0,0.0,0.0
733.64014,357.17346,8784691,0.8875,0.10638297,407.43314,85.59544,-0.017141674,-0.021435648,0.06819916,2.9360124E-6,0.0,0.0
738.78375,359.02588,8784708,0.8625,0.10638297,314.47556,144.66457,-0.017141674,-0.021435648,0.06819916,2.9360124E-6,0.0,0.0
743.33496,360.87476,8784725,0.875,0.11702127,240.41183,176.92807,-0.017141674,-0.021435648,0.06819916,2.9360124E-6,0.0,0.0
747.9014,362.682,8784741,0.8625,0.11702127,213.97125,169.35733,-0.017141674,-0.021435648,0.06819916,2.9360124E-6,0.0,0.0
751.5053,364.40442,8784758,0.875,0.11702127,208.8386,128.77432,-0.0137133375,-0.041148543,-0.041440964,3.355443E-6,0.0,0.0
753.9895,365.9397,8784775,0.875,0.11702127,162.14752,102.00623,-0.0137133375,-0.041148543,-0.041440964,3.355443E-6,0.0,0.0
755.0438,365.9397,8784792,0.9125,0.11702127,73.558426,45.64165,-0.0137133375,-0.041148543,-0.041440964,3.355443E-6,0.0,0.0
755.232,365.9397,8784808,0.90000004,0.11702127,-16.68681,-14.883961,-0.0137133375,-0.041148543,-0.041440964,3.355443E-6,0.0,0.0
755.232,365.9397,8784825,0.90000004,0.11702127,-75.72608,-49.54529,-0.0137133375,-0.041148543,-0.041440964,0.0,0.0,0.0
754.82367,365.9397,8784842,0.90000004,0.09574468,-79.279526,-43.713116,-0.0137133375,-0.041148543,-0.041440964,0.0,0.0,0.0
753.7807,365.9397,8784858,0.9125,0.09574468,-80.1561,-10.093926,-0.0137133375,-0.041148543,-0.041440964,0.0,0.0,0.0
752.21564,365.9397,8784875,0.875,0.09574468,-100.0306,0.0055988533,-0.0137133375,-0.041148543,-0.041440964,0.0,0.0,0.0
749.1688,365.9397,8784892,0.8625,0.08510638,-166.10535,7.66937E-4,-0.0137133375,-0.041148543,-0.041440964,0.0,0.0,0.0
743.2071,365.9397,8784908,0.85,0.08510638,-302.3905,-4.6502354E-4,-0.0137133375,-0.041148543,-0.041440964,0.0,0.0,0.0
736.302,365.9397,8784925,0.8625,0.08510638,-444.4322,-0.010475506,-0.0137133375,-0.041148543,-0.041440964,0.0,0.0,0.0
728.45636,367.11353,8784942,0.85,0.08510638,-552.3805,26.554451,-0.0137133375,-0.041148543,-0.041440964,0.0,0.0,0.0
721.5502,368.06995,8784959,0.8625,0.08510638,-566.4699,60.7125,-0.0137133375,-0.041148543,-0.041440964,4.152149E-6,0.0,0.0
715.03046,371.2456,8784975,0.8625,0.08510638,-477.93817,153.06923,-0.0137133375,-0.041148543,-0.041440964,4.152149E-6,0.0,0.0
710.12054,374.9369,8784992,0.875,0.09574468,-357.0569,250.7496,-0.0137133375,-0.041148543,-0.041440964,4.152149E-6,0.0,0.0
706.7557,378.66553,8785009,0.8875,0.11702127,-213.97179,296.6303,-0.0137133375,-0.041148543,-0.041440964,4.152149E-6,0.0,0.0
703.63525,382.3634,8785026,0.8875,0.11702127,-112.58433,287.165,-0.0137133375,-0.041148543,-0.041440964,0.0,0.0,0.0
699.1109,388.56006,8785042,0.8875,0.12765957,-127.13399,309.7668,-0.0137133375,-0.041148543,-0.041440964,0.0,0.0,0.0
695.45667,394.89563,8785059,0.8625,0.12765957,-188.46858,377.30875,-0.0137133375,-0.041148543,-0.041440964,0.0,0.0,0.0
691.31036,402.266,8785076,0.85,0.12765957,-246.47905,472.01608,-0.0137133375,-0.041148543,-0.041440964,0.0,0.0,0.0
687.66437,409.63562,8785092,0.83750004,0.08510638,-247.13777,510.70782,-0.0137133375,-0.041148543,-0.041440964,2.367087E-5,0.0,0.0
682.9173,419.97107,8785109,0.825,0.08510638,-250.23685,574.5432,-0.0137133375,-0.041148543,-0.041440964,2.367087E-5,0.0,0.0
679.3514,427.07825,8785126,0.825,0.08510638,-244.26146,564.0717,-0.0137133375,-0.041148543,-0.041440964,2.367087E-5,0.0,0.0
676.44196,435.47668,8785143,0.83750004,0.08510638,-220.48842,540.0479,-0.0137133375,-0.041148543,-0.041440964,2.367087E-5,0.0,0.0
674.3507,440.77185,8785159,0.83750004,0.09574468,-149.57515,421.56564,-0.0137133375,-0.041148543,-0.041440964,0.0,0.0,0.0
673.75854,446.55957,8785176,0.8125,0.10638297,-39.7007,297.17126,-0.0137133375,-0.041148543,-0.041440964,0.0,0.0,0.0
674.9975,452.0492,8785193,0.7875,0.10638297,72.383385,259.11523,-0.0137133375,-0.041148543,-0.041440964,0.0,0.0,0.0
676.85614,458.5193,8785209,0.77500004,0.09574468,170.65184,312.2518,-0.0137133375,-0.041148543,-0.041440964,0.0,0.0,0.0
679.6108,462.8142,8785226,0.7625,0.08510638,225.38998,313.8852,-0.0137133375,-0.041148543,-0.041440964,0.0,0.0,0.0
683.3893,468.3556,8785243,0.77500004,0.08510638,279.34818,292.304,-0.0137133375,-0.041148543,-0.041440964,0.0,0.0,0.0
687.31836,473.75623,8785260,0.77500004,0.09574468,281.55807,293.55328,-0.0137133375,-0.041148543,-0.041440964,0.0,0.0,0.0
692.494,478.55005,8785276,0.77500004,0.09574468,318.34198,284.94818,-0.0137133375,-0.041148543,-0.041440964,0.0,0.0,0.0
698.2022,482.2992,8785293,0.7875,0.09574468,350.73624,264.17926,0.005029328,0.023081183,0.014846802,0.0,0.0,0.0
702.85736,484.1587,8785310,0.8125,0.08510638,360.69482,161.31047,0.005029328,0.023081183,0.014846802,0.0,0.0,0.0
705.9596,484.1106,8785326,0.8125,0.08510638,287.61697,16.717737,0.005029328,0.023081183,0.014846802,0.0,0.0,0.0
709.535,484.1106,8785343,0.8,0.08510638,197.34114,-80.7781,0.005029328,0.023081183,0.014846802,0.0,0.0,0.0
713.0562,482.14966,8785360,0.8,0.08510638,160.32184,-154.40363,0.005029328,0.023081183,0.014846802,0.0,0.0,0.0
718.1897,478.99597,8785376,0.8,0.08510638,207.95094,-218.52592,0.005029328,0.023081183,0.014846802,0.0,0.0,0.0
726.5503,468.77405,8785393,0.8125,0.10638297,407.5715,-459.20993,0.005029328,0.023081183,0.014846802,0.0,0.0,0.0
733.56287,459.54565,8785410,0.825,0.10638297,532.70685,-704.39746,0.005029328,0.023081183,0.014846802,0.0,0.0,0.0
738.2212,449.84937,8785427,0.85,0.08510638,472.6932,-786.85504,0.005029328,0.023081183,0.014846802,0.0,0.0,0.0
745.3686,433.84497,8785443,0.8625,0.09574468,395.69937,-911.9453,0.005029328,0.023081183,0.014846802,0.0,0.0,0.0
749.4487,422.2937,8785460,0.83750004,0.11702127,285.93884,-909.043,0.005029328,0.023081183,0.014846802,0.0,0.0,0.0
752.0048,413.15564,8785477,0.85,0.12765957,176.40306,-764.6922,0.005029328,0.023081183,0.014846802,0.0,0.0,0.0
754.1572,405.30066,8785493,0.8625,0.12765957,103.28598,-565.55896,0.005029328,0.023081183,0.014846802,0.0,0.0,0.0
755.23035,398.82617,8785510,0.8625,0.11702127,0.3474225,-306.96417,0.005029328,0.023081183,0.014846802,0.0,0.0,0.0
755.7318,393.29053,8785527,0.8875,0.09574468,-30.96619,-223.18353,0.005029328,0.023081183,0.014846802,0.0,0.0,0.0
755.7318,387.87183,8785544,0.90000004,0.09574468,-33.229237,-244.67906,0.005029328,0.023081183,0.014846802,0.0,0.0,0.0
755.7318,384.21606,8785560,0.8875,0.09574468,-49.037792,-206.65074,0.005029328,0.023081183,0.014846802,0.0,0.0,0.0
755.7318,382.54163,8785577,0.90000004,0.09574468,-40.289978,-126.578964,0.005029328,0.023081183,0.014846802,0.0,0.0,0.0
755.7318,380.69666,8785594,0.925,0.09574468,-20.476463,-43.478886,0.005029328,0.023081183,0.014846802,0.0,0.0,0.0
755.5209,379.2672,8785610,0.95,0.09574468,-3.3766098,-10.295012,0.005029328,0.023081183,0.014846802,0.0,0.0,0.0
754.8439,379.2672,8785627,0.95,0.09574468,-25.678585,7.7855945,0.005029328,0.023081183,0.014846802,0.0,0.0,0.0
754.4205,379.2672,8785644,0.96250004,0.11702127,-40.286892,29.474842,0.005029328,0.023081183,0.014846802,0.0,0.0,0.0
753.4066,379.84656,8785661,0.925,0.11702127,-58.56914,61.741558,0.005029328,0.023081183,0.014846802,0.0,0.0,0.0
752.38153,381.66858,8785677,0.90000004,0.11702127,-71.25383,111.43187,0.005029328,0.023081183,0.014846802,0.0,0.0,0.0
751.73315,385.24365,8785694,0.85,0.11702127,-68.89899,186.29478,0.005029328,0.023081183,0.014846802,0.0,0.0,0.0
750.7606,388.9441,8785711,0.8125,0.11702127,-60.354942,274.6851,0.005029328,0.023081183,0.014846802,0.0,0.0,0.0
750.23364,393.53687,8785727,0.7875,0.12765957,-42.832054,324.49164,0.005029328,0.023081183,0.014846802,0.0,0.0,0.0
750.23364,400.79883,8785744,0.7875,0.12765957,-12.03014,409.9168,0.005029328,0.023081183,0.014846802,0.0,0.0,0.0
749.73376,408.2876,8785761,0.8,0.11702127,-5.9192786,487.7149,0.005029328,0.023081183,0.014846802,0.0,0.0,0.0
749.73376,416.8435,8785778,0.8,0.09574468,3.2795193,563.0811,0.005029328,0.023081183,0.014846802,0.0,0.0,0.0
749.04254,426.28198,8785794,0.7875,0.09574468,-4.3135166,623.0668,0.005029328,0.023081183,0.014846802,0.0,0.0,0.0
749.23395,433.99268,8785811,0.77500004,0.09574468,-12.5208845,594.51624,0.005029328,0.023081183,0.014846802,0.0,0.0,0.0
749.23395,440.84473,8785828,0.7875,0.11702127,-1.1629719,495.15106,0.03602346,0.00246495,0.01187706,2.9360124E-6,0.0,0.0
749.23395,446.98572,8785844,0.7625,0.12765957,2.0200016,363.3564,0.03602346,0.00246495,0.01187706,2.9360124E-6,0.0,0.0
749.98645,453.4718,8785861,0.77500004,0.12765957,28.556273,306.82852,0.03602346,0.00246495,0.01187706,2.9360124E-6,0.0,0.0
751.06866,460.1316,8785878,0.77500004,0.11702127,62.478634,333.722,0.03602346,0.00246495,0.01187706,2.9360124E-6,0.0,0.0
752.10315,465.6482,8785894,0.77500004,0.09574468,85.526146,347.2198,0.03602346,0.00246495,0.01187706,2.9360124E-6,0.0,0.0
754.55914,471.364,8785911,0.77500004,0.09574468,126.16767,343.14005,0.03602346,0.00246495,0.01187706,2.9360124E-6,0.0,0.0
756.6783,476.01953,8785928,0.7875,0.09574468,158.51337,297.79922,0.03602346,0.00246495,0.01187706,2.9360124E-6,0.0,0.0
757.7443,478.80298,8785945,0.8,0.08510638,130.9762,203.99527,0.03602346,0.00246495,0.01187706,2.9360124E-6,0.0,0.0
759.3442,480.65747,8785961,0.8,0.08510638,100.3584,100.23741,0.03602346,0.00246495,0.01187706,0.0,0.0,0.0
761.4176,482.50037,8785978,0.8125,0.08510638,90.52813,31.177855,0.03602346,0.00246495,0.01187706,0.0,0.0,0.0
763.5116,484.36145,8785995,0.825,0.08510638,108.120384,26.80083,0.03602346,0.00246495,0.01187706,0.0,0.0,0.0
765.5714,485.3037,8786011,0.825,0.08510638,138.78763,36.075893,0.03602346,0.00246495,0.01187706,0.0,0.0,0.0
768.6239,484.99915,8786028,0.85,0.08510638,172.71936,14.388929,0.03602346,0.00246495,0.01187706,0.0,0.0,0.0
771.22797,484.99915,8786045,0.875,0.08510638,178.30536,-33.522804,0.03602346,0.00246495,0.01187706,0.0,0.0,0.0
773.30725,484.99915,8786062,0.9125,0.08510638,165.64233,-45.708714,0.03602346,0.00246495,0.01187706,0.0,0.0,0.0
775.38446,483.52515,8786078,0.9125,0.08510638,131.81836,-62.772865,0.03602346,0.00246495,0.01187706,0.0,0.0,0.0
777.461,481.67944,8786095,0.8625,0.08510638,103.13739,-114.36959,0.03602346,0.00246495,0.01187706,0.0,0.0,0.0
780.035,478.9475,8786112,0.83750004,0.08510638,122.82068,-180.96794,0.03602346,0.00246495,0.01187706,0.0,0.0,0.0
782.03766,475.55542,8786128,0.83750004,0.09574468,131.25,-225.24786,0.03602346,0.00246495,0.01187706,0.0,0.0,0.0
784.64484,470.92102,8786145,0.8,0.09574468,137.9533,-268.8685,0.03602346,0.00246495,0.01187706,0.0,0.0,0.0
788.80695,463.52234,8786162,0.7875,0.12765957,201.97035,-401.1147,0.03602346,0.00246495,0.01187706,0.0,0.0,0.0
794.0353,454.22864,8786179,0.8,0.09574468,294.57922,-569.062,0.03602346,0.00246495,0.01187706,0.0,0.0,0.0
800.40356,441.97253,8786195,0.825,0.09574468,398.3616,-752.50665,0.03602346,0.00246495,0.01187706,0.0,0.0,0.0
810.24994,418.26562,8786212,0.8125,0.12765957,562.74066,-1197.29,0.03602346,0.00246495,0.01187706,0.0,0.0,0.0
816.7032,404.79773,8786229,0.825,0.10638297,568.6865,-1305.5226,0.03602346,0.00246495,0.01187706,0.0,0.0,0.0
821.3908,386.32068,8786245,0.825,0.08510638,454.2529,-1286.4396,0.03602346,0.00246495,0.01187706,0.0,0.0,0.0
825.27075,370.05396,8786262,0.825,0.10638297,243.20197,-1078.1041,0.03602346,0.00246495,0.01187706,0.0,0.0,0.0
829.266,352.82422,8786279,0.825,0.10638297,125.688705,-952.7967,0.03602346,0.00246495,0.01187706,0.0,0.0,0.0
832.62134,335.2975,8786296,0.825,0.08510638,151.5022,-1057.2158,0.03602346,0.00246495,0.01187706,0.0,0.0,0.0
834.2063,320.5608,8786312,0.825,0.08510638,113.0783,-928.1362,0.03602346,0.00246495,0.01187706,0.0,0.0,0.0
835.58594,302.1079,8786329,0.83750004,0.12765957,56.851322,-961.94336,0.03602346,0.00246495,0.01187706,0.0,0.0,0.0
836.987,283.66663,8786346,0.825,0.08510638,15.727462,-1007.9157,0.03602346,0.00246495,0.01187706,0.0,0.0,0.0
838.64,264.02563,8786362,0.825,0.08510638,31.505676,-1122.4159,-0.019181233,-0.054028064,-0.006497383,0.0,0.0,0.0
839.7285,242.85791,8786379,0.85,0.10638297,68.69403,-1316.5024,-0.019181233,-0.054028064,-0.006497383,0.0,0.0,0.0
841.8365,222.48254,8786396,0.85,0.08510638,103.93392,-1364.5751,-0.019181233,-0.054028064,-0.006497383,0.0,0.0,0.0
841.08795,205.0398,8786412,0.85,0.12765957,45.66262,-1255.9353,-0.019181233,-0.054028064,-0.006497383,0.0,0.0,0.0
841.20404,190.34912,8786429,0.85,0.12765957,-15.522736,-990.4662,-0.019181233,-0.054028064,-0.006497383,0.0,0.0,0.0
840.0209,178.6117,8786446,0.85,0.08510638,-75.98016,-729.2602,-0.019181233,-0.054028064,-0.006497383,0.0,0.0,0.0
838.97943,169.35559,8786463,0.83750004,0.08510638,-112.119644,-504.94598,-0.019181233,-0.054028064,-0.006497383,0.0,0.0,0.0
837.44037,161.9491,8786479,0.85,0.08510638,-108.218414,-351.26483,-0.019181233,-0.054028064,-0.006497383,0.0,0.0,0.0
836.11707,156.98389,8786496,0.8875,0.08510638,-105.312874,-216.58034,-0.019181233,-0.054028064,-0.006497383,0.0,0.0,0.0
834.8636,153.86731,8786513,0.8875,0.08510638,-96.17925,-88.62991,-0.019181233,-0.054028064,-0.006497383,0.0,0.0,0.0
833.825,152.02112,8786529,0.8875,0.08510638,-76.12741,2.8983052,-0.019181233,-0.054028064,-0.006497383,0.0,0.0,0.0
833.2066,151.81042,8786546,0.9125,0.08510638,-50.731686,70.4425,-0.019181233,-0.054028064,-0.006497383,0.0,0.0,0.0
832.2517,151.81042,8786563,0.9125,0.08510638,-32.144215,100.45836,-0.019181233,-0.054028064,-0.006497383,0.0,0.0,0.0
831.7071,154.44946,8786580,0.95,0.10638297,-29.515865,154.85715,-0.019181233,-0.054028064,-0.006497383,0.0,0.0,0.0
831.7071,158.1416,8786596,0.9375,0.10638297,-12.017855,252.61906,-0.019181233,-0.054028064,-0.006497383,0.0,0.0,0.0
831.7071,162.77563,8786613,0.90000004,0.09574468,9.410068,335.7628,-0.019181233,-0.054028064,-0.006497383,0.0,0.0,0.0
831.7071,167.52136,8786630,0.8625,0.09574468,20.126156,374.24835,-0.019181233,-0.054028064,-0.006497383,0.0,0.0,0.0
832.3625,173.07507,8786646,0.8125,0.10638297,35.48431,391.73468,-0.019181233,-0.054028064,-0.006497383,0.0,0.0,0.0
832.8999,181.07068,8786663,0.825,0.10638297,39.249275,432.42938,-0.019181233,-0.054028064,-0.006497383,0.0,0.0,0.0
833.93646,193.76611,8786680,0.8,0.09574468,66.5235,662.2838,-0.019181233,-0.054028064,-0.006497383,0.0,0.0,0.0
835.2479,207.19617,8786697,0.7875,0.08510638,87.52717,891.68475,-0.019181233,-0.054028064,-0.006497383,0.0,0.0,0.0
836.2056,218.73438,8786713,0.7875,0.08510638,92.35963,944.45056,-0.019181233,-0.054028064,-0.006497383,0.0,0.0,0.0
836.2056,232.63745,8786730,0.77500004,0.10638297,46.868423,885.61884,-0.019181233,-0.054028064,-0.006497383,0.0,0.0,0.0
835.48334,248.21545,8786747,0.77500004,0.09574468,-20.07578,862.85156,-0.019181233,-0.054028064,-0.006497383,0.0,0.0,0.0
835.5521,262.4651,8786763,0.7625,0.08510638,-62.8595,889.9651,-0.019181233,-0.054028064,-0.006497383,0.0,2.9360124E-6,0.0
835.6548,275.65662,8786780,0.77500004,0.08510638,-49.94196,907.80756,-0.019181233,-0.054028064,-0.006497383,0.0,2.9360124E-6,0.0
835.7058,288.67188,8786797,0.7875,0.10638297,1.2151605,825.6176,-0.019181233,-0.054028064,-0.006497383,0.0,2.9360124E-6,0.0
836.2056,302.58618,8786814,0.7625,0.08510638,33.74421,771.06445,-0.019181233,-0.054028064,-0.006497383,0.0,2.9360124E-6,0.0
836.7277,314.68274,8786830,0.77500004,0.08510638,42.731213,759.02966,-0.019181233,-0.054028064,-0.006497383,0.0,0.0,0.0
837.2053,326.2765,8786847,0.7875,0.09574468,37.750473,733.72815,-0.019181233,-0.054028064,-0.006497383,0.0,0.0,0.0
838.3602,338.2743,8786864,0.77500004,0.10638297,57.57632,699.31793,-0.019181233,-0.054028064,-0.006497383,0.0,0.0,0.0
839.89886,351.47632,8786880,0.77500004,0.09574468,84.28001,697.0338,-0.019181233,-0.054028064,-0.006497383,0.0,0.0,0.0
841.6714,364.4049,8786897,0.77500004,0.08510638,116.918945,753.90186,-0.015344989,-0.011222452,-0.005197525,4.152149E-6,-4.152149E-6,0.0
843.9908,375.8473,8786914,0.77500004,0.08510638,143.24626,756.5506,-0.015344989,-0.011222452,-0.005197525,4.152149E-6,-4.152149E-6,0.0
846.09796,385.1156,8786930,0.7625,0.09574468,158.26387,638.3781,-0.015344989,-0.011222452,-0.005197525,4.152149E-6,-4.152149E-6,0.0
849.2161,395.31274,8786947,0.7625,0.12765957,176.83769,525.0558,-0.015344989,-0.011222452,-0.005197525,4.152149E-6,-4.152149E-6,0.0
851.3707,405.94006,8786964,0.75,0.10638297,172.0687,519.9731,-0.015344989,-0.011222452,-0.005197525,0.0,0.0,0.0
854.42377,418.4325,8786981,0.7625,0.09574468,168.10503,641.19037,-0.015344989,-0.011222452,-0.005197525,0.0,0.0,0.0
857.5941,427.82507,8786997,0.7625,0.09574468,180.91772,680.6484,-0.015344989,-0.011222452,-0.005197525,0.0,0.0,0.0
860.25354,434.4535,8787014,0.7625,0.09574468,186.97598,552.1323,-0.015344989,-0.011222452,-0.005197525,0.0,0.0,0.0
862.2976,438.88623,8787031,0.7625,0.11702127,162.09137,322.6069,-0.015344989,-0.011222452,-0.005197525,0.0,0.0,0.0
864.3885,442.69214,8787048,0.7625,0.12765957,128.46945,119.43904,-0.015344989,-0.011222452,-0.005197525,0.0,0.0,0.0
867.0855,446.36694,8787064,0.7625,0.12765957,115.41924,64.08074,-0.015344989,-0.011222452,-0.005197525,0.0,0.0,0.0
871.3585,450.0492,8787081,0.8,0.10638297,182.32219,103.91348,-0.015344989,-0.011222452,-0.005197525,0.0,0.0,0.0
875.5116,452.48828,8787098,0.8,0.10638297,264.3798,144.73749,-0.015344989,-0.011222452,-0.005197525,0.0,0.0,0.0
879.4418,454.34583,8787114,0.8125,0.10638297,306.2868,129.50275,-0.015344989,-0.011222452,-0.005197525,0.0,0.0,0.0
883.3486,456.1931,8787131,0.83750004,0.10638297,273.1187,70.60085,-0.015344989,-0.011222452,-0.005197525,0.0,0.0,0.0
886.34454,456.56702,8787148,0.83750004,0.10638297,212.73654,24.402786,-0.015344989,-0.011222452,-0.005197525,0.0,0.0,0.0
888.91016,456.56702,8787164,0.85,0.10638297,153.01357,-19.66512,-0.015344989,-0.011222452,-0.005197525,0.0,0.0,0.0
891.2466,456.56702,8787181,0.83750004,0.10638297,110.086685,-42.400715,-0.015344989,-0.011222452,-0.005197525,0.0,0.0,0.0
893.569,456.56702,8787198,0.8125,0.10638297,103.1368,-51.594887,-0.015344989,-0.011222452,-0.005197525,0.0,0.0,0.0
894.6704,456.56702,8787215,0.7875,0.10638297,81.16194,-25.18321,-0.015344989,-0.011222452,-0.005197525,0.0,0.0,0.0
895.70624,456.56702,8787231,0.6875,0.10638297,54.299038,-0.015709197,-0.015344989,-0.011222452,-0.005197525,0.0,0.0,0.0
897.254,456.56702,8787248,0.38750002,0.12765957,45.2515,-0.01835546,-0.015344989,-0.011222452,-0.005197525,0.0,0.0,0.0
897.254,456.56702,8787255,0.38750002,0.12765957,45.2515,-0.01835546,-0.015344989,-0.011222452,-0.005197525,0.0,0.0,0.0
749.23395,273.5354,8787512,0.9375,0.11702127,0.0,0.0,-0.01227599,-0.008977979,0.011841774,0.0,0.0,0.0
749.23395,273.5354,8787532,0.9875,0.11702127,-0.001492595,0.001371521,-0.01227599,-0.008977979,0.011841774,0.0,0.0,0.0
749.23395,273.5354,8787540,1.0,0.11702127,-0.013064252,-0.006703584,-0.01227599,-0.008977979,0.011841774,0.0,0.0,0.0
749.23395,273.5354,8787566,0.975,0.11702127,0.017997839,0.0061083864,-0.01227599,-0.008977979,0.011841774,1.3130245E-5,-6.5651225E-6,0.0
749.23395,273.5354,8787582,0.9125,0.11702127,0.028206026,0.009825582,-0.01227599,-0.008977979,0.011841774,1.3130245E-5,-6.5651225E-6,0.0
749.23395,273.5354,8787599,0.8,0.09574468,-0.014760517,-0.0058625704,-0.01227599,-0.008977979,0.011841774,1.3130245E-5,-6.5651225E-6,0.0
776.39813,273.5354,8787616,0.8,0.08510638,851.59796,-0.009295792,-0.01227599,-0.008977979,0.011841774,1.3130245E-5,-6.5651225E-6,0.0
792.1176,275.23596,8787632,0.8,0.10638297,1410.9233,40.0181,-0.01227599,-0.008977979,0.011841774,0.0,0.0,0.0
810.69556,277.08752,8787649,0.8,0.11702127,1708.218,119.31526,-0.01227599,-0.008977979,0.011841774,0.0,0.0,0.0
829.5082,279.8971,8787666,0.7875,0.09574468,1486.1785,177.111,-0.01227599,-0.008977979,0.011841774,0.0,0.0,0.0
847.1558,281.6754,8787683,0.7375,0.11702127,1135.642,189.60732,-0.01227599,-0.008977979,0.011841774,0.0,0.0,0.0
877.5372,284.61145,8787699,0.75,0.09574468,1327.079,180.29721,-0.01227599,-0.008977979,0.011841774,0.0,0.0,0.0
911.45013,285.08594,8787716,0.58750004,0.11702127,1961.9056,120.17706,-0.01227599,-0.008977979,0.011841774,0.0,0.0,0.0
927.176,288.6399,8787722,0.275,0.12765957,2193.156,145.04109,-0.01227599,-0.008977979,0.011841774,0.0,0.0,0.0
927.176,288.6399,8787729,0.275,0.12765957,2193.156,145.04109,-0.01227599,-0.008977979,0.011841774,0.0,0.0,0.0
1008.64954,361.4972,8788077,0.75,0.09574468,0.0,0.0,-0.025820792,0.01681763,0.009472847,0.0,0.0,0.0
1008.64954,361.4972,8788100,0.8,0.09574468,-0.1317012,-0.047055412,-0.025820792,0.01681763,0.009472847,0.0,0.0,0.0
1008.64954,361.4972,8788117,0.85,0.10638297,0.053281635,0.01913831,-0.025820792,0.01681763,0.009472847,0.0,0.0,0.0
1008.64954,361.4972,8788134,0.8625,0.09574468,0.024412815,0.008635463,-0.025820792,0.01681763,0.009472847,0.0,0.0,0.0
1008.64954,361.4972,8788157,0.85,0.10638297,-0.042000607,-0.013126969,-0.025820792,0.01681763,0.009472847,0.0,0.0,0.0
1008.64954,361.4972,8788184,0.83750004,0.10638297,-0.015402334,-0.0066342703,-0.025820792,0.01681763,0.009472847,0.0,0.0,0.0
983.36597,364.9259,8788201,0.8125,0.09574468,-783.3287,98.68431,-0.025820792,0.01681763,0.009472847,0.0,0.0,0.0
971.9238,368.6012,8788217,0.8125,0.08510638,-1304.4086,250.58566,-0.025820792,0.01681763,0.009472847,0.0,0.0,0.0
961.5812,373.68958,8788234,0.8,0.08510638,-982.86676,356.74658,-0.025820792,0.01681763,0.009472847,0.0,0.0,0.0
952.8862,379.22766,8788251,0.8,0.08510638,-737.7365,408.03308,-0.025820792,0.01681763,0.009472847,0.0,0.0,0.0
945.58685,384.78857,8788267,0.8125,0.09574468,-255.67688,405.73456,-0.025820792,0.01681763,0.009472847,0.0,0.0,0.0
939.6442,390.3142,8788284,0.8,0.12765957,-304.71768,388.7664,-0.025820792,0.01681763,0.009472847,0.0,0.0,0.0
934.4689,396.61768,8788301,0.7875,0.12765957,-239.37315,365.82767,-0.025820792,0.01681763,0.009472847,2.9360124E-6,0.0,0.0
928.2369,408.47925,8788317,0.7625,0.11702127,-248.7747,526.5939,-0.025820792,0.01681763,0.009472847,2.9360124E-6,0.0,0.0
923.5701,419.5354,8788334,0.7625,0.09574468,-272.27484,728.8817,-0.025820792,0.01681763,0.009472847,2.9360124E-6,0.0,0.0
921.0197,428.83813,8788351,0.7625,0.09574468,-204.93015,746.91254,-0.025820792,0.01681763,0.009472847,2.9360124E-6,0.0,0.0
919.56573,436.04443,8788368,0.75,0.09574468,-100.02485,621.4467,-0.025820792,0.01681763,0.009472847,0.0,0.0,0.0
920.4282,444.12793,8788384,0.71250004,0.11702127,55.05688,431.03143,-0.025820792,0.01681763,0.009472847,0.0,0.0,0.0
923.3449,450.15247,8788401,0.7,0.12765957,202.76309,328.38824,-0.025820792,0.01681763,0.009472847,0.0,0.0,0.0
926.3088,455.51147,8788418,0.71250004,0.09574468,281.26086,314.5449,-0.025820792,0.01681763,0.009472847,0.0,0.0,0.0
933.53046,463.7832,8788434,0.7,0.08510638,421.2574,376.62555,-0.025820792,0.01681763,0.009472847,0.0,0.0,0.0
941.9045,469.73657,8788451,0.725,0.08510638,557.21326,412.12128,-0.025820792,0.01681763,0.009472847,0.0,0.0,0.0
951.5895,473.776,8788468,0.7625,0.08510638,677.35675,331.79523,-0.025820792,0.01681763,0.009472847,0.0,0.0,0.0
960.16846,475.2256,8788485,0.7625,0.09574468,698.13745,156.13577,-0.025820792,0.01681763,0.009472847,0.0,0.0,0.0
972.0056,471.25708,8788501,0.7625,0.09574468,674.4452,-156.85892,0.027343366,0.013454109,-0.024421692,0.0,0.0,0.0
985.19214,463.1996,8788518,0.77500004,0.10638297,775.5623,-498.37973,0.027343366,0.013454109,-0.024421692,0.0,0.0,0.0
996.6129,451.28186,8788535,0.8125,0.09574468,817.9428,-817.0912,0.027343366,0.013454109,-0.024421692,0.0,0.0,0.0
1004.9452,437.38513,8788551,0.8125,0.08510638,691.05615,-1043.5653,0.027343366,0.013454109,-0.024421692,0.0,0.0,0.0
1011.15393,425.31042,8788568,0.8125,0.12765957,452.7441,-1037.1947,0.027343366,0.013454109,-0.024421692,0.0,0.0,0.0
1018.27795,407.90515,8788585,0.8125,0.12765957,285.9902,-1075.2102,0.027343366,0.013454109,-0.024421692,0.0,0.0,0.0
1019.8252,398.10913,8788602,0.825,0.09574468,138.3027,-900.0489,0.027343366,0.013454109,-0.024421692,0.0,0.0,0.0
1017.7029,385.80457,8788618,0.825,0.08510638,-78.84219,-732.70953,0.027343366,0.013454109,-0.024421692,0.0,0.0,0.0
1012.3087,376.3357,8788635,0.83750004,0.08510638,-381.2946,-574.06445,0.027343366,0.013454109,-0.024421692,0.0,0.0,0.0
1000.9678,366.24756,8788652,0.8625,0.10638297,-733.7672,-481.2506,0.027343366,0.013454109,-0.024421692,0.0,0.0,0.0
990.0465,358.95117,8788668,0.83750004,0.12765957,-916.7405,-494.90903,0.027343366,0.013454109,-0.024421692,0.0,0.0,0.0
979.6676,354.9253,8788685,0.83750004,0.12765957,-914.0505,-288.34933,0.027343366,0.013454109,-0.024421692,0.0,0.0,0.0
968.90955,353.5006,8788702,0.8625,0.12765957,-784.09235,-69.945786,0.027343366,0.013454109,-0.024421692,0.0,0.0,0.0
960.756,354.25793,8788719,0.85,0.12765957,-599.2244,126.31693,0.027343366,0.013454109,-0.024421692,0.0,0.0,0.0
955.3368,356.1057,8788735,0.85,0.09574468,-395.952,270.6805,0.027343366,0.013454109,-0.024421692,0.0,0.0,0.0
951.14716,357.95557,8788752,0.85,0.09574468,-228.41528,260.2696,0.027343366,0.013454109,-0.024421692,0.0,0.0,0.0
949.0724,360.78015,8788769,0.85,0.08510638,-59.915,240.2752,0.027343366,0.013454109,-0.024421692,0.0,0.0,0.0
948.07874,364.48425,8788785,0.83750004,0.08510638,41.85681,241.57721,0.027343366,0.013454109,-0.024421692,0.0,0.0,0.0
948.91376,368.15173,8788802,0.83750004,0.08510638,101.59415,259.014,0.027343366,0.013454109,-0.024421692,0.0,0.0,0.0
950.33405,370.6764,8788819,0.83750004,0.08510638,164.8353,243.71725,0.027343366,0.013454109,-0.024421692,0.0,0.0,0.0
953.96747,374.64722,8788836,0.7875,0.08510638,235.58527,224.41481,0.027343366,0.013454109,-0.024421692,0.0,0.0,0.0
958.87024,379.66296,8788852,0.7875,0.08510638,330.67325,235.34894,0.027343366,0.013454109,-0.024421692,0.0,0.0,0.0
965.4166,385.21106,8788869,0.7875,0.11702127,425.41077,326.43265,0.027343366,0.013454109,-0.024421692,0.0,0.0,0.0
972.70996,388.71838,8788886,0.7875,0.11702127,511.8738,344.75754,0.027343366,0.013454109,-0.024421692,0.0,0.0,0.0
980.97217,390.55432,8788902,0.8,0.10638297,565.01086,213.98038,0.027343366,0.013454109,-0.024421692,0.0,0.0,0.0
988.3833,392.39868,8788919,0.8125,0.09574468,548.13727,67.50993,0.027343366,0.013454109,-0.024421692,0.0,0.0,0.0
995.1699,392.59485,8788936,0.83750004,0.09574468,479.1853,-32.590195,0.027343366,0.013454109,-0.024421692,0.0,0.0,0.0
1001.01526,391.75488,8788952,0.83750004,0.09574468,388.8179,-78.277115,0.027343366,0.013454109,-0.024421692,0.0,0.0,0.0
1005.70215,389.90637,8788969,0.8125,0.10638297,290.32993,-133.03787,0.027343366,0.013454109,-0.024421692,0.0,0.0,0.0
1010.36975,386.17908,8788986,0.8,0.08510638,231.8224,-236.21307,0.027343366,0.013454109,-0.024421692,0.0,0.0,0.0
1014.0797,382.30945,8789003,0.8125,0.09574468,189.90166,-294.8768,0.027343366,0.013454109,-0.024421692,0.0,0.0,0.0
1018.21045,378.7661,8789019,0.7875,0.09574468,186.43678,-304.34134,0.027343366,0.013454109,-0.024421692,0.0,0.0,0.0
1021.5187,373.66077,8789036,0.77500004,0.09574468,181.09381,-307.95792,-0.0101253055,-0.013236731,-0.035536766,0.0,0.0,0.0
1024.5648,369.635,8789053,0.77500004,0.11702127,184.13826,-307.57233,-0.0101253055,-0.013236731,-0.035536766,0.0,0.0,0.0
1027.1411,365.05542,8789069,0.77500004,0.11702127,167.73816,-301.32764,-0.0101253055,-0.013236731,-0.035536766,0.0,0.0,0.0
1029.7194,361.36072,8789086,0.77500004,0.12765957,134.30934,-262.1578,-0.0101253055,-0.013236731,-0.035536766,0.0,0.0,0.0
1031.4369,359.1964,8789103,0.7875,0.12765957,108.68972,-176.09541,-0.0101253055,-0.013236731,-0.035536766,0.0,0.0,0.0
1032.5072,357.29382,8789120,0.8125,0.12765957,53.78328,-82.93767,-0.0101253055,-0.013236731,-0.035536766,0.0,0.0,0.0
1033.5444,357.0547,8789136,0.83750004,0.12765957,31.595526,-7.9742675,-0.0101253055,-0.013236731,-0.035536766,0.0,0.0,0.0
1034.5809,357.0547,8789153,0.8125,0.10638297,19.249044,56.02249,-0.0101253055,-0.013236731,-0.035536766,0.0,0.0,0.0
1035.6136,357.0547,8789170,0.77500004,0.10638297,33.239033,67.83566,-0.0101253055,-0.013236731,-0.035536766,0.0,0.0,0.0
1038.099,359.67175,8789186,0.77500004,0.08510638,87.430016,109.127045,-0.0101253055,-0.013236731,-0.035536766,0.0,0.0,0.0
1043.5197,366.3916,8789203,0.7375,0.08510638,232.22337,298.41623,-0.0101253055,-0.013236731,-0.035536766,0.0,0.0,0.0
1050.8588,376.81445,8789220,0.7375,0.09574468,424.42587,579.68976,-0.0101253055,-0.013236731,-0.035536766,0.0,0.0,0.0
1060.5585,388.06445,8789237,0.725,0.10638297,617.521,822.808,-0.0101253055,-0.013236731,-0.035536766,0.0,0.0,0.0
1070.0216,399.2788,8789253,0.725,0.12765957,714.2893,899.50684,-0.0101253055,-0.013236731,-0.035536766,0.0,0.0,0.0
1080.8467,410.4989,8789270,0.75,0.09574468,752.9088,846.09283,-0.0101253055,-0.013236731,-0.035536766,0.0,0.0,0.0
1088.6447,419.7256,8789287,0.7375,0.08510638,643.9011,669.6854,-0.0101253055,-0.013236731,-0.035536766,0.0,0.0,0.0
1093.6716,428.2234,8789303,0.7625,0.08510638,429.3854,538.0464,-0.0101253055,-0.013236731,-0.035536766,0.0,0.0,0.0
1099.5542,438.36462,8789320,0.75,0.09574468,247.58871,479.035,-0.0101253055,-0.013236731,-0.035536766,0.0,0.0,0.0
1103.3132,446.59644,8789337,0.7375,0.10638297,149.09436,482.72897,-0.0101253055,-0.013236731,-0.035536766,0.0,0.0,0.0
1104.9984,453.2638,8789354,0.75,0.10638297,89.324165,446.4543,-0.0101253055,-0.013236731,-0.035536766,0.0,0.0,0.0
1105.6179,457.1748,8789370,0.7875,0.10638297,10.738849,305.11923,-0.0101253055,-0.013236731,-0.035536766,0.0,0.0,0.0
1105.129,460.10168,8789387,0.8,0.10638297,-94.53841,131.24927,-0.0101253055,-0.013236731,-0.035536766,0.0,0.0,0.0
1103.558,461.00952,8789404,0.8125,0.10638297,-163.82814,-10.390614,-0.0101253055,-0.013236731,-0.035536766,0.0,0.0,0.0
1098.6989,462.91125,8789420,0.7875,0.11702127,-253.72818,-24.014235,-0.0101253055,-0.013236731,-0.035536766,0.0,0.0,0.0
1086.058,465.8496,8789437,0.8125,0.11702127,-568.1229,35.432102,-0.0101253055,-0.013236731,-0.035536766,1.3130245E-5,-6.5651225E-6,0.0
1071.4955,470.7069,8789454,0.8125,0.08510638,-948.5168,184.23572,-0.0101253055,-0.013236731,-0.035536766,1.3130245E-5,-6.5651225E-6,0.0
1056.167,475.4668,8789470,0.825,0.08510638,-1190.4535,315.28558,-0.0101253055,-0.013236731,-0.035536766,1.3130245E-5,-6.5651225E-6,0.0
1042.6853,480.85693,8789487,0.8125,0.09574468,-1137.8473,397.79404,-0.0101253055,-0.013236731,-0.035536766,1.3130245E-5,-6.5651225E-6,0.0
1030.488,486.4005,8789504,0.8,0.09574468,-880.833,396.69266,-0.0101253055,-0.013236731,-0.035536766,0.0,2.9360124E-6,0.0
1018.5862,491.91174,8789521,0.825,0.08510638,-691.1918,365.53128,-0.0101253055,-0.013236731,-0.035536766,0.0,2.9360124E-6,0.0
1007.5687,496.80786,8789537,0.83750004,0.09574468,-618.6372,332.3908,-0.0101253055,-0.013236731,-0.035536766,0.0,2.9360124E-6,0.0
997.75684,500.55627,8789554,0.85,0.12765957,-561.783,256.82602,-0.0101253055,-0.013236731,-0.035536766,0.0,2.9360124E-6,0.0
988.45776,504.2296,8789571,0.85,0.12765957,-512.1469,192.90367,-0.008100245,-0.0025893748,0.01957035,0.0,0.0,0.0
979.1039,507.0536,8789587,0.85,0.12765957,-480.27228,143.0076,-0.008100245,-0.0025893748,0.01957035,0.0,0.0,0.0
967.1892,510.7572,8789604,0.8625,0.12765957,-564.61365,147.28528,-0.008100245,-0.0025893748,0.01957035,0.0,0.0,0.0
950.98517,513.5072,8789621,0.8625,0.10638297,-824.6454,173.04193,-0.008100245,-0.0025893748,0.01957035,0.0,0.0,0.0
934.48627,516.2374,8789638,0.8625,0.12765957,-1061.7031,169.45029,-0.008100245,-0.0025893748,0.01957035,0.0,0.0,0.0
913.2911,518.2578,8789654,0.875,0.12765957,-1237.7056,126.599495,-0.008100245,-0.0025893748,0.01957035,0.0,0.0,0.0
893.59503,519.1449,8789671,0.90000004,0.10638297,-1342.9626,58.992825,-0.008100245,-0.0025893748,0.01957035,0.0,0.0,0.0
878.192,518.7622,8789688,0.8875,0.12765957,-1255.966,-12.862623,-0.008100245,-0.0025893748,0.01957035,0.0,0.0,0.0
867.14246,518.7622,8789704,0.9125,0.12765957,-925.61176,-50.419426,-0.008100245,-0.0025893748,0.01957035,0.0,0.0,0.0
858.58856,518.7622,8789721,0.9125,0.12765957,-543.9346,-45.55046,-0.008100245,-0.0025893748,0.01957035,0.0,0.0,0.0
853.48303,518.7622,8789738,0.925,0.12765957,-151.64282,-25.2818,-0.008100245,-0.0025893748,0.01957035,0.0,0.0,0.0
850.5094,518.7622,8789755,0.9375,0.12765957,18.103844,-7.5548067,-0.008100245,-0.0025893748,0.01957035,0.0,0.0,0.0
849.3157,518.7622,8789771,0.975,0.12765957,101.884476,0.04396143,-0.008100245,-0.0025893748,0.01957035,0.0,0.0,0.0
848.7016,518.7622,8789788,0.95,0.12765957,125.45542,-0.021891106,-0.008100245,-0.0025893748,0.01957035,0.0,0.0,0.0
849.2014,518.7622,8789805,0.85,0.12765957,131.11241,0.006945442,-0.008100245,-0.0025893748,0.01957035,0.0,0.0,0.0
849.2014,518.7622,8789805,0.625,0.11702127,123.530304,0.044849418,-0.008100245,-0.0025893748,0.01957035,0.0,0.0,0.0
849.2014,518.7622,8789813,0.625,0.11702127,123.530304,0.044849418,-0.008100245,-0.0025893748,0.01957035,0.0,0.0,0.0
