x,y,timestamp,pressure,fingerarea,velocityx,velocityy,accelx,accely,accelz,gyrox,gyroy,gyroz
326.3716,170.469,71817194,0.625,0.08510638,0.0,0.0,0.004529074,0.0055065155,0.029257774,0.0,0.0,0.0
326.3716,170.469,71817215,0.6625,0.08510638,-0.018866442,-0.009963723,0.004529074,0.0055065155,0.029257774,0.0,0.0,0.0
326.3716,170.469,71817222,0.675,0.08510638,-0.029312713,-0.015219651,0.004529074,0.0055065155,0.029257774,0.0,0.0,0.0
326.3716,170.469,71817243,0.6875,0.08510638,-0.015433091,-0.008100791,0.004529074,0.0055065155,0.029257774,0.0,0.0,0.0
326.3716,170.469,71817265,0.675,0.08510638,0.002057891,4.19556E-4,0.004529074,0.0055065155,0.029257774,0.0,0.0,0.0
326.3716,170.469,71817282,0.675,0.08510638,0.01501585,0.008049014,0.004529074,0.0055065155,0.029257774,0.0,0.0,0.0
326.3716,170.469,71817298,0.7,0.10638297,0.011078856,0.0049712453,0.004529074,0.0055065155,0.029257774,0.0,0.0,0.0
326.3716,170.469,71817311,0.71250004,0.10638297,0.009026087,0.0041419603,0.004529074,0.0055065155,0.029257774,0.0,0.0,0.0
326.3716,170.469,71817330,0.7,0.12765957,0.026964003,0.013342496,0.004529074,0.0055065155,0.029257774,0.0,0.0,0.0
326.3716,170.469,71817343,0.71250004,0.12765957,0.0041106655,0.002451744,0.004529074,0.0055065155,0.029257774,0.0,0.0,0.0
315.8354,194.37952,71817382,0.725,0.09574468,-318.49268,720.6647,0.004529074,0.0055065155,0.029257774,0.0,0.0,0.0
310.8896,208.62866,71817399,0.71250004,0.07446808,-427.19873,1053.7043,0.004529074,0.0055065155,0.029257774,0.0,0.0,0.0
306.74054,221.98547,71817415,0.71250004,0.08510638,-325.9962,1019.4358,0.003623262,0.036405206,0.023406029,0.0,0.0,0.0
302.07074,236.42725,71817432,0.71250004,0.10638297,-285.854,973.49274,0.003623262,0.036405206,0.023406029,0.0,0.0,0.0
297.01727,251.72754,71817449,0.7,0.08510638,-270.40414,889.3844,0.003623262,0.036405206,0.023406029,0.0,0.0,0.0
291.36545,268.60962,71817465,0.6875,0.06382979,-307.78113,984.24304,0.003623262,0.036405206,0.023406029,0.0,0.0,0.0
285.70917,283.42896,71817482,0.71250004,0.09574468,-355.66605,1007.3909,0.003623262,0.036405206,0.023406029,0.0,0.0,0.0
278.96896,299.1079,71817499,0.725,0.09574468,-397.57327,984.55206,0.003623262,0.036405206,0.023406029,0.0,0.0,0.0
273.71402,315.76086,71817516,0.71250004,0.07446808,-380.3499,959.1794,0.003623262,0.036405206,0.023406029,0.0,0.0,0.0
269.03674,330.39075,71817532,0.71250004,0.11702127,-323.55508,930.2345,0.003623262,0.036405206,0.023406029,0.0,0.0,0.0
263.70883,346.63892,71817549,0.71250004,0.11702127,-285.88602,928.6786,0.003623262,0.036405206,0.023406029,0.0,0.0,0.0
255.5784,372.6985,71817566,0.71250004,0.08510638,-354.68832,1207.8335,0.003623262,0.036405206,0.023406029,0.0,0.0,0.0
250.96573,388.1322,71817582,0.71250004,0.10638297,-387.47314,1303.9119,0.003623262,0.036405206,0.023406029,0.0,0.0,0.0
243.788,405.15942,71817599,0.725,0.09574468,-419.30084,1219.3065,0.003623262,0.036405206,0.023406029,0.0,0.0,0.0
238.15146,420.13513,71817616,0.7375,0.06382979,-389.48145,955.6595,0.003623262,0.036405206,0.023406029,0.0,0.0,0.0
232.23773,434.74426,71817632,0.7375,0.08510638,-338.0187,712.6761,0.003623262,0.036405206,0.023406029,0.0,0.0,0.0
225.51892,450.18384,71817649,0.725,0.10638297,-364.95032,772.28217,0.003623262,0.036405206,0.023406029,0.0,0.0,0.0
217.7088,470.11755,71817666,0.7,0.08510638,-414.3747,975.5972,0.003623262,0.036405206,0.023406029,0.0,0.0,0.0
210.91278,489.1371,71817683,0.7,0.08510638,-452.85477,1184.784,0.003623262,0.036405206,0.023406029,0.0,0.0,0.0
205.56497,503.21973,71817699,0.7,0.12765957,-430.22296,1171.0472,0.003623262,0.036405206,0.023406029,0.0,0.0,0.0
198.85458,519.7894,71817716,0.6875,0.08510638,-363.52805,1002.1801,0.003623262,0.036405206,0.023406029,0.0,0.0,0.0
194.26486,528.71313,71817733,0.71250004,0.06382979,-302.6775,703.0236,0.003623262,0.036405206,0.023406029,0.0,0.0,0.0
187.77669,538.5581,71817749,0.725,0.06382979,-301.30734,436.15146,0.003623262,0.036405206,0.023406029,0.0,0.0,0.0
184.16656,542.9752,71817766,0.7375,0.08510638,-275.41348,251.21428,0.003623262,0.036405206,0.023406029,0.0,0.0,0.0
180.91327,546.905,71817783,0.71250004,0.08510638,-206.86913,85.34785,0.003623262,0.036405206,0.023406029,0.0,0.0,0.0
178.50047,549.3439,71817800,0.725,0.09574468,-134.77364,15.134043,0.003623262,0.036405206,0.023406029,0.0,0.0,0.0
175.92053,551.1926,71817816,0.71250004,0.09574468,-92.89818,27.963945,0.003623262,0.036405206,0.023406029,0.0,0.0,0.0
173.04568,553.0442,71817833,0.725,0.09574468,-107.10033,1.0656806,0.003623262,0.036405206,0.023406029,0.0,0.0,0.0
170.26352,554.30237,71817850,0.75,0.09574468,-148.9865,30.731924,0.003623262,0.036405206,0.023406029,0.0,0.0,0.0
167.68987,554.30237,71817866,0.7625,0.10638297,-163.88159,3.9591713,0.003623262,0.036405206,0.023406029,0.0,0.0,0.0
165.61905,554.30237,71817883,0.7875,0.10638297,-148.0051,-23.64529,0.003623262,0.036405206,0.023406029,0.0,0.0,0.0
163.97786,554.30237,71817900,0.8125,0.10638297,-105.85924,-52.08989,0.003623262,0.036405206,0.023406029,0.0,0.0,0.0
162.9339,554.30237,71817917,0.8,0.08510638,-59.224377,-41.019978,0.003623262,0.036405206,0.023406029,0.0,0.0,0.0
161.89546,552.47253,71817933,0.8,0.08510638,-35.948196,-60.641705,0.003623262,0.036405206,0.023406029,0.0,0.0,0.0
160.85318,550.6199,71817950,0.7875,0.07446808,-30.708761,-115.868744,0.018898606,-0.050875843,0.0027256012,0.0,0.0,0.0
158.59862,544.7534,71817967,0.77500004,0.08510638,-73.638885,-248.41995,0.018898606,-0.050875843,0.0027256012,0.0,0.0,0.0
157.07727,527.0166,71817983,0.77500004,0.11702127,-120.68559,-716.3038,0.018898606,-0.050875843,0.0027256012,0.0,0.0,0.0
158.3144,512.79456,71818000,0.8,0.10638297,-50.327156,-1125.0594,0.018898606,-0.050875843,0.0027256012,0.0,0.0,0.0
161.07477,501.68677,71818017,0.8,0.08510638,122.36231,-1170.2666,0.018898606,-0.050875843,0.0027256012,0.0,0.0,0.0
165.29813,492.33093,71818033,0.77500004,0.06382979,304.00424,-824.64014,0.018898606,-0.050875843,0.0027256012,0.0,0.0,0.0
172.21193,483.13318,71818050,0.7875,0.08510638,442.44177,-434.14178,0.018898606,-0.050875843,0.0027256012,0.0,0.0,0.0
181.23073,474.50427,71818067,0.8,0.10638297,580.2341,-367.4143,0.018898606,-0.050875843,0.0027256012,0.0,0.0,0.0
189.98611,467.84875,71818084,0.8,0.10638297,667.1384,-395.2591,0.018898606,-0.050875843,0.0027256012,0.0,0.0,0.0
198.72638,463.9463,71818100,0.77500004,0.12765957,653.5708,-285.9605,0.018898606,-0.050875843,0.0027256012,0.0,0.0,0.0
210.52234,461.06238,71818117,0.7625,0.12765957,660.73755,-140.92596,0.018898606,-0.050875843,0.0027256012,0.0,0.0,0.0
224.0917,460.1211,71818134,0.77500004,0.10638297,781.037,6.4731016,0.018898606,-0.050875843,0.0027256012,0.0,0.0,0.0
235.48727,460.1211,71818150,0.77500004,0.12765957,844.1508,88.14432,0.018898606,-0.050875843,0.0027256012,0.0,0.0,0.0
245.19894,461.18738,71818167,0.7625,0.10638297,764.68756,131.6993,0.018898606,-0.050875843,0.0027256012,0.0,0.0,0.0
251.68298,463.2527,71818184,0.77500004,0.11702127,519.2029,176.82831,0.018898606,-0.050875843,0.0027256012,0.0,0.0,0.0
258.10294,467.26135,71818201,0.77500004,0.09574468,291.58005,247.53357,0.018898606,-0.050875843,0.0027256012,0.0,0.0,0.0
264.464,474.08435,71818217,0.7625,0.08510638,233.38889,376.20642,0.018898606,-0.050875843,0.0027256012,0.0,0.0,0.0
271.15994,486.38257,71818234,0.77500004,0.08510638,301.97894,656.19977,0.018898606,-0.050875843,0.0027256012,0.0,0.0,0.0
275.75665,497.85962,71818251,0.7625,0.09574468,332.69113,880.16113,0.018898606,-0.050875843,0.0027256012,0.0,0.0,0.0
278.05692,509.00415,71818267,0.75,0.10638297,212.26633,916.7363,0.018898606,-0.050875843,0.0027256012,0.0,0.0,0.0
280.4874,518.2322,71818284,0.7625,0.08510638,72.79515,748.2753,0.018898606,-0.050875843,0.0027256012,0.0,0.0,0.0
283.0937,526.7825,71818301,0.75,0.06382979,33.211178,529.55365,0.018898606,-0.050875843,0.0027256012,0.0,0.0,0.0
286.2482,534.4319,71818318,0.7375,0.06382979,89.517166,407.32434,0.018898606,-0.050875843,0.0027256012,0.0,0.0,0.0
289.36676,539.1753,71818334,0.75,0.08510638,175.8137,317.76028,0.018898606,-0.050875843,0.0027256012,0.0,0.0,0.0
292.53625,542.8883,71818351,0.77500004,0.08510638,206.92026,191.27382,0.018898606,-0.050875843,0.0027256012,0.0,0.0,0.0
295.60815,546.57434,71818368,0.77500004,0.10638297,204.54007,120.692444,0.018898606,-0.050875843,0.0027256012,0.0,0.0,0.0
299.92288,550.34204,71818385,0.7625,0.10638297,228.91875,117.1844,0.018898606,-0.050875843,0.0027256012,0.0,0.0,0.0
301.7562,551.97144,71818401,0.75,0.10638297,196.53542,111.02179,0.018898606,-0.050875843,0.0027256012,0.0,0.0,0.0
304.6272,552.8579,71818418,0.7625,0.11702127,159.59581,64.81009,0.018898606,-0.050875843,0.0027256012,0.0,0.0,0.0
307.61896,553.41394,71818435,0.77500004,0.11702127,142.48146,-10.3397875,0.018898606,-0.050875843,0.0027256012,0.0,0.0,0.0
311.50336,553.41394,71818451,0.75,0.11702127,181.25916,-52.940403,0.018898606,-0.050875843,0.0027256012,0.0,0.0,0.0
316.2922,551.9575,71818468,0.75,0.08510638,265.5811,-84.61518,0.018898606,-0.050875843,0.0027256012,0.0,0.0,0.0
323.2809,548.02576,71818485,0.7625,0.07446808,375.38132,-185.35501,-0.016881112,0.007299334,-0.0138196945,0.0,0.0,0.0
332.42453,539.2423,71818502,0.7625,0.08510638,529.544,-424.09232,-0.016881112,0.007299334,-0.0138196945,0.0,0.0,0.0
344.02164,529.22815,71818518,0.77500004,0.09574468,695.995,-669.53174,-0.016881112,0.007299334,-0.0138196945,0.0,0.0,0.0
353.26352,518.0061,71818535,0.75,0.12765957,760.15594,-833.417,-0.016881112,0.007299334,-0.0138196945,0.0,0.0,0.0
360.70343,507.57776,71818552,0.7625,0.09574468,621.908,-811.012,-0.016881112,0.007299334,-0.0138196945,0.0,0.0,0.0
370.1797,494.5984,71818568,0.7625,0.07446808,522.60114,-800.7696,-0.016881112,0.007299334,-0.0138196945,0.0,0.0,0.0
381.15283,480.6548,71818585,0.77500004,0.09574468,547.52985,-849.2477,-0.016881112,0.007299334,-0.0138196945,0.0,0.0,0.0
393.2072,466.90576,71818602,0.77500004,0.10638297,678.38654,-910.9132,-0.016881112,0.007299334,-0.0138196945,0.0,0.0,0.0
404.4814,455.48083,71818619,0.75,0.08510638,785.2899,-859.843,-0.016881112,0.007299334,-0.0138196945,0.0,0.0,0.0
414.36996,443.9668,71818635,0.7375,0.08510638,711.32367,-693.19855,-0.016881112,0.007299334,-0.0138196945,0.0,0.0,0.0
423.68216,433.8192,71818652,0.7625,0.08510638,573.31506,-586.1161,-0.016881112,0.007299334,-0.0138196945,0.0,0.0,0.0
433.1013,425.0631,71818669,0.75,0.08510638,501.59546,-504.43304,-0.016881112,0.007299334,-0.0138196945,0.0,0.0,0.0
444.74017,418.32202,71818685,0.7375,0.09574468,559.62366,-408.73907,-0.016881112,0.007299334,-0.0138196945,0.0,0.0,0.0
456.00208,412.78516,71818702,0.7375,0.10638297,660.2671,-278.44427,-0.016881112,0.007299334,-0.0138196945,0.0,0.0,0.0
464.65582,408.88586,71818719,0.7375,0.12765957,666.5929,-175.12155,-0.016881112,0.007299334,-0.0138196945,0.0,0.0,0.0
472.091,405.98157,71818736,0.7375,0.12765957,517.4583,-104.0714,-0.016881112,0.007299334,-0.0138196945,0.0,0.0,0.0
480.98462,405.0338,71818752,0.75,0.12765957,427.31775,-33.99498,-0.016881112,0.007299334,-0.0138196945,0.0,0.0,0.0
487.66858,405.0338,71818769,0.75,0.12765957,383.78763,50.799423,-0.016881112,0.007299334,-0.0138196945,0.0,0.0,0.0
492.80634,405.0338,71818786,0.77500004,0.10638297,338.53256,95.926506,-0.016881112,0.007299334,-0.0138196945,0.0,0.0,0.0
496.9438,405.0338,71818802,0.77500004,0.10638297,254.2125,85.0336,-0.016881112,0.007299334,-0.0138196945,0.0,0.0,0.0
498.0188,405.0338,71818819,0.7875,0.10638297,88.89559,45.985462,-0.016881112,0.007299334,-0.0138196945,0.0,0.0,0.0
499.03058,405.0338,71818836,0.77500004,0.10638297,-33.46182,9.345915,-0.016881112,0.007299334,-0.0138196945,0.0,0.0,0.0
499.3153,405.0338,71818853,0.77500004,0.10638297,-66.53022,0.02299763,-0.016881112,0.007299334,-0.0138196945,0.0,0.0,0.0
499.3153,405.0338,71818869,0.7875,0.12765957,-79.551315,0.037011456,-0.016881112,0.007299334,-0.0138196945,0.0,0.0,0.0
499.3153,405.0338,71818886,0.7875,0.12765957,-47.830276,0.04453654,-0.016881112,0.007299334,-0.0138196945,0.0,0.0,0.0
498.45392,405.0338,71818903,0.77500004,0.12765957,-51.019413,0.02728142,-0.016881112,0.007299334,-0.0138196945,0.0,0.0,0.0
497.41425,405.0338,71818919,0.7625,0.12765957,-74.781235,0.01101899,-0.016881112,0.007299334,-0.0138196945,0.0,0.0,0.0
495.909,405.0338,71818936,0.77500004,0.12765957,-94.64589,0.028461207,-0.016881112,0.007299334,-0.0138196945,0.0,0.0,0.0
493.3183,405.0338,71818953,0.77500004,0.12765957,-143.12135,0.017243648,-0.016881112,0.007299334,-0.0138196945,0.0,0.0,0.0
489.6396,405.0338,71818970,0.7625,0.11702127,-214.72427,0.0015232363,-0.016881112,0.007299334,-0.0138196945,0.0,0.0,0.0
485.482,405.92236,71818986,0.7625,0.11702127,-280.1465,28.723886,-0.016881112,0.007299334,-0.0138196945,0.0,0.0,0.0
480.1662,407.93225,71819003,0.75,0.10638297,-344.4612,84.979515,-0.016881112,0.007299334,-0.0138196945,0.0,0.0,0.0
474.97406,409.77808,71819020,0.77500004,0.10638297,-366.15094,134.64732,-0.013504889,0.005839467,-0.011055946,0.0,0.0,0.0
469.26868,411.87915,71819036,0.77500004,0.08510638,-371.80716,157.7965,-0.013504889,0.005839467,-0.011055946,0.0,0.0,0.0
462.86133,415.55164,71819053,0.7625,0.08510638,-390.742,199.13443,-0.013504889,0.005839467,-0.011055946,0.0,0.0,0.0
454.26617,421.32068,71819070,0.75,0.07446808,-461.59033,291.6619,-0.013504889,0.005839467,-0.011055946,0.0,0.0,0.0
444.02118,429.52905,71819087,0.75,0.08510638,-603.8123,467.4136,-0.013504889,0.005839467,-0.011055946,0.0,0.0,0.0
435.09662,437.2329,71819103,0.7625,0.09574468,-654.129,581.7061,-0.013504889,0.005839467,-0.011055946,0.0,0.0,0.0
425.70615,445.22046,71819120,0.75,0.12765957,-641.9933,603.32526,-0.013504889,0.005839467,-0.011055946,0.0,0.0,0.0
415.86472,453.489,71819137,0.77500004,0.12765957,-601.12994,558.46277,-0.013504889,0.005839467,-0.011055946,0.0,0.0,0.0
406.03485,461.74866,71819153,0.77500004,0.09574468,-548.45245,479.51974,-0.013504889,0.005839467,-0.011055946,0.0,0.0,0.0
398.64893,469.20837,71819170,0.75,0.06382979,-537.18274,482.87787,-0.013504889,0.005839467,-0.011055946,0.0,0.0,0.0
391.80225,479.75354,71819187,0.75,0.08510638,-443.67725,535.70056,-0.013504889,0.005839467,-0.011055946,0.0,0.0,0.0
386.81488,489.69836,71819204,0.75,0.08510638,-322.50882,621.8247,-0.013504889,0.005839467,-0.011055946,0.0,0.0,0.0
382.0607,497.9585,71819220,0.7375,0.12765957,-224.10104,621.0542,-0.013504889,0.005839467,-0.011055946,0.0,0.0,0.0
380.1625,505.90796,71819237,0.7375,0.12765957,-126.78719,554.41565,-0.013504889,0.005839467,-0.011055946,0.0,0.0,0.0
379.12567,513.2803,71819254,0.75,0.10638297,-24.234735,432.92505,-0.013504889,0.005839467,-0.011055946,0.0,0.0,0.0
379.89276,521.5648,71819270,0.75,0.08510638,85.397896,401.6106,-0.013504889,0.005839467,-0.011055946,0.0,0.0,0.0
382.27835,528.06177,71819287,0.75,0.07446808,192.44429,414.73532,-0.013504889,0.005839467,-0.011055946,0.0,0.0,0.0
385.02203,533.27954,71819304,0.75,0.06382979,260.49954,350.15213,-0.013504889,0.005839467,-0.011055946,0.0,0.0,0.0
388.84845,536.974,71819321,0.75,0.08510638,290.35162,222.30304,-0.013504889,0.005839467,-0.011055946,0.0,0.0,0.0
394.95456,540.8346,71819337,0.7625,0.08510638,360.12018,150.58205,-0.013504889,0.005839467,-0.011055946,0.0,0.0,0.0
400.68747,541.8633,71819354,0.75,0.08510638,409.74695,71.51966,-0.013504889,0.005839467,-0.011055946,0.0,0.0,0.0
406.91992,540.94836,71819371,0.7625,0.08510638,445.67914,-48.899178,-0.013504889,0.005839467,-0.011055946,0.0,0.0,0.0
414.22424,534.3683,71819387,0.7625,0.09574468,459.20697,-276.45938,-0.013504889,0.005839467,-0.011055946,0.0,0.0,0.0
421.91144,526.12463,71819404,0.7625,0.12765957,479.6652,-560.3449,-0.013504889,0.005839467,-0.011055946,0.0,0.0,0.0
431.5422,514.66956,71819421,0.7625,0.10638297,545.3537,-805.83325,-0.013504889,0.005839467,-0.011055946,0.0,0.0,0.0
443.70322,499.46423,71819437,0.75,0.06382979,694.13165,-1010.545,-0.013504889,0.005839467,-0.011055946,0.0,0.0,0.0
454.9439,484.04395,71819454,0.7375,0.08510638,782.7477,-1131.4995,-0.013504889,0.005839467,-0.011055946,0.0,0.0,0.0
464.42828,471.00916,71819471,0.7375,0.12765957,756.3998,-1071.9574,-0.013504889,0.005839467,-0.011055946,0.0,0.0,0.0
471.84393,460.09473,71819487,0.75,0.11702127,549.36536,-824.1748,-0.013504889,0.005839467,-0.011055946,0.0,0.0,0.0
477.85248,451.7262,71819504,0.7375,0.09574468,336.0772,-529.10974,-0.013504889,0.005839467,-0.011055946,0.0,0.0,0.0
482.17242,443.79138,71819521,0.7375,0.07446808,192.77475,-338.67987,-0.013504889,0.005839467,-0.011055946,0.0,0.0,0.0
485.9312,436.82178,71819538,0.7375,0.07446808,119.26104,-298.69318,-0.013504889,0.005839467,-0.011055946,0.0,0.0,0.0
489.14648,431.25916,71819554,0.75,0.08510638,115.77918,-280.8123,0.021196082,-0.011328429,-0.008844376,0.0,0.0,0.0
491.24927,426.47998,71819571,0.75,0.08510638,84.61049,-248.9599,0.021196082,-0.011328429,-0.008844376,0.0,0.0,0.0
492.33105,423.66846,71819588,0.7625,0.08510638,56.602955,-178.53311,0.021196082,-0.011328429,-0.008844376,0.0,0.0,0.0
492.81744,421.81824,71819604,0.7625,0.08510638,1.9939721,-69.34405,0.021196082,-0.011328429,-0.008844376,0.0,0.0,0.0
492.81744,419.96252,71819621,0.77500004,0.08510638,-43.00135,-28.346218,0.021196082,-0.011328429,-0.008844376,0.0,0.0,0.0
492.81744,420.13843,71819654,0.7625,0.08510638,-40.451996,54.15054,0.021196082,-0.011328429,-0.008844376,0.0,0.0,0.0
492.11682,420.85205,71819671,0.7625,0.08510638,-40.89761,69.37287,0.021196082,-0.011328429,-0.008844376,0.0,0.0,0.0
490.07617,425.0111,71819688,0.7625,0.07446808,-85.176735,195.35776,0.021196082,-0.011328429,-0.008844376,0.0,0.0,0.0
487.05975,432.59998,71819705,0.75,0.09574468,-181.52647,407.56802,0.021196082,-0.011328429,-0.008844376,0.0,0.0,0.0
483.05774,440.71362,71819721,0.75,0.11702127,-280.81708,641.39966,0.021196082,-0.011328429,-0.008844376,0.0,0.0,0.0
479.7696,448.39783,71819738,0.75,0.12765957,-293.653,667.1153,0.021196082,-0.011328429,-0.008844376,0.0,0.0,0.0
475.38605,457.14355,71819755,0.7375,0.10638297,-265.82144,561.5007,0.021196082,-0.011328429,-0.008844376,0.0,0.0,0.0
469.1812,470.0448,71819771,0.725,0.08510638,-318.31628,652.56256,0.021196082,-0.011328429,-0.008844376,0.0,0.0,0.0
463.87756,482.22546,71819788,0.725,0.06382979,-365.5959,770.7404,0.021196082,-0.011328429,-0.008844376,0.0,0.0,0.0
460.23285,491.4441,71819805,0.7375,0.09574468,-340.59833,789.4943,0.021196082,-0.011328429,-0.008844376,0.0,0.0,0.0
457.10773,498.85107,71819822,0.725,0.10638297,-241.65854,605.54376,0.021196082,-0.011328429,-0.008844376,0.0,0.0,0.0
455.10858,507.3058,71819838,0.71250004,0.10638297,-111.44209,414.989,0.021196082,-0.011328429,-0.008844376,0.0,0.0,0.0
453.83014,514.50183,71819855,0.725,0.09574468,-36.8935,342.33777,0.021196082,-0.011328429,-0.008844376,0.0,0.0,0.0
453.83014,520.6305,71819872,0.725,0.08510638,19.910538,348.28244,0.021196082,-0.011328429,-0.008844376,0.0,0.0,0.0
454.69562,525.06824,71819888,0.71250004,0.06382979,75.99073,305.55957,0.021196082,-0.011328429,-0.008844376,0.0,0.0,0.0
456.8014,528.0669,71819905,0.725,0.06382979,153.051,165.79424,0.021196082,-0.011328429,-0.008844376,0.0,0.0,0.0
459.90167,531.2666,71819922,0.7375,0.07446808,216.30049,81.5264,0.021196082,-0.011328429,-0.008844376,0.0,0.0,0.0
464.78754,533.5591,71819939,0.7375,0.08510638,293.65112,74.1881,0.021196082,-0.011328429,-0.008844376,0.0,0.0,0.0
469.62408,533.8668,71819955,0.75,0.09574468,361.50348,39.885826,0.021196082,-0.011328429,-0.008844376,0.0,0.0,0.0
475.4076,532.2129,71819972,0.7375,0.09574468,397.36115,-66.83363,0.021196082,-0.011328429,-0.008844376,0.0,0.0,0.0
482.6319,528.6317,71819989,0.7625,0.08510638,445.42157,-222.14693,0.021196082,-0.011328429,-0.008844376,0.0,0.0,0.0
491.24487,524.1366,71820005,0.75,0.10638297,510.61322,-358.46152,0.021196082,-0.011328429,-0.008844376,0.0,0.0,0.0
502.35797,515.6577,71820022,0.75,0.10638297,648.79626,-493.099,0.021196082,-0.011328429,-0.008844376,0.0,0.0,0.0
511.66577,508.31396,71820039,0.7375,0.10638297,706.63354,-579.1202,0.021196082,-0.011328429,-0.008844376,0.0,0.0,0.0
520.86816,498.9265,71820056,0.75,0.09574468,670.5724,-638.4321,0.021196082,-0.011328429,-0.008844376,0.0,0.0,0.0
528.90265,488.93787,71820072,0.7375,0.09574468,552.4511,-665.6782,-0.015043136,0.022937238,0.024924278,0.0,0.0,0.0
536.77936,479.5713,71820089,0.7375,0.08510638,452.6651,-650.02075,-0.015043136,0.022937238,0.024924278,0.0,0.0,0.0
545.5453,469.8994,71820106,0.7375,0.12765957,442.4407,-620.65845,-0.015043136,0.022937238,0.024924278,0.0,0.0,0.0
555.40594,460.72607,71820122,0.75,0.10638297,538.3936,-594.47974,-0.015043136,0.022937238,0.024924278,0.0,0.0,0.0
564.644,452.865,71820139,0.75,0.09574468,603.3231,-507.5334,-0.015043136,0.022937238,0.024924278,0.0,0.0,0.0
573.13904,444.40942,71820156,0.75,0.08510638,570.05035,-454.71054,-0.015043136,0.022937238,0.024924278,0.0,0.0,0.0
580.94904,434.58508,71820173,0.75,0.09574468,491.68774,-478.8886,-0.015043136,0.022937238,0.024924278,0.0,0.0,0.0
589.25006,424.22156,71820189,0.7375,0.08510638,429.69424,-578.1318,-0.015043136,0.022937238,0.024924278,0.0,0.0,0.0
600.48737,413.3164,71820206,0.7375,0.12765957,533.60803,-690.92883,-0.015043136,0.022937238,0.024924278,0.0,0.0,0.0
611.61115,402.96155,71820223,0.7375,0.09574468,681.43616,-700.9664,-0.015043136,0.022937238,0.024924278,0.0,0.0,0.0
621.9429,393.7129,71820239,0.7375,0.08510638,734.68677,-630.5156,-0.015043136,0.022937238,0.024924278,0.0,0.0,0.0
628.4644,385.5564,71820256,0.75,0.09574468,591.0767,-523.7977,-0.015043136,0.022937238,0.024924278,0.0,0.0,0.0
634.9997,377.34302,71820273,0.7375,0.09574468,390.72498,-456.3016,-0.015043136,0.022937238,0.024924278,0.0,0.0,0.0
640.1873,370.2921,71820289,0.725,0.09574468,237.56288,-399.71396,-0.015043136,0.022937238,0.024924278,0.0,0.0,0.0
645.4135,364.71814,71820306,0.7375,0.10638297,195.50902,-337.88214,-0.015043136,0.022937238,0.024924278,0.0,0.0,0.0
650.3485,359.16614,71820323,0.725,0.12765957,249.41032,-279.49384,-0.015043136,0.022937238,0.024924278,0.0,0.0,0.0
655.28876,353.6526,71820340,0.75,0.12765957,260.3364,-264.2198,-0.015043136,0.022937238,0.024924278,0.0,0.0,0.0
660.02216,348.82788,71820356,0.75,0.10638297,276.69473,-273.1187,-0.015043136,0.022937238,0.024924278,0.0,0.0,0.0
664.233,345.08533,71820373,0.7375,0.09574468,257.69977,-242.58963,-0.015043136,0.022937238,0.024924278,0.0,0.0,0.0
669.3506,340.4641,71820390,0.7625,0.08510638,259.67395,-220.89319,-0.015043136,0.022937238,0.024924278,0.0,0.0,0.0
673.1667,336.72815,71820406,0.75,0.08510638,259.54398,-205.52058,-0.015043136,0.022937238,0.024924278,0.0,0.0,0.0
676.79,332.13806,71820423,0.7375,0.08510638,229.02303,-238.50642,-0.015043136,0.022937238,0.024924278,0.0,0.0,0.0
680.4692,326.5619,71820440,0.7375,0.08510638,204.85419,-299.33344,-0.015043136,0.022937238,0.024924278,0.0,0.0,0.0
684.1391,321.0028,71820457,0.725,0.09574468,190.28899,-343.95126,-0.015043136,0.022937238,0.024924278,0.0,0.0,0.0
688.51715,314.59277,71820473,0.71250004,0.11702127,226.44171,-395.01532,-0.015043136,0.022937238,0.024924278,0.0,0.0,0.0
691.2802,309.02686,71820490,0.725,0.12765957,221.74948,-393.9282,-0.015043136,0.022937238,0.024924278,0.0,0.0,0.0
693.1757,304.39258,71820507,0.7375,0.12765957,158.68834,-338.01868,-0.015043136,0.022937238,0.024924278,0.0,0.0,0.0
695.25256,299.29834,71820523,0.725,0.12765957,82.69361,-270.9945,-0.015043136,0.022937238,0.024924278,0.0,0.0,0.0
696.5408,293.31506,71820540,0.725,0.11702127,47.031166,-293.56726,-0.015043136,0.022937238,0.024924278,0.0,0.0,0.0
697.9037,287.20752,71820557,0.725,0.09574468,50.88642,-349.81427,-0.015043136,0.022937238,0.024924278,0.0,0.0,0.0
699.10425,279.27563,71820574,0.725,0.09574468,50.637173,-431.96408,-0.015043136,0.022937238,0.024924278,0.0,0.0,0.0
699.75006,271.6405,71820590,0.71250004,0.08510638,40.91819,-502.0543,-0.015043136,0.022937238,0.024924278,0.0,0.0,0.0
699.25024,264.18933,71820607,0.71250004,0.09574468,-3.3976264,-507.20392,-0.028034508,0.002349794,-0.02805996,0.0,0.0,0.0
698.7561,259.33972,71820624,0.71250004,0.09574468,-47.193077,-443.47336,-0.028034508,0.002349794,-0.02805996,0.0,0.0,0.0
697.2179,253.81238,71820640,0.7375,0.12765957,-106.81427,-307.979,-0.028034508,0.002349794,-0.02805996,0.0,0.0,0.0
695.1091,249.1659,71820657,0.725,0.12765957,-144.20445,-231.23552,-0.028034508,0.002349794,-0.02805996,0.0,0.0,0.0
692.3974,245.57104,71820674,0.7375,0.12765957,-176.64671,-196.46219,-0.028034508,0.002349794,-0.02805996,0.0,0.0,0.0
686.9,241.83057,71820691,0.75,0.12765957,-276.25528,-183.38435,-0.028034508,0.002349794,-0.02805996,0.0,0.0,0.0
680.4901,239.4508,71820707,0.75,0.10638297,-393.58813,-160.54214,-0.028034508,0.002349794,-0.02805996,0.0,0.0,0.0
674.5581,237.99524,71820724,0.75,0.12765957,-474.12857,-89.84569,-0.028034508,0.002349794,-0.02805996,0.0,0.0,0.0
668.5179,237.99524,71820741,0.7625,0.12765957,-458.57373,2.885648,-0.028034508,0.002349794,-0.02805996,0.0,0.0,0.0
663.50323,239.77844,71820757,0.7625,0.12765957,-352.8792,108.99935,-0.028034508,0.002349794,-0.02805996,0.0,0.0,0.0
658.11694,244.19348,71820774,0.77500004,0.11702127,-295.05933,257.90823,-0.028034508,0.002349794,-0.02805996,0.0,0.0,0.0
648.9965,260.14124,71820791,0.75,0.09574468,-381.7713,648.7215,-0.028034508,0.002349794,-0.02805996,0.0,0.0,0.0
642.33374,277.5276,71820808,0.77500004,0.11702127,-480.3756,1161.7332,-0.028034508,0.002349794,-0.02805996,0.0,0.0,0.0
636.82184,293.25635,71820824,0.7375,0.12765957,-479.13458,1429.4359,-0.028034508,0.002349794,-0.02805996,0.0,0.0,0.0
630.6795,314.76477,71820841,0.75,0.07446808,-377.65515,1435.1682,-0.028034508,0.002349794,-0.02805996,0.0,0.0,0.0
626.614,332.04565,71820858,0.725,0.10638297,-266.6092,1315.3826,-0.028034508,0.002349794,-0.02805996,0.0,0.0,0.0
622.4895,352.69702,71820874,0.725,0.08510638,-199.07518,1216.6582,-0.028034508,0.002349794,-0.02805996,0.0,0.0,0.0
619.18365,374.43042,71820891,0.725,0.06382979,-170.61275,1294.514,-0.028034508,0.002349794,-0.02805996,0.0,0.0,0.0
615.4897,392.5404,71820908,0.71250004,0.10638297,-153.64256,1230.9431,-0.028034508,0.002349794,-0.02805996,0.0,0.0,0.0
612.16516,410.80774,71820924,0.71250004,0.08510638,-168.81001,1131.427,-0.028034508,0.002349794,-0.02805996,0.0,0.0,0.0
608.87103,428.37402,71820941,0.725,0.06382979,-205.77272,1071.9971,-0.028034508,0.002349794,-0.02805996,0.0,0.0,0.0
605.93445,442.30554,71820958,0.71250004,0.10638297,-192.62352,898.50854,-0.028034508,0.002349794,-0.02805996,0.0,0.0,0.0
602.98627,455.42224,71820975,0.71250004,0.12765957,-156.95833,726.5799,-0.028034508,0.002349794,-0.02805996,0.0,0.0,0.0
600.6896,470.1919,71820991,0.71250004,0.08510638,-138.29546,662.23773,-0.028034508,0.002349794,-0.02805996,0.0,0.0,0.0
598.53,485.90894,71821008,0.7,0.07446808,-120.684326,775.77875,-0.028034508,0.002349794,-0.02805996,0.0,0.0,0.0
596.42426,496.81384,71821025,0.71250004,0.10638297,-104.539665,819.8938,-0.028034508,0.002349794,-0.02805996,0.0,0.0,0.0
594.79,508.0393,71821041,0.71250004,0.12765957,-93.92872,722.30566,-0.028034508,0.002349794,-0.02805996,0.0,0.0,0.0
592.70966,517.3198,71821058,0.7,0.09574468,-99.65016,542.7306,-0.028034508,0.002349794,-0.02805996,0.0,0.0,0.0
591.1214,528.6677,71821075,0.7,0.08510638,-98.76325,503.45227,-0.028034508,0.002349794,-0.02805996,0.0,0.0,0.0
590.17096,538.4404,71821092,0.7,0.08510638,-75.24577,572.2883,-0.028034508,0.002349794,-0.02805996,0.0,0.0,0.0
588.6511,545.489,71821108,0.7,0.09574468,-69.55879,527.2025,-0.028034508,0.002349794,-0.02805996,0.0,0.0,0.0
588.16064,551.4188,71821125,0.7,0.11702127,-46.402805,392.34305,-0.028034508,0.002349794,-0.02805996,0.0,0.0,0.0
587.1318,556.01697,71821142,0.7,0.12765957,-34.322845,213.4902,-0.0064276047,-0.046120167,-0.054448128,0.0,0.0,0.0
586.0909,561.5676,71821158,0.7,0.12765957,-40.569763,176.98679,-0.0064276047,-0.046120167,-0.054448128,0.0,0.0,0.0
585.5056,567.3545,71821175,0.71250004,0.11702127,-39.72197,258.72656,-0.0064276047,-0.046120167,-0.054448128,0.0,0.0,0.0
584.7875,571.55396,71821192,0.71250004,0.08510638,-48.22699,283.81082,-0.0064276047,-0.046120167,-0.054448128,0.0,0.0,0.0
584.43164,575.1145,71821209,0.71250004,0.08510638,-22.595665,241.64206,-0.0064276047,-0.046120167,-0.054448128,0.0,0.0,0.0
584.28766,578.94006,71821225,0.7,0.07446808,-6.5071344,192.46667,-0.0064276047,-0.046120167,-0.054448128,0.0,0.0,0.0
584.28766,580.88745,71821242,0.71250004,0.08510638,5.4764595,130.08685,-0.0064276047,-0.046120167,-0.054448128,0.0,0.0,0.0
584.28766,582.76624,71821259,0.71250004,0.08510638,11.761869,88.148735,-0.0064276047,-0.046120167,-0.054448128,0.0,0.0,0.0
584.28766,584.6112,71821275,0.7375,0.08510638,10.292289,70.05012,-0.0064276047,-0.046120167,-0.054448128,0.0,0.0,0.0
584.28766,585.4,71821292,0.7375,0.08510638,7.2520094,37.600624,-0.0064276047,-0.046120167,-0.054448128,0.0,0.0,0.0
583.78784,585.4,71821309,0.7375,0.08510638,-16.016321,1.2499474,-0.0064276047,-0.046120167,-0.054448128,0.0,0.0,0.0
583.78784,585.4,71821326,0.7375,0.09574468,-16.91313,-29.851517,-0.0064276047,-0.046120167,-0.054448128,0.0,0.0,0.0
582.691,585.4,71821342,0.75,0.08510638,-39.02145,-49.486034,-0.0064276047,-0.046120167,-0.054448128,0.0,0.0,0.0
582.2883,585.0697,71821359,0.7625,0.08510638,-47.691566,-30.417732,-0.0064276047,-0.046120167,-0.054448128,0.0,0.0,0.0
582.2883,584.5115,71821376,0.75,0.08510638,-32.108116,-29.072796,-0.0064276047,-0.046120167,-0.054448128,0.0,0.0,0.0
582.2883,583.0261,71821392,0.7625,0.08510638,-6.307879,-65.53046,-0.0064276047,-0.046120167,-0.054448128,0.0,0.0,0.0
582.2883,581.2053,71821409,0.7375,0.08510638,20.935642,-117.0671,-0.0064276047,-0.046120167,-0.054448128,0.0,0.0,0.0
581.37305,580.2191,71821426,0.75,0.08510638,-8.669699,-118.390144,-0.0064276047,-0.046120167,-0.054448128,0.0,0.0,0.0
581.28864,578.37317,71821443,0.7375,0.08510638,-40.58124,-107.42756,-0.0064276047,-0.046120167,-0.054448128,0.0,0.0,0.0
581.28864,576.5259,71821459,0.75,0.10638297,-25.535,-116.092125,-0.0064276047,-0.046120167,-0.054448128,0.0,0.0,0.0
581.28864,571.8867,71821476,0.7375,0.12765957,-1.8243222,-188.10727,-0.0064276047,-0.046120167,-0.054448128,0.0,0.0,0.0
581.28864,563.5123,71821493,0.7375,0.08510638,13.818229,-407.6387,-0.0064276047,-0.046120167,-0.054448128,0.0,0.0,0.0
581.28864,554.98645,71821509,0.7375,0.08510638,12.398114,-588.5617,-0.0064276047,-0.046120167,-0.054448128,0.0,0.0,0.0
581.9631,548.6183,71821526,0.7375,0.07446808,15.098037,-607.0822,-0.0064276047,-0.046120167,-0.054448128,0.0,0.0,0.0
583.6762,537.12756,71821543,0.7375,0.09574468,65.60526,-650.0956,-0.0064276047,-0.046120167,-0.054448128,0.0,0.0,0.0
586.2277,526.9169,71821559,0.7375,0.11702127,148.59048,-658.70483,-0.0064276047,-0.046120167,-0.054448128,0.0,0.0,0.0
590.07513,516.0034,71821576,0.7375,0.12765957,245.28142,-736.7268,-0.0064276047,-0.046120167,-0.054448128,0.0,0.0,0.0
595.8487,505.82593,71821593,0.7375,0.08510638,329.5855,-682.22,-0.0064276047,-0.046120167,-0.054448128,0.0,0.0,0.0
607.51825,491.0266,71821610,0.7375,0.06382979,562.4767,-729.1619,-0.0064276047,-0.046120167,-0.054448128,0.0,0.0,0.0
620.2737,479.12317,71821626,0.75,0.08510638,848.89166,-828.29565,-0.0064276047,-0.046120167,-0.054448128,0.0,0.0,0.0
630.0815,470.18213,71821643,0.7375,0.11702127,910.87933,-734.74695,-0.0064276047,-0.046120167,-0.054448128,0.0,0.0,0.0
641.9072,462.09583,71821660,0.7375,0.12765957,833.6357,-551.9491,-0.0064276047,-0.046120167,-0.054448128,0.0,0.0,0.0
655.89136,454.73364,71821676,0.7375,0.09574468,783.9994,-352.19598,-0.02114208,-0.004896134,0.0044412613,0.0,0.0,0.0
670.47504,451.0404,71821693,0.7375,0.09574468,857.7207,-216.41379,-0.02114208,-0.004896134,0.0044412613,0.0,0.0,0.0
679.5463,450.34753,71821710,0.7375,0.10638297,804.68713,-68.016815,-0.02114208,-0.004896134,0.0044412613,0.0,0.0,0.0
684.2129,450.34753,71821727,0.7375,0.12765957,498.8959,107.96698,-0.02114208,-0.004896134,0.0044412613,0.0,0.0,0.0
685.9598,450.34753,71821743,0.7375,0.12765957,86.11249,175.57802,-0.02114208,-0.004896134,0.0044412613,0.0,0.0,0.0
686.10406,450.96863,71821760,0.75,0.12765957,-191.49762,164.19081,-0.02114208,-0.004896134,0.0044412613,0.0,0.0,0.0
686.7543,453.3706,71821777,0.77500004,0.12765957,-187.04909,125.21872,-0.02114208,-0.004896134,0.0044412613,0.0,0.0,0.0
686.7543,457.24255,71821793,0.77500004,0.10638297,-121.88824,202.70772,-0.02114208,-0.004896134,0.0044412613,0.0,0.0,0.0
686.7543,463.37378,71821810,0.75,0.08510638,-45.730972,364.46808,-0.02114208,-0.004896134,0.0044412613,0.0,0.0,0.0
686.3783,473.016,71821827,0.725,0.07446808,-26.0046,561.3924,-0.02114208,-0.004896134,0.0044412613,0.0,0.0,0.0
684.8395,483.20923,71821844,0.7,0.07446808,-72.522285,721.063,-0.02114208,-0.004896134,0.0044412613,0.0,0.0,0.0
682.39325,490.8927,71821860,0.71250004,0.08510638,-132.01323,722.15857,-0.02114208,-0.004896134,0.0044412613,0.0,0.0,0.0
678.42786,495.479,71821877,0.7375,0.09574468,-222.07365,505.77493,-0.02114208,-0.004896134,0.0044412613,0.0,0.0,0.0
671.0687,501.11926,71821894,0.7375,0.12765957,-392.2638,277.67108,-0.02114208,-0.004896134,0.0044412613,0.0,0.0,0.0
662.348,506.5686,71821910,0.7375,0.12765957,-563.3409,200.25896,-0.02114208,-0.004896134,0.0044412613,0.0,0.0,0.0
653.4357,512.2069,71821927,0.7375,0.11702127,-670.94604,252.6811,-0.02114208,-0.004896134,0.0044412613,0.0,0.0,0.0
646.61316,515.2865,71821944,0.7375,0.10638297,-613.7994,257.64532,-0.02114208,-0.004896134,0.0044412613,0.0,0.0,0.0
637.7731,519.42737,71821961,0.75,0.08510638,-535.10834,220.30101,-0.02114208,-0.004896134,0.0044412613,0.0,0.0,0.0
629.68677,523.14,71821977,0.7625,0.08510638,-475.6902,180.23087,-0.02114208,-0.004896134,0.0044412613,0.0,0.0,0.0
622.448,525.3749,71821994,0.75,0.08510638,-461.10214,150.85518,-0.02114208,-0.004896134,0.0044412613,0.0,0.0,0.0
615.4533,526.3334,71822011,0.75,0.08510638,-433.4257,83.95709,-0.02114208,-0.004896134,0.0044412613,0.0,0.0,0.0
609.2812,526.7588,71822027,0.75,0.08510638,-366.68524,-8.940609,-0.02114208,-0.004896134,0.0044412613,0.0,0.0,0.0
603.56305,526.7588,71822044,0.75,0.08510638,-311.02728,-64.84983,-0.02114208,-0.004896134,0.0044412613,0.0,0.0,0.0
599.5849,526.7588,71822061,0.75,0.09574468,-256.6284,-62.912704,-0.02114208,-0.004896134,0.0044412613,0.0,0.0,0.0
596.03394,526.7588,71822078,0.7625,0.09574468,-188.85373,-33.573174,-0.02114208,-0.004896134,0.0044412613,0.0,0.0,0.0
593.75433,526.7588,71822094,0.7625,0.09574468,-115.80434,-12.997731,-0.02114208,-0.004896134,0.0044412613,0.0,0.0,0.0
592.23083,526.7588,71822111,0.77500004,0.09574468,-62.71573,-0.005711182,-0.02114208,-0.004896134,0.0044412613,0.0,0.0,0.0
591.1913,526.7588,71822128,0.77500004,0.09574468,-17.792412,0.011994316,-0.02114208,-0.004896134,0.0044412613,0.0,0.0,0.0
590.7855,526.7588,71822144,0.77500004,0.09574468,7.584821,-0.0170954,-0.02114208,-0.004896134,0.0044412613,0.0,0.0,0.0
590.7855,526.7588,71822161,0.7625,0.09574468,34.71391,0.017923541,-0.02114208,-0.004896134,0.0044412613,0.0,0.0,0.0
591.4963,526.7588,71822178,0.7625,0.09574468,54.687073,0.027780248,-0.02114208,-0.004896134,0.0044412613,0.0,0.0,0.0
593.5284,526.7588,71822194,0.77500004,0.08510638,108.58022,0.044410173,-0.02114208,-0.004896134,0.0044412613,0.0,0.0,0.0
597.6699,527.2516,71822211,0.7625,0.08510638,220.55591,8.549529,-0.032913666,-0.019916922,0.019553185,0.0,0.0,0.0
602.49,528.53577,71822228,0.7625,0.08510638,336.15118,58.741657,-0.032913666,-0.019916922,0.019553185,0.0,0.0,0.0
607.1047,530.0127,71822245,0.7625,0.08510638,379.6474,102.00976,-0.032913666,-0.019916922,0.019553185,0.0,0.0,0.0
611.2865,531.8711,71822261,0.75,0.08510638,339.61145,131.66922,-0.032913666,-0.019916922,0.019553185,0.0,0.0,0.0
615.5164,533.75085,71822278,0.75,0.08510638,271.64032,141.06119,-0.032913666,-0.019916922,0.019553185,0.0,0.0,0.0
619.7502,537.3977,71822295,0.7375,0.08510638,241.34909,177.16943,-0.032913666,-0.019916922,0.019553185,0.0,0.0,0.0
623.91235,542.04663,71822311,0.7375,0.08510638,246.21596,266.77292,-0.032913666,-0.019916922,0.019553185,0.0,0.0,0.0
629.14954,547.5957,71822328,0.75,0.10638297,279.61768,354.3248,-0.032913666,-0.019916922,0.019553185,0.0,0.0,0.0
632.74036,551.1647,71822345,0.7375,0.11702127,267.64194,352.4563,-0.032913666,-0.019916922,0.019553185,0.0,0.0,0.0
635.7806,554.9061,71822362,0.7375,0.12765957,219.09653,282.20963,-0.032913666,-0.019916922,0.019553185,0.0,0.0,0.0
639.1474,558.52747,71822378,0.725,0.12765957,182.47092,209.92589,-0.032913666,-0.019916922,0.019553185,0.0,0.0,0.0
642.1284,562.1742,71822395,0.7375,0.12765957,147.90804,179.54819,-0.032913666,-0.019916922,0.019553185,0.0,0.0,0.0
646.31793,565.8978,71822412,0.71250004,0.10638297,200.10033,212.96997,-0.032913666,-0.019916922,0.019553185,0.0,0.0,0.0
650.10223,569.5088,71822428,0.7375,0.10638297,239.7642,216.97388,-0.032913666,-0.019916922,0.019553185,0.0,0.0,0.0
654.1773,573.15344,71822445,0.725,0.08510638,256.20718,212.63504,-0.032913666,-0.019916922,0.019553185,0.0,0.0,0.0
657.31866,576.25134,71822462,0.725,0.08510638,230.92134,202.78665,-0.032913666,-0.019916922,0.019553185,0.0,0.0,0.0
660.0612,578.1127,71822479,0.725,0.08510638,176.26456,147.5457,-0.032913666,-0.019916922,0.019553185,0.0,0.0,0.0
662.7053,579.1804,71822495,0.7375,0.08510638,142.29694,77.74093,-0.032913666,-0.019916922,0.019553185,0.0,0.0,0.0
664.79254,579.1804,71822512,0.7375,0.08510638,114.13791,-14.369836,-0.032913666,-0.019916922,0.019553185,0.0,0.0,0.0
666.8719,579.1804,71822529,0.725,0.08510638,100.55848,-60.571335,-0.032913666,-0.019916922,0.019553185,0.0,0.0,0.0
668.4171,579.1804,71822545,0.7375,0.08510638,86.75901,-57.617744,-0.032913666,-0.019916922,0.019553185,0.0,0.0,0.0
669.90106,579.1804,71822562,0.7375,0.08510638,77.70517,-36.454227,-0.032913666,-0.019916922,0.019553185,0.0,0.0,0.0
671.7963,578.2589,71822579,0.725,0.09574468,84.7375,-31.73323,-0.032913666,-0.019916922,0.019553185,0.0,0.0,0.0
673.4039,576.25696,71822596,0.7375,0.09574468,94.09392,-85.608696,-0.032913666,-0.019916922,0.019553185,0.0,0.0,0.0
675.254,574.29724,71822612,0.725,0.10638297,102.48979,-152.84325,-0.032913666,-0.019916922,0.019553185,0.0,0.0,0.0
677.33295,572.27905,71822629,0.71250004,0.12765957,109.47405,-163.29521,-0.032913666,-0.019916922,0.019553185,0.0,0.0,0.0
679.77185,568.49133,71822646,0.725,0.12765957,139.17783,-197.70941,-0.032913666,-0.019916922,0.019553185,0.0,0.0,0.0
682.24036,564.6865,71822662,0.725,0.12765957,155.56323,-237.20763,-0.032913666,-0.019916922,0.019553185,0.0,0.0,0.0
685.3766,560.96985,71822679,0.725,0.10638297,182.14784,-270.80057,-0.032913666,-0.019916922,0.019553185,0.0,0.0,0.0
688.9398,557.2467,71822696,0.725,0.09574468,201.70737,-263.22382,-0.032913666,-0.019916922,0.019553185,0.0,0.0,0.0
693.1933,553.4663,71822713,0.71250004,0.09574468,241.69386,-225.5111,-0.032913666,-0.019916922,0.019553185,0.0,0.0,0.0
695.82587,549.7274,71822729,0.71250004,0.08510638,249.92455,-229.69841,-0.032913666,-0.019916922,0.019553185,0.0,0.0,0.0
699.83356,544.4175,71822746,0.725,0.08510638,235.22606,-281.07132,-0.01033093,-0.015933543,0.03164196,0.0,0.0,0.0
702.7512,539.1941,71822763,0.725,0.08510638,204.36722,-332.2018,-0.01033093,-0.015933543,0.03164196,0.0,0.0,0.0
706.79,534.6991,71822779,0.725,0.08510638,205.39854,-332.5055,-0.01033093,-0.015933543,0.03164196,0.0,0.0,0.0
709.24835,531.19885,71822796,0.725,0.08510638,187.13722,-275.17288,-0.01033093,-0.015933543,0.03164196,0.0,0.0,0.0
712.7935,526.11,71822813,0.71250004,0.09574468,177.09354,-233.075,-0.01033093,-0.015933543,0.03164196,0.0,0.0,0.0
715.90015,522.0403,71822829,0.71250004,0.10638297,182.54633,-236.88531,-0.01033093,-0.015933543,0.03164196,0.0,0.0,0.0
719.5636,516.5587,71822846,0.725,0.10638297,199.6211,-293.1377,-0.01033093,-0.015933543,0.03164196,0.0,0.0,0.0
724.5997,510.20667,71822863,0.71250004,0.09574468,261.99548,-355.53253,-0.01033093,-0.015933543,0.03164196,0.0,0.0,0.0
728.795,504.4496,71822880,0.725,0.08510638,283.12274,-367.1834,-0.01033093,-0.015933543,0.03164196,0.0,0.0,0.0
733.9438,496.18555,71822896,0.71250004,0.07446808,316.31918,-450.30682,-0.01033093,-0.015933543,0.03164196,0.0,0.0,0.0
738.61615,487.04553,71822913,0.7,0.07446808,317.32104,-537.1675,-0.01033093,-0.015933543,0.03164196,0.0,0.0,0.0
743.7619,478.74243,71822930,0.71250004,0.11702127,307.82703,-594.6422,-0.01033093,-0.015933543,0.03164196,0.0,0.0,0.0
749.46545,469.5515,71822946,0.7,0.12765957,329.24823,-603.4787,-0.01033093,-0.015933543,0.03164196,0.0,0.0,0.0
756.11835,460.27783,71822963,0.7,0.12765957,375.64124,-581.6917,-0.01033093,-0.015933543,0.03164196,0.0,0.0,0.0
766.19727,449.49585,71822980,0.71250004,0.08510638,527.45624,-628.1165,-0.01033093,-0.015933543,0.03164196,0.0,0.0,0.0
779.16315,438.84705,71822997,0.725,0.06382979,736.82196,-676.98035,-0.01033093,-0.015933543,0.03164196,0.0,0.0,0.0
791.08356,429.13562,71823013,0.725,0.08510638,878.8341,-678.67676,-0.01033093,-0.015933543,0.03164196,0.0,0.0,0.0
805.13934,419.8523,71823030,0.7375,0.11702127,912.9938,-588.36707,-0.01033093,-0.015933543,0.03164196,0.0,0.0,0.0
818.38214,414.39563,71823047,0.725,0.10638297,852.42535,-393.6193,-0.01033093,-0.015933543,0.03164196,0.0,0.0,0.0
831.70764,409.40784,71823063,0.725,0.12765957,822.9884,-243.92111,-0.01033093,-0.015933543,0.03164196,0.0,0.0,0.0
844.21674,405.83716,71823080,0.71250004,0.12765957,788.22705,-127.847244,-0.01033093,-0.015933543,0.03164196,0.0,0.0,0.0
855.8778,403.41907,71823097,0.725,0.12765957,746.883,-74.56833,-0.01033093,-0.015933543,0.03164196,0.0,0.0,0.0
866.2252,402.3683,71823114,0.7375,0.12765957,659.5848,-49.977314,-0.01033093,-0.015933543,0.03164196,0.0,0.0,0.0
875.5375,402.3683,71823130,0.725,0.12765957,512.6705,41.821373,-0.01033093,-0.015933543,0.03164196,0.0,0.0,0.0
882.4024,402.3683,71823147,0.725,0.10638297,420.20145,79.3607,-0.01033093,-0.015933543,0.03164196,0.0,0.0,0.0
886.71094,402.3683,71823164,0.75,0.10638297,281.20114,70.1554,-0.01033093,-0.015933543,0.03164196,0.0,0.0,0.0
890.09406,403.2151,71823180,0.75,0.10638297,155.43298,55.719975,-0.01033093,-0.015933543,0.03164196,0.0,0.0,0.0
893.213,403.25684,71823197,0.7375,0.12765957,71.57536,40.024063,-0.01033093,-0.015933543,0.03164196,0.0,0.0,0.0
895.9701,404.1454,71823214,0.75,0.12765957,55.81274,50.689156,-0.01033093,-0.015933543,0.03164196,0.0,0.0,0.0
897.2175,404.1454,71823231,0.75,0.12765957,67.94427,29.772959,-0.01033093,-0.015933543,0.03164196,0.0,0.0,0.0
898.7043,404.1454,71823247,0.75,0.12765957,49.23043,-1.4148902,-0.01033093,-0.015933543,0.03164196,0.0,0.0,0.0
899.9011,404.1454,71823264,0.7375,0.12765957,25.066238,-16.992004,-0.01033093,-0.015933543,0.03164196,0.0,0.0,0.0
899.685,404.1454,71823297,0.7375,0.12765957,-26.58402,-0.0046873046,0.007735256,0.019253194,0.009314537,0.0,0.0,0.0
899.685,404.1454,71823314,0.7375,0.12765957,-38.67198,-0.009582599,0.007735256,0.019253194,0.009314537,0.0,0.0,0.0
899.685,404.1454,71823331,0.75,0.12765957,-25.323404,-0.037910488,0.007735256,0.019253194,0.009314537,0.0,0.0,0.0
898.67596,404.1454,71823348,0.75,0.10638297,-34.3235,0.01380842,0.007735256,0.019253194,0.009314537,0.0,0.0,0.0
897.63715,404.1454,71823364,0.7375,0.12765957,-75.34377,-0.018919256,0.007735256,0.019253194,0.009314537,0.0,0.0,0.0
895.51654,403.10596,71823381,0.75,0.12765957,-117.27318,-25.488338,0.007735256,0.019253194,0.009314537,0.0,0.0,0.0
889.4208,402.3683,71823398,0.7375,0.12765957,-262.72415,-61.951344,0.007735256,0.019253194,0.009314537,0.0,0.0,0.0
883.3146,401.47986,71823414,0.7625,0.12765957,-409.21494,-79.83818,0.007735256,0.019253194,0.009314537,0.0,0.0,0.0
876.4342,401.47986,71823431,0.75,0.12765957,-509.10403,-49.595676,0.007735256,0.019253194,0.009314537,0.0,0.0,0.0
869.76917,401.47986,71823448,0.7375,0.12765957,-511.18506,10.015451,0.007735256,0.019253194,0.009314537,0.0,0.0,0.0
862.8296,401.89465,71823464,0.75,0.12765957,-447.42014,38.633785,0.007735256,0.019253194,0.009314537,0.0,0.0,0.0
854.3989,404.5996,71823481,0.7375,0.12765957,-457.57443,107.45933,0.007735256,0.019253194,0.009314537,0.0,0.0,0.0
844.74304,407.4353,71823498,0.75,0.09574468,-555.8218,193.40054,0.007735256,0.019253194,0.009314537,0.0,0.0,0.0
835.4535,410.92126,71823515,0.75,0.10638297,-624.2959,261.4294,0.007735256,0.019253194,0.009314537,0.0,0.0,0.0
826.6939,415.40845,71823531,0.75,0.08510638,-612.1253,297.04877,0.007735256,0.019253194,0.009314537,0.0,0.0,0.0
819.284,419.2068,71823548,0.725,0.09574468,-530.30927,295.1521,0.007735256,0.019253194,0.009314537,0.0,0.0,0.0
813.0311,425.68506,71823565,0.725,0.08510638,-394.8761,341.9397,0.007735256,0.019253194,0.009314537,0.0,0.0,0.0
805.3038,432.99573,71823581,0.7375,0.08510638,-371.70312,438.9574,0.007735256,0.019253194,0.009314537,0.0,0.0,0.0
796.8623,440.36157,71823598,0.725,0.10638297,-411.25488,502.25656,0.007735256,0.019253194,0.009314537,0.0,0.0,0.0
787.2569,450.01648,71823615,0.725,0.10638297,-520.09436,580.458,0.007735256,0.019253194,0.009314537,0.0,0.0,0.0
778.7238,457.90027,71823632,0.725,0.10638297,-594.5295,587.38745,0.007735256,0.019253194,0.009314537,0.0,0.0,0.0
770.8525,465.30334,71823648,0.725,0.08510638,-555.8798,516.001,0.007735256,0.019253194,0.009314537,0.0,0.0,0.0
763.1106,478.10217,71823665,0.71250004,0.08510638,-480.43887,605.7533,0.007735256,0.019253194,0.009314537,0.0,0.0,0.0
758.8049,488.63013,71823682,0.725,0.09574468,-335.35013,707.28864,0.007735256,0.019253194,0.009314537,0.0,0.0,0.0
756.0385,497.23633,71823698,0.7,0.11702127,-166.2436,697.8904,0.007735256,0.019253194,0.009314537,0.0,0.0,0.0
755.232,507.79883,71823715,0.7,0.12765957,-0.736072,616.28625,0.007735256,0.019253194,0.009314537,0.0,0.0,0.0
755.6563,517.95703,71823732,0.7,0.09574468,123.22407,555.1079,0.007735256,0.019253194,0.009314537,0.0,0.0,0.0
756.6555,530.661,71823749,0.7,0.08510638,171.23021,618.894,0.007735256,0.019253194,0.009314537,0.0,0.0,0.0
758.24854,539.26,71823765,0.71250004,0.09574468,167.62956,684.4587,0.007735256,0.019253194,0.009314537,0.0,0.0,0.0
760.3284,546.5675,71823782,0.725,0.08510638,177.88246,554.6762,0.007735256,0.019253194,0.009314537,0.0,0.0,0.0
761.8195,549.13074,71823799,0.725,0.10638297,155.51959,264.64966,0.007735256,0.019253194,0.009314537,0.0,0.0,0.0
765.24225,552.9817,71823815,0.7375,0.10638297,169.6567,61.858517,-0.009811796,0.0154025555,0.007452011,0.0,0.0,0.0
769.97363,556.74255,71823832,0.7375,0.10638297,246.03069,15.304942,-0.009811796,0.0154025555,0.007452011,0.0,0.0,0.0
777.00586,558.18164,71823849,0.725,0.10638297,378.0043,52.37561,-0.009811796,0.0154025555,0.007452011,0.0,0.0,0.0
784.87286,559.6334,71823866,0.725,0.10638297,535.49835,90.72711,-0.009811796,0.0154025555,0.007452011,0.0,0.0,0.0
792.715,557.9857,71823882,0.7375,0.10638297,582.47125,-37.679962,-0.009811796,0.0154025555,0.007452011,0.0,0.0,0.0
800.74036,552.04675,71823899,0.725,0.09574468,557.0786,-272.59586,-0.009811796,0.0154025555,0.007452011,0.0,0.0,0.0
809.4955,540.8185,71823916,0.7375,0.09574468,515.7991,-612.1537,-0.009811796,0.0154025555,0.007452011,0.0,0.0,0.0
818.054,527.9271,71823932,0.71250004,0.10638297,534.2887,-955.6636,-0.009811796,0.0154025555,0.007452011,0.0,0.0,0.0
829.0954,510.8667,71823949,0.7375,0.09574468,597.2976,-1166.085,-0.009811796,0.0154025555,0.007452011,0.0,0.0,0.0
840.0264,491.5349,71823966,0.71250004,0.07446808,682.6323,-1308.3102,-0.009811796,0.0154025555,0.007452011,0.0,0.0,0.0
854.15045,462.72412,71823983,0.71250004,0.11702127,801.2002,-1601.8188,-0.009811796,0.0154025555,0.007452011,0.0,0.0,0.0
860.0264,448.6416,71823999,0.7375,0.09574468,685.33594,-1537.0885,-0.009811796,0.0154025555,0.007452011,0.0,0.0,0.0
864.6296,436.75378,71824016,0.725,0.09574468,423.34335,-1116.9237,-0.009811796,0.0154025555,0.007452011,0.0,0.0,0.0
866.3497,430.25366,71824033,0.7375,0.09574468,81.88933,-499.05038,-0.009811796,0.0154025555,0.007452011,0.0,0.0,0.0
868.87726,424.82166,71824049,0.7375,0.10638297,-84.62815,-35.494804,-0.009811796,0.0154025555,0.007452011,0.0,0.0,0.0
869.91797,421.12183,71824066,0.725,0.10638297,-58.013367,59.377567,-0.009811796,0.0154025555,0.007452011,0.0,0.0,0.0
870.1946,418.7815,71824083,0.75,0.10638297,-22.677351,5.1455364,-0.009811796,0.0154025555,0.007452011,0.0,0.0,0.0
870.1946,416.9325,71824099,0.7375,0.10638297,-37.42631,-3.3737535,-0.009811796,0.0154025555,0.007452011,0.0,0.0,0.0
870.1946,415.69592,71824116,0.7625,0.10638297,-52.699604,-21.481764,-0.009811796,0.0154025555,0.007452011,0.0,0.0,0.0
870.1946,415.69592,71824131,0.7625,0.09574468,-46.894978,20.560196,-0.009811796,0.0154025555,0.007452011,0.0,0.0,0.0
870.1946,415.69592,71824150,0.75,0.09574468,-13.992564,47.435104,-0.009811796,0.0154025555,0.007452011,0.0,0.0,0.0
871.1565,419.04834,71824166,0.7375,0.08510638,22.781235,123.228386,-0.009811796,0.0154025555,0.007452011,0.0,0.0,0.0
871.1943,430.8429,71824183,0.725,0.08510638,34.547806,499.32404,-0.009811796,0.0154025555,0.007452011,0.0,0.0,0.0
866.38513,452.26135,71824200,0.7,0.12765957,-108.22617,1114.5544,-0.009811796,0.0154025555,0.007452011,0.0,0.0,0.0
859.14636,478.21545,71824216,0.71250004,0.07446808,-369.12943,1733.2245,-0.009811796,0.0154025555,0.007452011,0.0,0.0,0.0
853.06036,493.69885,71824233,0.71250004,0.10638297,-576.7227,1755.571,-0.009811796,0.0154025555,0.007452011,0.0,0.0,0.0
848.9482,505.66565,71824250,0.725,0.12765957,-510.1416,1272.8738,-0.009811796,0.0154025555,0.007452011,0.0,0.0,0.0
846.7022,514.86426,71824267,0.725,0.08510638,-300.1824,633.2636,-0.009811796,0.0154025555,0.007452011,0.0,0.0,0.0
846.7022,523.1692,71824283,0.725,0.08510638,19.798508,175.42429,-0.009811796,0.0154025555,0.007452011,0.0,0.0,0.0
848.55664,530.56165,71824300,0.71250004,0.07446808,162.10274,229.56526,-0.009811796,0.0154025555,0.007452011,0.0,0.0,0.0
851.84503,536.78894,71824317,0.71250004,0.07446808,284.9042,308.39865,-0.009811796,0.0154025555,0.007452011,0.0,0.0,0.0
855.1613,540.4967,71824333,0.725,0.09574468,330.90225,225.31363,-0.009811796,0.0154025555,0.007452011,0.0,0.0,0.0
860.5216,543.46875,71824350,0.725,0.09574468,342.41785,138.4685,-0.023849439,-0.0036779642,-0.02603817,0.0,0.0,0.0
867.79376,544.5288,71824367,0.71250004,0.08510638,431.6125,18.062525,-0.023849439,-0.0036779642,-0.02603817,0.0,0.0,0.0
877.05206,541.9187,71824384,0.71250004,0.07446808,556.9224,-129.40211,-0.023849439,-0.0036779642,-0.02603817,0.0,0.0,0.0
885.87726,536.4072,71824400,0.725,0.08510638,654.7323,-340.6694,-0.023849439,-0.0036779642,-0.02603817,0.0,0.0,0.0
894.14264,529.9077,71824417,0.725,0.08510638,626.3982,-514.86914,-0.023849439,-0.0036779642,-0.02603817,0.0,0.0,0.0
900.88727,522.4912,71824434,0.7,0.12765957,502.68152,-602.4929,-0.023849439,-0.0036779642,-0.02603817,0.0,0.0,0.0
905.80634,514.98914,71824450,0.71250004,0.11702127,349.9031,-585.7573,-0.023849439,-0.0036779642,-0.02603817,0.0,0.0,0.0
912.77454,502.27856,71824467,0.7,0.08510638,291.7249,-662.3752,-0.023849439,-0.0036779642,-0.02603817,0.0,0.0,0.0
918.47156,490.6985,71824484,0.71250004,0.09574468,308.08914,-791.5477,-0.023849439,-0.0036779642,-0.02603817,0.0,0.0,0.0
925.9961,476.86108,71824501,0.71250004,0.12765957,384.80374,-897.63324,-0.023849439,-0.0036779642,-0.02603817,0.0,0.0,0.0
933.093,463.4679,71824517,0.725,0.10638297,440.26105,-930.95087,-0.023849439,-0.0036779642,-0.02603817,0.0,0.0,0.0
941.59125,448.99365,71824534,0.71250004,0.08510638,485.22192,-866.53766,-0.023849439,-0.0036779642,-0.02603817,0.0,0.0,0.0
947.94806,435.8496,71824551,0.71250004,0.08510638,490.11313,-868.4155,-0.023849439,-0.0036779642,-0.02603817,0.0,0.0,0.0
956.53674,419.62024,71824567,0.7,0.12765957,476.52356,-904.9335,-0.023849439,-0.0036779642,-0.02603817,0.0,0.0,0.0
965.3324,403.0221,71824584,0.71250004,0.09574468,502.7367,-977.0539,-0.023849439,-0.0036779642,-0.02603817,0.0,0.0,0.0
977.1316,381.09448,71824601,0.71250004,0.08510638,615.37885,-1196.3323,-0.023849439,-0.0036779642,-0.02603817,0.0,0.0,0.0
994.0043,349.17358,71824618,0.71250004,0.10638297,880.2364,-1641.2799,-0.023849439,-0.0036779642,-0.02603817,0.0,0.0,0.0
1004.9076,326.9984,71824634,0.7,0.06382979,946.742,-1813.9214,-0.023849439,-0.0036779642,-0.02603817,0.0,0.0,0.0
1013.33435,307.3872,71824651,0.7,0.12765957,785.5802,-1647.4437,-0.023849439,-0.0036779642,-0.02603817,0.0,0.0,0.0
1018.1465,289.0841,71824668,0.6875,0.08510638,448.7433,-1242.417,-0.023849439,-0.0036779642,-0.02603817,0.0,0.0,0.0
1020.46985,277.73828,71824684,0.71250004,0.08510638,100.931145,-773.0962,-0.023849439,-0.0036779642,-0.02603817,0.0,0.0,0.0
1022.771,265.09106,71824701,0.7,0.09574468,-66.26217,-539.7479,-0.023849439,-0.0036779642,-0.02603817,0.0,0.0,0.0
1024.2078,257.20483,71824718,0.7,0.12765957,-62.76688,-397.3616,-0.023849439,-0.0036779642,-0.02603817,0.0,0.0,0.0
1026.6808,245.38245,71824734,0.7,0.12765957,22.159597,-436.79208,-0.023849439,-0.0036779642,-0.02603817,0.0,0.0,0.0
1027.8387,239.6189,71824751,0.7,0.11702127,66.444435,-357.15817,-0.023849439,-0.0036779642,-0.02603817,0.0,0.0,0.0
1028.1432,234.84473,71824768,0.71250004,0.11702127,39.061726,-238.06187,-0.023849439,-0.0036779642,-0.02603817,0.0,0.0,0.0
1028.1432,232.76941,71824785,0.725,0.11702127,-13.066882,-99.20865,-0.023849439,-0.0036779642,-0.02603817,0.0,0.0,0.0
1028.1432,231.33154,71824798,0.725,0.11702127,-38.822712,0.26175293,-0.023849439,-0.0036779642,-0.02603817,0.0,0.0,0.0
1028.1432,231.77576,71824818,0.7375,0.11702127,-36.184467,94.85146,-0.023849439,-0.0036779642,-0.02603817,0.0,0.0,0.0
1028.1432,231.77576,71824851,0.725,0.12765957,0.013250138,76.11804,-0.023849439,-0.0036779642,-0.02603817,0.0,0.0,0.0
1028.1432,234.91199,71824868,0.71250004,0.12765957,-0.04253197,126.63665,-0.023849439,-0.0036779642,-0.02603817,0.0,0.0,0.0
1028.1432,241.30603,71824885,0.725,0.11702127,0.06313722,292.16156,-0.019079551,-0.0029423535,0.011169434,0.0,0.0,0.0
1026.2083,250.86426,71824902,0.6875,0.09574468,-56.82157,579.0619,-0.019079551,-0.0029423535,0.011169434,0.0,0.0,0.0
1022.80725,264.96204,71824918,0.6875,0.08510638,-198.83961,934.29944,-0.019079551,-0.0029423535,0.011169434,0.0,0.0,0.0
1017.29504,281.09265,71824935,0.6875,0.12765957,-316.80823,1113.8102,-0.019079551,-0.0029423535,0.011169434,0.0,0.0,0.0
1010.3696,300.85205,71824952,0.675,0.09574468,-468.46335,1316.58,-0.019079551,-0.0029423535,0.011169434,0.0,0.0,0.0
1003.92114,315.83984,71824968,0.675,0.06382979,-508.07422,1216.1277,-0.019079551,-0.0029423535,0.011169434,0.0,0.0,0.0
999.60986,331.76453,71824985,0.6875,0.08510638,-432.21918,1072.6678,-0.019079551,-0.0029423535,0.011169434,0.0,0.0,0.0
994.46094,345.41113,71825002,0.6875,0.10638297,-312.3936,872.8966,-0.019079551,-0.0029423535,0.011169434,0.0,0.0,0.0
989.2201,360.42615,71825019,0.6875,0.08510638,-252.60005,771.5965,-0.019079551,-0.0029423535,0.011169434,0.0,0.0,0.0
983.9873,376.19727,71825035,0.6625,0.09574468,-281.86212,870.7173,-0.019079551,-0.0029423535,0.011169434,0.0,0.0,0.0
978.7777,391.01404,71825052,0.6625,0.12765957,-317.14294,914.819,-0.019079551,-0.0029423535,0.011169434,0.0,0.0,0.0
971.2739,408.8391,71825069,0.6625,0.09574468,-386.00232,999.0945,-0.019079551,-0.0029423535,0.011169434,0.0,0.0,0.0
964.9839,425.24548,71825085,0.6625,0.07446808,-416.7435,1039.3949,-0.019079551,-0.0029423535,0.011169434,0.0,0.0,0.0
960.4275,435.19946,71825102,0.6875,0.08510638,-391.04013,872.664,-0.019079551,-0.0029423535,0.011169434,0.0,0.0,0.0
955.83154,446.80347,71825119,0.6875,0.10638297,-294.77847,644.81976,-0.019079551,-0.0029423535,0.011169434,0.0,0.0,0.0
952.6104,464.08264,71825136,0.675,0.08510638,-185.87404,686.165,-0.019079551,-0.0029423535,0.011169434,0.0,0.0,0.0
950.529,478.31396,71825152,0.6625,0.06382979,-94.010666,843.5124,-0.019079551,-0.0029423535,0.011169434,0.0,0.0,0.0
949.3112,489.70068,71825169,0.65000004,0.08510638,-34.377186,890.7305,-0.019079551,-0.0029423535,0.011169434,0.0,0.0,0.0
948.669,501.485,71825186,0.6625,0.10638297,7.36637,738.0623,-0.019079551,-0.0029423535,0.011169434,0.0,0.0,0.0
948.2342,514.5149,71825202,0.6625,0.09574468,39.898643,643.5174,-0.019079551,-0.0029423535,0.011169434,0.0,0.0,0.0
948.6409,522.9553,71825219,0.6625,0.08510638,38.378983,593.8302,-0.019079551,-0.0029423535,0.011169434,0.0,0.0,0.0
949.19055,530.4669,71825236,0.6625,0.06382979,57.212612,477.0534,-0.019079551,-0.0029423535,0.011169434,0.0,0.0,0.0
951.29614,536.9872,71825253,0.675,0.06382979,107.39577,336.5642,-0.019079551,-0.0029423535,0.011169434,0.0,0.0,0.0
953.3771,540.45874,71825269,0.6875,0.08510638,157.31029,175.68553,-0.019079551,-0.0029423535,0.011169434,0.0,0.0,0.0
956.978,547.7484,71825286,0.675,0.10638297,226.97696,231.96786,-0.019079551,-0.0029423535,0.011169434,0.0,0.0,0.0
961.3584,553.4497,71825303,0.6875,0.12765957,277.8997,293.18808,-0.019079551,-0.0029423535,0.011169434,0.0,0.0,0.0
965.9667,558.12585,71825319,0.6875,0.12765957,313.95886,305.03427,-0.019079551,-0.0029423535,0.011169434,0.0,0.0,0.0
971.1926,562.3264,71825336,0.71250004,0.12765957,350.6442,272.9781,-0.019079551,-0.0029423535,0.011169434,0.0,0.0,0.0
976.6454,564.6039,71825353,0.71250004,0.12765957,356.87717,151.89381,-0.019079551,-0.0029423535,0.011169434,0.0,0.0,0.0
981.83984,564.9645,71825369,0.725,0.12765957,356.08728,43.935867,-0.019079551,-0.0029423535,0.011169434,0.0,0.0,0.0
986.6201,563.4258,71825386,0.725,0.12765957,321.90115,-115.20376,-0.019079551,-0.0029423535,0.011169434,0.0,0.0,0.0
993.22217,558.3174,71825403,0.725,0.09574468,335.8878,-294.7423,-0.019079551,-0.0029423535,0.011169434,0.0,0.0,0.0
998.92773,551.95654,71825420,0.725,0.08510638,367.9597,-461.93616,-0.015263643,0.029646099,0.024934769,0.0,0.0,0.0
1004.1079,543.71704,71825436,0.71250004,0.07446808,360.72107,-600.9955,-0.015263643,0.029646099,0.024934769,0.0,0.0,0.0
1009.7927,533.6117,71825453,0.7,0.10638297,338.3163,-692.29114,-0.015263643,0.029646099,0.024934769,0.0,0.0,0.0
1013.3711,526.2301,71825470,0.71250004,0.12765957,262.99017,-642.75336,-0.015263643,0.029646099,0.024934769,0.0,0.0,0.0
1018.63257,513.91174,71825486,0.71250004,0.11702127,242.43846,-670.1659,-0.015263643,0.029646099,0.024934769,0.0,0.0,0.0
1021.5996,504.97754,71825503,0.71250004,0.09574468,206.60608,-648.12506,-0.015263643,0.029646099,0.024934769,0.0,0.0,0.0
1025.0496,495.10876,71825520,0.71250004,0.09574468,176.26799,-621.8022,-0.015263643,0.029646099,0.024934769,0.0,0.0,0.0
1027.9077,485.10425,71825537,0.71250004,0.09574468,160.12576,-619.0413,-0.015263643,0.029646099,0.024934769,0.0,0.0,0.0
1030.41,478.9547,71825553,0.725,0.11702127,132.62924,-473.21793,-0.015263643,0.029646099,0.024934769,0.0,0.0,0.0
1034.464,471.4336,71825570,0.71250004,0.12765957,164.74652,-371.38995,-0.015263643,0.029646099,0.024934769,0.0,0.0,0.0
1041.3281,459.76062,71825587,0.7,0.10638297,289.154,-439.35788,-0.015263643,0.029646099,0.024934769,0.0,0.0,0.0
1050.5062,447.26892,71825603,0.7,0.08510638,498.15732,-646.5139,-0.015263643,0.029646099,0.024934769,0.0,0.0,0.0
1059.6218,435.81055,71825620,0.7,0.07446808,680.6132,-861.9183,-0.015263643,0.029646099,0.024934769,0.0,0.0,0.0
1067.9606,426.53015,71825637,0.7,0.08510638,692.0774,-808.80524,-0.015263643,0.029646099,0.024934769,0.0,0.0,0.0
1075.1875,420.09302,71825654,0.7,0.11702127,537.8196,-493.79178,-0.015263643,0.029646099,0.024934769,0.0,0.0,0.0
1085.1975,413.6411,71825670,0.6875,0.12765957,504.87772,-308.08105,-0.015263643,0.029646099,0.024934769,0.0,0.0,0.0
1094.3563,410.27222,71825687,0.6875,0.12765957,546.1902,-167.74817,-0.015263643,0.029646099,0.024934769,0.0,0.0,0.0
1104.5491,407.61426,71825704,0.7,0.12765957,624.0722,-91.601845,-0.015263643,0.029646099,0.024934769,0.0,0.0,0.0
1113.2433,406.8108,71825720,0.7,0.12765957,615.5565,-4.1453233,-0.015263643,0.029646099,0.024934769,0.0,0.0,0.0
1119.7258,406.8108,71825737,0.6875,0.12765957,492.683,75.82188,-0.015263643,0.029646099,0.024934769,0.0,0.0,0.0
1124.0648,406.8108,71825754,0.71250004,0.11702127,267.21387,90.75068,-0.015263643,0.029646099,0.024934769,0.0,0.0,0.0
1126.6923,407.15503,71825771,0.6875,0.11702127,97.21636,77.77193,-0.015263643,0.029646099,0.024934769,0.0,0.0,0.0
1129.045,408.97412,71825787,0.71250004,0.11702127,21.067371,87.75409,-0.015263643,0.029646099,0.024934769,0.0,0.0,0.0
1130.8711,409.47632,71825804,0.7,0.09574468,15.46912,91.86122,-0.015263643,0.029646099,0.024934769,0.0,0.0,0.0
1132.757,410.94055,71825821,0.7,0.09574468,47.935852,92.4543,-0.015263643,0.029646099,0.024934769,0.0,0.0,0.0
1134.0607,411.25342,71825837,0.71250004,0.09574468,68.66631,68.9799,-0.015263643,0.029646099,0.024934769,0.0,0.0,0.0
1134.8584,411.25342,71825851,0.71250004,0.09574468,57.389015,28.470842,-0.015263643,0.029646099,0.024934769,0.0,0.0,0.0
1135.1538,412.22278,71825871,0.71250004,0.09574468,13.984366,7.869748,-0.015263643,0.029646099,0.024934769,0.0,0.0,0.0
1135.1083,412.14185,71825921,0.71250004,0.09574468,-22.83012,5.267177,-0.015263643,0.029646099,0.024934769,0.0,0.0,0.0
1134.3844,412.14185,71825938,0.71250004,0.09574468,-32.028816,-9.739581,-0.015263643,0.029646099,0.024934769,0.0,0.0,0.0
1133.3744,412.14185,71825954,0.7,0.11702127,-71.43605,-6.658303,0.003789086,0.007716894,0.019948006,0.0,0.0,0.0
1130.2513,412.14185,71825971,0.71250004,0.10638297,-177.78201,-0.008463052,0.003789086,0.007716894,0.019948006,0.0,0.0,0.0
1122.0005,412.14185,71825988,0.71250004,0.10638297,-416.2392,-0.02041346,0.003789086,0.007716894,0.019948006,0.0,0.0,0.0
1109.643,412.14185,71826004,0.71250004,0.10638297,-698.73065,-0.0015596097,0.003789086,0.007716894,0.019948006,0.0,0.0,0.0
1096.0487,412.14185,71826021,0.71250004,0.11702127,-996.7922,0.023182862,0.003789086,0.007716894,0.019948006,0.0,0.0,0.0
1084.4586,412.90698,71826038,0.71250004,0.11702127,-1033.2427,14.094911,0.003789086,0.007716894,0.019948006,0.0,0.0,0.0
1072.8849,417.3363,71826055,0.725,0.08510638,-882.14166,131.93953,0.003789086,0.007716894,0.019948006,0.0,0.0,0.0
1061.0262,424.64954,71826071,0.71250004,0.06382979,-710.4982,384.1692,0.003789086,0.007716894,0.019948006,0.0,0.0,0.0
1052.1927,431.1936,71826088,0.725,0.08510638,-583.26697,536.7718,0.003789086,0.007716894,0.019948006,0.0,0.0,0.0
1045.5519,437.61462,71826105,0.71250004,0.10638297,-440.10248,558.35614,0.003789086,0.007716894,0.019948006,0.0,0.0,0.0
1037.958,449.54883,71826121,0.71250004,0.12765957,-339.10175,614.66626,0.003789086,0.007716894,0.019948006,0.0,0.0,0.0
1032.1626,462.20898,71826138,0.71250004,0.09574468,-286.68158,761.26025,0.003789086,0.007716894,0.019948006,0.0,0.0,0.0
1026.2982,477.34216,71826155,0.71250004,0.08510638,-290.44855,952.91974,0.003789086,0.007716894,0.019948006,0.0,0.0,0.0
1022.6427,490.34204,71826172,0.71250004,0.08510638,-269.28302,1031.4727,0.003789086,0.007716894,0.019948006,0.0,0.0,0.0
1020.56067,501.44495,71826188,0.71250004,0.12765957,-123.792114,836.4928,0.003789086,0.007716894,0.019948006,0.0,0.0,0.0
1019.6459,512.52893,71826205,0.71250004,0.10638297,-1.0245306,644.2958,0.003789086,0.007716894,0.019948006,0.0,0.0,0.0
1019.88794,526.24426,71826222,0.7,0.07446808,76.43626,619.1175,0.003789086,0.007716894,0.019948006,0.0,0.0,0.0
1023.2776,542.3353,71826238,0.7,0.09574468,187.07635,823.15906,0.003789086,0.007716894,0.019948006,0.0,0.0,0.0
1027.4349,553.7468,71826255,0.6875,0.11702127,311.76373,926.4521,0.003789086,0.007716894,0.019948006,0.0,0.0,0.0
1032.564,564.7986,71826272,0.71250004,0.12765957,407.53888,801.799,0.003789086,0.007716894,0.019948006,0.0,0.0,0.0
1036.2668,570.46387,71826289,0.725,0.08510638,374.46448,474.00415,0.003789086,0.007716894,0.019948006,0.0,0.0,0.0
1044.2864,577.91565,71826305,0.7,0.08510638,403.46112,258.12073,0.003789086,0.007716894,0.019948006,0.0,0.0,0.0
1052.6224,582.23584,71826322,0.71250004,0.08510638,491.89365,183.7017,0.003789086,0.007716894,0.019948006,0.0,0.0,0.0
1062.0773,582.7345,71826339,0.71250004,0.08510638,612.49585,58.128586,0.003789086,0.007716894,0.019948006,0.0,0.0,0.0
1071.132,578.17896,71826355,0.7,0.11702127,668.64655,-200.63194,0.003789086,0.007716894,0.019948006,0.0,0.0,0.0
1079.6945,570.9193,71826372,0.6875,0.12765957,595.67944,-541.5634,0.003789086,0.007716894,0.019948006,0.0,0.0,0.0
1090.0544,559.8269,71826389,0.6875,0.08510638,581.75696,-798.28906,0.003789086,0.007716894,0.019948006,0.0,0.0,0.0
1100.1064,545.4408,71826406,0.6875,0.06382979,610.0375,-996.6493,0.003789086,0.007716894,0.019948006,0.0,0.0,0.0
1107.9045,530.07153,71826422,0.7,0.12765957,567.74615,-1112.7452,0.003789086,0.007716894,0.019948006,0.0,0.0,0.0
1118.3162,504.99646,71826439,0.6875,0.08510638,561.3793,-1408.4626,0.003789086,0.007716894,0.019948006,0.0,0.0,0.0
1122.3955,484.5072,71826456,0.6875,0.07446808,421.1871,-1573.6934,0.003789086,0.007716894,0.019948006,0.0,0.0,0.0
1123.1122,467.78845,71826472,0.6875,0.12765957,144.88754,-1424.7523,0.019031268,0.0061735213,-4.1007996E-5,0.0,0.0,0.0
1120.5831,454.66614,71826489,0.7,0.08510638,-182.0284,-991.453,0.019031268,0.0061735213,-4.1007996E-5,0.0,0.0,0.0
1115.3599,443.67517,71826506,0.6875,0.06382979,-459.64456,-596.93854,0.019031268,0.0061735213,-4.1007996E-5,0.0,0.0,0.0
1110.4681,437.1405,71826523,0.7,0.08510638,-528.0854,-285.13416,0.019031268,0.0061735213,-4.1007996E-5,0.0,0.0,0.0
1101.953,428.87598,71826539,0.7,0.09574468,-571.1448,-246.98013,0.019031268,0.0061735213,-4.1007996E-5,0.0,0.0,0.0
1093.027,421.38684,71826556,0.7,0.09574468,-629.4754,-272.2339,0.019031268,0.0061735213,-4.1007996E-5,0.0,0.0,0.0
1087.4062,418.88928,71826573,0.7,0.09574468,-567.6867,-224.48868,0.019031268,0.0061735213,-4.1007996E-5,0.0,0.0,0.0
1080.1619,418.79773,71826589,0.71250004,0.08510638,-468.43875,-79.544655,0.019031268,0.0061735213,-4.1007996E-5,0.0,0.0,0.0
1072.6237,420.64734,71826606,0.71250004,0.08510638,-391.41754,212.22858,0.019031268,0.0061735213,-4.1007996E-5,0.0,0.0,0.0
1066.8308,423.41296,71826623,0.71250004,0.06382979,-368.7384,320.40692,0.019031268,0.0061735213,-4.1007996E-5,0.0,0.0,0.0
1058.8107,430.07812,71826639,0.71250004,0.08510638,-433.29657,443.30002,0.019031268,0.0061735213,-4.1007996E-5,0.0,0.0,0.0
1052.8168,438.47412,71826656,0.71250004,0.10638297,-388.02478,538.1567,0.019031268,0.0061735213,-4.1007996E-5,0.0,0.0,0.0
1048.325,450.4547,71826673,0.71250004,0.12765957,-321.3119,730.6551,0.019031268,0.0061735213,-4.1007996E-5,0.0,0.0,0.0
1048.6201,461.7234,71826690,0.725,0.09574468,-136.89085,877.5546,0.019031268,0.0061735213,-4.1007996E-5,0.0,0.0,0.0
1052.2076,472.75293,71826706,0.7,0.06382979,196.73056,836.7897,0.019031268,0.0061735213,-4.1007996E-5,0.0,0.0,0.0
1057.3243,481.78394,71826723,0.71250004,0.08510638,439.0895,723.66187,0.019031268,0.0061735213,-4.1007996E-5,0.0,0.0,0.0
1064.4205,490.44336,71826740,0.7,0.10638297,585.82214,518.8062,0.019031268,0.0061735213,-4.1007996E-5,0.0,0.0,0.0
1073.033,498.68604,71826756,0.7,0.12765957,628.10126,428.00705,0.019031268,0.0061735213,-4.1007996E-5,0.0,0.0,0.0
1085.025,504.82104,71826773,0.6875,0.12765957,716.3308,363.6489,0.019031268,0.0061735213,-4.1007996E-5,0.0,0.0,0.0
1096.574,507.60803,71826790,0.71250004,0.10638297,818.64984,233.46782,0.019031268,0.0061735213,-4.1007996E-5,0.0,0.0,0.0
1106.92,508.10022,71826807,0.71250004,0.10638297,823.72473,48.84072,0.019031268,0.0061735213,-4.1007996E-5,0.0,0.0,0.0
1116.3641,508.10022,71826823,0.6875,0.12765957,684.6748,-141.62434,0.019031268,0.0061735213,-4.1007996E-5,0.0,0.0,0.0
1124.3516,506.60315,71826840,0.6875,0.11702127,500.80026,-202.34264,0.019031268,0.0061735213,-4.1007996E-5,0.0,0.0,0.0
1131.0616,504.4436,71826857,0.6875,0.11702127,353.4987,-202.47678,0.019031268,0.0061735213,-4.1007996E-5,0.0,0.0,0.0
1138.6561,500.37085,71826873,0.6875,0.09574468,335.39624,-260.1624,0.019031268,0.0061735213,-4.1007996E-5,0.0,0.0,0.0
1146.2704,495.8839,71826890,0.675,0.08510638,374.90887,-315.90338,0.019031268,0.0061735213,-4.1007996E-5,0.0,0.0,0.0
1153.6378,489.40564,71826907,0.6875,0.06382979,432.52795,-403.70773,0.019031268,0.0061735213,-4.1007996E-5,0.0,0.0,0.0
1162.8997,480.26013,71826924,0.6875,0.08510638,506.15393,-533.9389,0.019031268,0.0061735213,-4.1007996E-5,0.0,0.0,0.0
1172.357,468.99316,71826940,0.675,0.12765957,570.8045,-697.53973,0.019031268,0.0061735213,-4.1007996E-5,0.0,0.0,0.0
1178.2809,460.922,71826957,0.6875,0.11702127,522.86523,-722.06775,0.019031268,0.0061735213,-4.1007996E-5,0.0,0.0,0.0
1181.6595,453.44836,71826974,0.675,0.09574468,327.52667,-597.2079,0.019031268,0.0061735213,-4.1007996E-5,0.0,0.0,0.0
1183.2957,448.73743,71826990,0.675,0.09574468,95.008354,-380.05576,0.019031268,0.0061735213,-4.1007996E-5,0.0,0.0,0.0
1184.3308,445.05737,71827007,0.6875,0.09574468,-78.625336,-165.07565,-0.016774986,0.020938814,0.015966415,0.0,0.0,0.0
1184.5922,442.73755,71827024,0.7,0.09574468,-87.14963,-83.78242,-0.016774986,0.020938814,0.015966415,0.0,0.0,0.0
1184.5922,441.46252,71827041,0.7,0.08510638,-67.86432,-14.911461,-0.016774986,0.020938814,0.015966415,0.0,0.0,0.0
1184.5922,442.22864,71827057,0.71250004,0.09574468,-54.64726,71.560875,-0.016774986,0.020938814,0.015966415,0.0,0.0,0.0
1184.5922,449.2323,71827074,0.7,0.12765957,-34.803867,279.01874,-0.016774986,0.020938814,0.015966415,0.0,0.0,0.0
1186.4111,469.17957,71827091,0.6875,0.09574468,24.04636,820.6035,-0.016774986,0.020938814,0.015966415,0.0,0.0,0.0
1190.0137,495.21753,71827107,0.6875,0.09574468,158.73712,1646.6107,-0.016774986,0.020938814,0.015966415,0.0,0.0,0.0
1197.2882,521.2063,71827124,0.6625,0.07446808,371.20004,2074.6326,-0.016774986,0.020938814,0.015966415,0.0,0.0,0.0
1209.1056,550.1505,71827141,0.6875,0.10638297,674.30927,2197.4116,-0.016774986,0.020938814,0.015966415,0.0,0.0,0.0
1221.7034,576.1781,71827158,0.675,0.06382979,905.6393,1954.701,-0.016774986,0.020938814,0.015966415,0.0,0.0,0.0
1228.6215,593.9569,71827174,0.675,0.06382979,854.45044,1470.6136,-0.016774986,0.020938814,0.015966415,0.0,0.0,0.0
1234.1627,610.32544,71827191,0.6875,0.12765957,545.6685,1016.2802,-0.016774986,0.020938814,0.015966415,0.0,0.0,0.0
1235.5757,619.85144,71827208,0.6875,0.10638297,165.68,554.88385,-0.016774986,0.020938814,0.015966415,0.0,0.0,0.0
1233.9913,626.7683,71827224,0.6875,0.08510638,-175.86311,240.35347,-0.016774986,0.020938814,0.015966415,0.0,0.0,0.0
1229.7875,632.74854,71827241,0.6875,0.06382979,-355.3007,112.69608,-0.016774986,0.020938814,0.015966415,0.0,0.0,0.0
1184.3634,668.50806,71827258,0.6375,0.09574468,-1496.6095,860.73,-0.016774986,0.020938814,0.015966415,0.0,0.0,0.0
1128.4344,696.8761,71827274,0.375,0.08510638,-3274.2532,1889.1471,-0.016774986,0.020938814,0.015966415,0.0,0.0,0.0
1123.612,698.23987,71827276,0.1875,0.053191487,-3642.5525,2081.8538,-0.016774986,0.020938814,0.015966415,0.0,0.0,0.0
1123.612,698.23987,71827284,0.1875,0.053191487,-3642.5525,2081.8538,-0.016774986,0.020938814,0.015966415,0.0,0.0,0.0
1027.1434,709.7904,71827308,0.58750004,0.08510638,0.0,0.0,-0.016774986,0.020938814,0.015966415,0.0,0.0,0.0
1007.6499,709.7904,71827321,0.675,0.06382979,-1589.5111,-0.16339976,-0.016774986,0.020938814,0.015966415,0.0,0.0,0.0
1007.15,706.23645,71827341,0.2,0.08510638,846.95624,-279.7663,-0.016774986,0.020938814,0.015966415,0.0,0.0,0.0
1007.15,706.23645,71827348,0.2,0.08510638,846.95624,-279.7663,-0.016774986,0.020938814,0.015966415,0.0,0.0,0.0
953.6674,342.83862,71827947,0.725,0.10638297,0.0,0.0,0.018580012,0.032751054,0.01277256,0.0,0.0,0.0
953.6674,342.83862,71827971,0.7375,0.10638297,-0.004846698,-0.001972991,0.018580012,0.032751054,0.01277256,0.0,0.0,0.0
1013.2123,330.95166,71828010,0.725,0.08510638,3147.1787,-639.6465,0.018580012,0.032751054,0.01277256,0.0,0.0,0.0
1074.676,321.73987,71828026,0.71250004,0.08510638,4547.165,-790.954,0.018580012,0.032751054,0.01277256,0.0,0.0,0.0
1142.6233,317.07202,71828043,0.65000004,0.08510638,5298.8555,-677.76886,0.018580012,0.032751054,0.01277256,0.0,0.0,0.0
1153.6023,317.07202,71828046,0.58750004,0.08510638,5280.829,-595.7987,0.018580012,0.032751054,0.01277256,0.0,0.0,0.0
1153.6023,317.07202,71828053,0.58750004,0.08510638,5280.829,-595.7987,0.018580012,0.032751054,0.01277256,0.0,0.0,0.0
