x,y,timestamp,pressure,fingerarea,velocityx,velocityy,accelx,accely,accelz,gyrox,gyroy,gyroz
259.39343,206.00916,12991394,0.6,0.09574468,0.0,0.0,0.023261428,-0.008435786,-0.01262188,0.0,0.0,0.0
259.39343,206.00916,12991424,0.6125,0.09574468,-0.010297952,-0.0073448983,0.023261428,-0.008435786,-0.01262188,0.0,0.0,0.0
259.39343,206.00916,12991434,0.6625,0.09574468,-0.023451783,-0.019641202,0.023261428,-0.008435786,-0.01262188,0.0,0.0,0.0
259.39343,206.00916,12991457,0.675,0.08510638,0.007915868,0.0062692533,0.023261428,-0.008435786,-0.01262188,0.0,0.0,0.0
259.39343,206.00916,12991474,0.725,0.08510638,0.00537702,0.0029975811,0.023261428,-0.008435786,-0.01262188,0.0,0.0,0.0
259.39343,206.00916,12991491,0.7375,0.08510638,-6.3548953E-4,-5.0843187E-4,0.023261428,-0.008435786,-0.01262188,0.0,0.0,0.0
259.39343,206.00916,12991508,0.7625,0.08510638,-0.007341365,-0.0064835018,0.023261428,-0.008435786,-0.01262188,0.0,0.0,0.0
259.39343,206.00916,12991524,0.75,0.08510638,0.0075547434,0.006443876,0.023261428,-0.008435786,-0.01262188,0.0,0.0,0.0
259.39343,206.00916,12991541,0.7625,0.08510638,0.005965368,0.003955221,0.023261428,-0.008435786,-0.01262188,0.0,0.0,0.0
253.29694,211.8147,12991558,0.8,0.08510638,-129.26169,123.098076,0.023261428,-0.008435786,-0.01262188,0.0,0.0,0.0
238.8281,225.64148,12991574,0.77500004,0.10638297,-739.2857,700.4838,0.023261428,-0.008435786,-0.01262188,0.0,0.0,0.0
231.60873,235.30005,12991591,0.8,0.10638297,-890.1626,921.7385,0.023261428,-0.008435786,-0.01262188,0.0,0.0,0.0
224.81424,247.66016,12991608,0.8,0.08510638,-695.9314,952.8173,0.023261428,-0.008435786,-0.01262188,0.0,0.0,0.0
217.7828,264.20398,12991625,0.7875,0.08510638,-460.5111,982.64246,0.023261428,-0.008435786,-0.01262188,0.0,0.0,0.0
211.80276,278.0265,12991641,0.77500004,0.11702127,-202.80301,938.21716,0.023261428,-0.008435786,-0.01262188,0.0,0.0,0.0
206.5795,288.2798,12991658,0.8,0.12765957,-312.8625,922.39386,0.023261428,-0.008435786,-0.01262188,0.0,0.0,0.0
200.86847,299.38025,12991675,0.8,0.08510638,-292.3037,670.2252,0.023261428,-0.008435786,-0.01262188,0.0,0.0,0.0
194.60846,311.48694,12991691,0.8125,0.08510638,-320.4454,576.3767,0.023261428,-0.008435786,-0.01262188,0.0,0.0,0.0
187.29634,325.2827,12991708,0.8125,0.08510638,-388.75415,677.2774,0.023261428,-0.008435786,-0.01262188,0.0,0.0,0.0
181.2972,333.7279,12991725,0.8,0.10638297,-433.2006,725.9505,0.023261428,-0.008435786,-0.01262188,0.0,0.0,0.0
173.22806,343.46484,12991742,0.8125,0.12765957,-462.3133,608.61536,0.023261428,-0.008435786,-0.01262188,0.0,0.0,0.0
165.96875,352.682,12991758,0.8125,0.08510638,-458.8703,481.24353,0.023261428,-0.008435786,-0.01262188,0.0,0.0,0.0
157.72475,363.65173,12991775,0.8125,0.09574468,-473.81436,481.40024,0.023261428,-0.008435786,-0.01262188,0.0,0.0,0.0
147.76749,376.62366,12991792,0.825,0.08510638,-559.80664,710.7366,0.023261428,-0.008435786,-0.01262188,0.0,0.0,0.0
134.17894,388.39514,12991808,0.8,0.09574468,-731.8976,838.2107,0.002609145,0.009251371,-0.04209709,0.0,0.0,0.0
121.022995,395.44482,12991825,0.8125,0.10638297,-897.40466,685.9235,0.002609145,0.009251371,-0.04209709,0.0,0.0,0.0
109.77959,398.64893,12991842,0.825,0.12765957,-893.5065,326.65256,0.002609145,0.009251371,-0.04209709,0.0,0.0,0.0
101.830444,399.70276,12991859,0.8125,0.12765957,-678.7079,-28.123379,0.002609145,0.009251371,-0.04209709,0.0,0.0,0.0
96.00397,397.94617,12991875,0.825,0.12765957,-379.12704,-262.1682,0.002609145,0.009251371,-0.04209709,0.0,0.0,0.0
90.800156,393.32532,12991892,0.83750004,0.08510638,-183.2447,-384.57367,0.002609145,0.009251371,-0.04209709,0.0,0.0,0.0
85.09625,381.05225,12991909,0.825,0.08510638,-173.53146,-654.7384,0.002609145,0.009251371,-0.04209709,0.0,0.0,0.0
83.95053,367.22388,12991925,0.83750004,0.10638297,-125.20209,-963.8486,0.002609145,0.009251371,-0.04209709,0.0,0.0,0.0
87.03673,357.52734,12991942,0.8125,0.12765957,78.73916,-1019.5206,0.002609145,0.009251371,-0.04209709,0.0,0.0,0.0
90.386826,350.38965,12991959,0.825,0.11702127,305.2712,-782.5348,0.002609145,0.009251371,-0.04209709,0.0,0.0,0.0
97.489136,342.11365,12991975,0.83750004,0.08510638,523.15,-400.25974,0.002609145,0.009251371,-0.04209709,0.0,0.0,0.0
108.94586,335.1825,12991992,0.825,0.08510638,694.43256,-300.27023,0.002609145,0.009251371,-0.04209709,0.0,0.0,0.0
121.80597,331.63257,12992009,0.83750004,0.08510638,888.4491,-265.0292,0.002609145,0.009251371,-0.04209709,0.0,0.0,0.0
132.57387,331.2881,12992026,0.825,0.08510638,950.3726,-87.95746,0.002609145,0.009251371,-0.04209709,0.0,0.0,0.0
141.49046,333.5354,12992042,0.825,0.09574468,772.0224,170.20287,0.002609145,0.009251371,-0.04209709,0.0,0.0,0.0
149.3105,337.23267,12992059,0.825,0.10638297,499.51242,375.80112,0.002609145,0.009251371,-0.04209709,0.0,0.0,0.0
158.60884,340.93628,12992076,0.8125,0.12765957,391.55905,415.09595,0.002609145,0.009251371,-0.04209709,0.0,0.0,0.0
169.49641,346.42834,12992092,0.825,0.10638297,518.0434,395.649,0.002609145,0.009251371,-0.04209709,0.0,0.0,0.0
180.40587,353.84656,12992109,0.83750004,0.10638297,660.61316,449.06357,0.002609145,0.009251371,-0.04209709,0.0,0.0,0.0
190.11984,361.234,12992126,0.8125,0.08510638,701.27826,504.9927,0.002609145,0.009251371,-0.04209709,0.0,0.0,0.0
199.0379,369.60474,12992143,0.825,0.09574468,616.2651,565.48914,0.002609145,0.009251371,-0.04209709,0.0,0.0,0.0
207.5065,379.26306,12992159,0.8125,0.08510638,496.02792,599.40216,0.002609145,0.009251371,-0.04209709,0.0,0.0,0.0
215.7366,386.04272,12992176,0.8125,0.09574468,433.42715,541.97925,0.002609145,0.009251371,-0.04209709,0.0,0.0,0.0
224.63113,393.02112,12992193,0.825,0.10638297,489.91055,465.3459,0.002609145,0.009251371,-0.04209709,0.0,0.0,0.0
231.89267,398.5531,12992209,0.8125,0.10638297,492.18594,353.1152,0.002609145,0.009251371,-0.04209709,0.0,0.0,0.0
238.32208,403.5067,12992226,0.825,0.10638297,419.49783,265.3818,0.002609145,0.009251371,-0.04209709,0.0,0.0,0.0
243.3377,407.20093,12992243,0.83750004,0.10638297,305.63025,194.22646,0.002609145,0.009251371,-0.04209709,0.0,0.0,0.0
247.47556,409.28894,12992260,0.825,0.10638297,197.14072,109.7641,0.002609145,0.009251371,-0.04209709,0.0,0.0,0.0
251.21347,411.14526,12992276,0.8125,0.09574468,160.96495,50.779617,0.002609145,0.009251371,-0.04209709,0.0,0.0,0.0
254.3559,413.0072,12992293,0.825,0.09574468,134.46701,25.575907,0.002609145,0.009251371,-0.04209709,0.0,0.0,0.0
257.99176,413.91882,12992310,0.8125,0.09574468,158.22557,34.67219,0.002609145,0.009251371,-0.04209709,0.0,0.0,0.0
261.68445,413.91882,12992326,0.83750004,0.10638297,188.347,5.466816,0.002609145,0.009251371,-0.04209709,0.0,0.0,0.0
265.82516,413.91882,12992343,0.83750004,0.10638297,227.90065,-27.141918,-0.029912684,-0.024598897,0.04632187,0.0,0.0,0.0
269.31076,411.8927,12992360,0.8125,0.10638297,243.0475,-104.46583,-0.029912684,-0.024598897,0.04632187,0.0,0.0,0.0
272.2455,410.36487,12992377,0.825,0.12765957,217.53624,-151.34047,-0.029912684,-0.024598897,0.04632187,0.0,0.0,0.0
274.34186,409.0736,12992393,0.825,0.12765957,142.87335,-130.49367,-0.029912684,-0.024598897,0.04632187,0.0,0.0,0.0
276.6542,408.1145,12992410,0.825,0.10638297,97.78335,-97.30938,-0.029912684,-0.024598897,0.04632187,0.0,0.0,0.0
278.19138,406.8108,12992427,0.825,0.10638297,78.11238,-65.97345,-0.029912684,-0.024598897,0.04632187,0.0,0.0,0.0
279.73096,405.3108,12992443,0.825,0.10638297,66.80551,-66.589745,-0.029912684,-0.024598897,0.04632187,0.0,0.0,0.0
281.2687,403.46582,12992460,0.825,0.10638297,71.19919,-99.16612,-0.029912684,-0.024598897,0.04632187,0.0,0.0,0.0
282.30325,402.3683,12992477,0.8125,0.10638297,58.42302,-103.33947,-0.029912684,-0.024598897,0.04632187,0.0,0.0,0.0
283.8479,400.65796,12992493,0.83750004,0.12765957,66.74541,-96.634285,-0.029912684,-0.024598897,0.04632187,0.0,0.0,0.0
284.89227,399.69006,12992510,0.83750004,0.10638297,65.63584,-72.29561,-0.029912684,-0.024598897,0.04632187,0.0,0.0,0.0
286.43103,397.84338,12992527,0.825,0.09574468,75.8917,-76.12618,-0.029912684,-0.024598897,0.04632187,0.0,0.0,0.0
288.04663,396.0044,12992544,0.83750004,0.09574468,88.27322,-105.69682,-0.029912684,-0.024598897,0.04632187,0.0,0.0,0.0
290.24673,393.9414,12992560,0.825,0.08510638,114.663315,-129.10625,-0.029912684,-0.024598897,0.04632187,0.0,0.0,0.0
292.69073,390.27014,12992577,0.8125,0.08510638,150.98463,-180.36023,-0.029912684,-0.024598897,0.04632187,0.0,0.0,0.0
294.73672,386.6333,12992594,0.83750004,0.08510638,159.9136,-236.90215,-0.029912684,-0.024598897,0.04632187,0.0,0.0,0.0
296.62277,382.85156,12992610,0.83750004,0.08510638,140.58995,-270.46426,-0.029912684,-0.024598897,0.04632187,0.0,0.0,0.0
298.16153,378.26953,12992627,0.825,0.08510638,98.059784,-291.4532,-0.029912684,-0.024598897,0.04632187,0.0,0.0,0.0
300.0269,373.98938,12992644,0.825,0.08510638,83.05745,-278.54108,-0.029912684,-0.024598897,0.04632187,0.0,0.0,0.0
302.07388,368.53137,12992661,0.825,0.10638297,103.75455,-312.675,-0.029912684,-0.024598897,0.04632187,0.0,0.0,0.0
304.16852,364.5365,12992677,0.825,0.10638297,123.030624,-310.37036,-0.029912684,-0.024598897,0.04632187,0.0,0.0,0.0
306.8173,358.1588,12992694,0.825,0.12765957,158.61656,-334.59006,-0.029912684,-0.024598897,0.04632187,0.0,0.0,0.0
308.3428,353.59302,12992711,0.8125,0.12765957,137.19359,-323.736,-0.029912684,-0.024598897,0.04632187,0.0,0.0,0.0
310.42545,348.92847,12992727,0.8125,0.11702127,114.77406,-292.40558,-0.029912684,-0.024598897,0.04632187,0.0,0.0,0.0
312.50623,343.38037,12992744,0.8125,0.09574468,111.71376,-304.12244,-0.029912684,-0.024598897,0.04632187,0.0,0.0,0.0
316.27914,337.8573,12992761,0.8125,0.08510638,160.58727,-322.17493,-0.029912684,-0.024598897,0.04632187,0.0,0.0,0.0
320.6709,332.12036,12992778,0.8125,0.08510638,248.65834,-345.61942,-0.029912684,-0.024598897,0.04632187,0.0,0.0,0.0
326.34283,325.81006,12992794,0.8125,0.08510638,345.87775,-383.84454,-0.029912684,-0.024598897,0.04632187,0.0,0.0,0.0
332.95206,320.30933,12992811,0.8125,0.08510638,428.8148,-360.76843,-0.029912684,-0.024598897,0.04632187,0.0,0.0,0.0
340.47064,316.13745,12992828,0.825,0.08510638,484.2769,-311.22406,-0.029912684,-0.024598897,0.04632187,0.0,0.0,0.0
347.7753,313.87097,12992844,0.8125,0.08510638,507.4565,-187.9314,-0.029912684,-0.024598897,0.04632187,0.0,0.0,0.0
354.74512,313.51794,12992861,0.8,0.08510638,486.67468,-24.348259,-0.029912684,-0.024598897,0.04632187,0.0,0.0,0.0
361.12488,313.51794,12992878,0.825,0.09574468,429.68073,90.12003,0.008069854,-0.0036791265,0.005057335,0.0,0.0,0.0
367.71634,315.85767,12992895,0.825,0.09574468,367.0561,174.12383,0.008069854,-0.0036791265,0.005057335,0.0,0.0,0.0
374.50864,318.67273,12992911,0.8,0.08510638,364.81442,229.28111,0.008069854,-0.0036791265,0.005057335,0.0,0.0,0.0
382.3462,322.3999,12992928,0.8125,0.08510638,414.65182,281.25436,0.008069854,-0.0036791265,0.005057335,0.0,0.0,0.0
390.6998,326.11206,12992945,0.8,0.08510638,499.18503,301.11542,0.008069854,-0.0036791265,0.005057335,0.0,0.0,0.0
396.25824,329.80212,12992961,0.7875,0.08510638,469.40433,285.04288,0.008069854,-0.0036791265,0.005057335,0.0,0.0,0.0
401.45886,331.5055,12992978,0.825,0.10638297,362.24762,192.26263,0.008069854,-0.0036791265,0.005057335,0.0,0.0,0.0
404.88873,333.3866,12992995,0.8125,0.10638297,220.93819,111.294495,0.008069854,-0.0036791265,0.005057335,0.0,0.0,0.0
406.74606,333.06506,12993012,0.7875,0.10638297,82.32847,5.907712,0.008069854,-0.0036791265,0.005057335,0.0,0.0,0.0
408.08438,333.06506,12993028,0.8,0.10638297,17.927465,-63.21308,0.008069854,-0.0036791265,0.005057335,0.0,0.0,0.0
409.09467,333.06506,12993044,0.8,0.10638297,-13.630687,-70.55332,0.008069854,-0.0036791265,0.005057335,0.0,0.0,0.0
409.59454,333.06506,12993077,0.8125,0.08510638,-32.419308,-20.585947,0.008069854,-0.0036791265,0.005057335,0.0,0.0,0.0
409.3446,333.06506,12993095,0.7875,0.08510638,-33.28304,0.011843814,0.008069854,-0.0036791265,0.005057335,0.0,0.0,0.0
409.3446,333.06506,12993112,0.7875,0.08510638,-20.26569,-0.02718222,0.008069854,-0.0036791265,0.005057335,0.0,0.0,0.0
408.3716,332.22388,12993128,0.8,0.08510638,-35.395836,-16.344685,0.008069854,-0.0036791265,0.005057335,0.0,0.0,0.0
407.32974,330.37195,12993145,0.7875,0.08510638,-81.718254,-102.46804,0.008069854,-0.0036791265,0.005057335,0.0,0.0,0.0
404.66348,328.5144,12993162,0.8,0.08510638,-134.2663,-137.76147,0.008069854,-0.0036791265,0.005057335,0.0,0.0,0.0
399.85278,325.60522,12993179,0.8,0.08510638,-259.1613,-188.02559,0.008069854,-0.0036791265,0.005057335,0.0,0.0,0.0
391.65982,321.93298,12993195,0.8,0.08510638,-432.29843,-235.05307,0.008069854,-0.0036791265,0.005057335,0.0,0.0,0.0
382.57346,320.27454,12993212,0.8,0.09574468,-609.76086,-203.84435,0.008069854,-0.0036791265,0.005057335,0.0,0.0,0.0
374.716,318.46875,12993229,0.8125,0.09574468,-672.79803,-151.57253,0.008069854,-0.0036791265,0.005057335,0.0,0.0,0.0
363.8101,317.96057,12993245,0.8,0.08510638,-678.3641,-49.430866,0.008069854,-0.0036791265,0.005057335,0.0,0.0,0.0
353.4136,318.48462,12993262,0.8125,0.08510638,-678.4457,42.465256,0.008069854,-0.0036791265,0.005057335,0.0,0.0,0.0
343.03384,321.8103,12993279,0.825,0.08510638,-678.0936,155.80647,0.008069854,-0.0036791265,0.005057335,0.0,0.0,0.0
334.24323,326.1798,12993296,0.825,0.08510638,-630.4137,303.47205,0.008069854,-0.0036791265,0.005057335,0.0,0.0,0.0
326.5042,331.6947,12993312,0.825,0.11702127,-496.47205,413.60944,0.008069854,-0.0036791265,0.005057335,0.0,0.0,0.0
321.13995,337.22327,12993329,0.825,0.12765957,-344.72003,442.1536,0.008069854,-0.0036791265,0.005057335,0.0,0.0,0.0
314.91187,348.0918,12993346,0.825,0.12765957,-263.1959,542.89026,0.008069854,-0.0036791265,0.005057335,0.0,0.0,0.0
311.2887,360.03235,12993362,0.83750004,0.09574468,-204.3996,742.36,0.008069854,-0.0036791265,0.005057335,0.0,0.0,0.0
310.87665,372.08337,12993379,0.8125,0.08510638,-77.47949,868.31006,0.008069854,-0.0036791265,0.005057335,0.0,0.0,0.0
312.60394,381.16797,12993396,0.8,0.09574468,108.97899,803.1576,0.008069854,-0.0036791265,0.005057335,0.0,0.0,0.0
315.33496,388.35315,12993413,0.8125,0.11702127,270.8606,571.7897,0.03845588,-0.01894331,0.036046028,0.0,0.0,0.0
318.7809,392.02637,12993429,0.8125,0.12765957,343.97308,256.5216,0.03845588,-0.01894331,0.036046028,0.0,0.0,0.0
326.70413,397.37,12993446,0.8,0.10638297,432.98422,137.83467,0.03845588,-0.01894331,0.036046028,0.0,0.0,0.0
335.31793,401.55847,12993463,0.8,0.10638297,581.1533,166.74933,0.03845588,-0.01894331,0.036046028,0.0,0.0,0.0
343.53955,403.8086,12993479,0.8125,0.10638297,666.8035,157.93529,0.03845588,-0.01894331,0.036046028,0.0,0.0,0.0
351.68063,403.51953,12993496,0.7875,0.12765957,625.21924,51.40683,0.03845588,-0.01894331,0.036046028,0.0,0.0,0.0
358.7039,401.67444,12993513,0.77500004,0.12765957,488.87082,-166.50838,0.03845588,-0.01894331,0.036046028,0.0,0.0,0.0
364.4912,398.18738,12993530,0.7875,0.11702127,370.84622,-293.64655,0.03845588,-0.01894331,0.036046028,0.0,0.0,0.0
370.18524,391.91016,12993546,0.7875,0.08510638,297.84323,-405.07327,0.03845588,-0.01894331,0.036046028,0.0,0.0,0.0
376.41818,381.82104,12993563,0.7875,0.08510638,299.37256,-591.35693,0.03845588,-0.01894331,0.036046028,0.0,0.0,0.0
382.60202,371.7173,12993580,0.7875,0.09574468,333.78732,-744.5959,0.03845588,-0.01894331,0.036046028,0.0,0.0,0.0
387.29428,362.4878,12993596,0.7875,0.10638297,329.91968,-769.49115,0.03845588,-0.01894331,0.036046028,0.0,0.0,0.0
392.65332,350.0266,12993613,0.7875,0.09574468,313.35858,-774.6171,0.03845588,-0.01894331,0.036046028,0.0,0.0,0.0
395.9263,340.2401,12993630,0.77500004,0.08510638,230.93973,-693.96106,0.03845588,-0.01894331,0.036046028,0.0,0.0,0.0
396.43887,332.58496,12993647,0.77500004,0.08510638,86.80131,-561.4478,0.03845588,-0.01894331,0.036046028,0.0,0.0,0.0
396.84866,326.87378,12993663,0.8,0.08510638,-32.084118,-402.1987,0.03845588,-0.01894331,0.036046028,0.0,0.0,0.0
396.84866,324.6117,12993680,0.8,0.08510638,-105.84517,-143.01268,0.03845588,-0.01894331,0.036046028,0.0,0.0,0.0
396.047,323.2915,12993697,0.7875,0.08510638,-94.434105,14.82976,0.03845588,-0.01894331,0.036046028,0.0,0.0,0.0
394.98883,323.93213,12993713,0.8,0.08510638,-96.21199,143.98419,0.03845588,-0.01894331,0.036046028,0.0,0.0,0.0
392.65482,328.78894,12993730,0.8125,0.08510638,-131.04027,281.77982,0.03845588,-0.01894331,0.036046028,0.0,0.0,0.0
390.47025,336.9768,12993747,0.8,0.10638297,-168.91888,484.83984,0.03845588,-0.01894331,0.036046028,0.0,0.0,0.0
389.85095,346.27734,12993763,0.8125,0.12765957,-147.3986,708.82605,0.03845588,-0.01894331,0.036046028,0.0,0.0,0.0
390.87912,353.70325,12993780,0.8,0.08510638,-13.49098,718.8857,0.03845588,-0.01894331,0.036046028,0.0,0.0,0.0
393.48755,361.98682,12993797,0.8,0.08510638,143.34097,623.01215,0.03845588,-0.01894331,0.036046028,0.0,0.0,0.0
396.56204,367.20728,12993814,0.8,0.08510638,264.1695,432.6017,0.03845588,-0.01894331,0.036046028,0.0,0.0,0.0
402.04895,372.9076,12993830,0.7875,0.08510638,343.34332,297.71936,0.03845588,-0.01894331,0.036046028,0.0,0.0,0.0
408.02277,377.29932,12993847,0.7875,0.08510638,405.0656,227.5728,0.03845588,-0.01894331,0.036046028,0.0,0.0,0.0
415.43967,380.56116,12993864,0.77500004,0.09574468,482.70065,161.81613,0.03845588,-0.01894331,0.036046028,0.0,0.0,0.0
422.97696,381.93274,12993880,0.77500004,0.09574468,532.86646,99.03934,0.03845588,-0.01894331,0.036046028,0.0,0.0,0.0
430.79492,381.38696,12993897,0.77500004,0.08510638,535.0654,-27.553099,0.03845588,-0.01894331,0.036046028,0.0,0.0,0.0
439.43097,377.43323,12993914,0.77500004,0.08510638,529.49536,-215.68347,0.03845588,-0.01894331,0.036046028,0.0,0.0,0.0
447.39795,372.78174,12993931,0.7625,0.08510638,520.7495,-377.69894,0.03845588,-0.01894331,0.036046028,0.0,0.0,0.0
454.30212,368.0293,12993947,0.77500004,0.08510638,476.96658,-448.94156,0.014764711,0.04884535,0.044836998,0.0,0.0,0.0
460.12006,362.60754,12993964,0.7625,0.10638297,386.99866,-425.8346,0.014764711,0.04884535,0.044836998,0.0,0.0,0.0
466.34167,357.03796,12993981,0.75,0.12765957,325.33475,-379.85593,0.014764711,0.04884535,0.044836998,0.0,0.0,0.0
471.5478,350.51746,12993997,0.7625,0.11702127,285.18732,-378.55283,0.014764711,0.04884535,0.044836998,0.0,0.0,0.0
477.83588,342.078,12994014,0.77500004,0.08510638,311.05032,-467.06342,0.014764711,0.04884535,0.044836998,0.0,0.0,0.0
484.65936,328.70728,12994031,0.77500004,0.08510638,367.69846,-683.0146,0.014764711,0.04884535,0.044836998,0.0,0.0,0.0
487.67596,322.65735,12994048,0.7625,0.08510638,328.18622,-725.6777,0.014764711,0.04884535,0.044836998,0.0,0.0,0.0
492.60876,312.6488,12994064,0.7625,0.10638297,259.94858,-651.3089,0.014764711,0.04884535,0.044836998,0.0,0.0,0.0
496.99554,303.42554,12994081,0.7375,0.10638297,206.09088,-526.9514,0.014764711,0.04884535,0.044836998,0.0,0.0,0.0
501.44055,295.52417,12994098,0.7625,0.09574468,226.59636,-465.6842,0.014764711,0.04884535,0.044836998,0.0,0.0,0.0
506.20813,287.61047,12994114,0.7625,0.08510638,269.3825,-468.93018,0.014764711,0.04884535,0.044836998,0.0,0.0,0.0
514.33575,271.3197,12994131,0.75,0.08510638,380.3607,-664.93823,0.014764711,0.04884535,0.044836998,0.0,0.0,0.0
519.4185,258.58264,12994148,0.75,0.10638297,424.5429,-856.3834,0.014764711,0.04884535,0.044836998,0.0,0.0,0.0
522.62335,248.31482,12994165,0.7625,0.12765957,346.85623,-913.5743,0.014764711,0.04884535,0.044836998,0.0,0.0,0.0
524.762,239.93225,12994181,0.7625,0.10638297,172.64177,-701.41864,0.014764711,0.04884535,0.044836998,0.0,0.0,0.0
526.32776,231.58679,12994198,0.7625,0.09574468,13.235118,-408.95178,0.014764711,0.04884535,0.044836998,0.0,0.0,0.0
527.86676,224.23596,12994215,0.7625,0.09574468,-12.108501,-311.9535,0.014764711,0.04884535,0.044836998,0.0,0.0,0.0
528.8997,214.94727,12994231,0.7625,0.09574468,20.075413,-424.07565,0.014764711,0.04884535,0.044836998,0.0,0.0,0.0
529.4366,207.08728,12994248,0.77500004,0.11702127,15.135798,-488.97723,0.014764711,0.04884535,0.044836998,0.0,0.0,0.0
529.80536,201.59253,12994265,0.7625,0.11702127,8.087433,-431.61194,0.014764711,0.04884535,0.044836998,0.0,0.0,0.0
529.30554,196.00781,12994282,0.77500004,0.12765957,-23.583649,-325.51453,0.014764711,0.04884535,0.044836998,0.0,0.0,0.0
528.55365,190.44873,12994298,0.7625,0.12765957,-56.277035,-240.8747,0.014764711,0.04884535,0.044836998,0.0,0.0,0.0
527.22864,184.92249,12994315,0.77500004,0.10638297,-92.64561,-266.76035,0.014764711,0.04884535,0.044836998,0.0,0.0,0.0
525.47363,181.42749,12994332,0.7875,0.08510638,-132.35681,-278.12183,0.014764711,0.04884535,0.044836998,0.0,0.0,0.0
523.237,178.08582,12994348,0.77500004,0.08510638,-142.39009,-190.01309,0.014764711,0.04884535,0.044836998,0.0,0.0,0.0
520.6088,174.3789,12994365,0.7875,0.08510638,-170.13802,-144.70401,0.014764711,0.04884535,0.044836998,0.0,0.0,0.0
517.0169,170.6532,12994382,0.77500004,0.08510638,-207.83281,-161.857,0.014764711,0.04884535,0.044836998,0.0,0.0,0.0
511.85815,166.94824,12994398,0.7875,0.08510638,-284.6121,-209.08769,0.014764711,0.04884535,0.044836998,0.0,0.0,0.0
506.64227,165.07727,12994415,0.8,0.08510638,-358.41446,-184.77893,0.014764711,0.04884535,0.044836998,0.0,0.0,0.0
501.3827,165.13794,12994432,0.8,0.08510638,-375.222,-52.755844,0.014764711,0.04884535,0.044836998,0.0,0.0,0.0
497.29785,165.13794,12994449,0.8,0.08510638,-331.57916,51.784714,0.014764711,0.04884535,0.044836998,0.0,0.0,0.0
492.89185,168.30762,12994465,0.8,0.11702127,-276.1709,173.14717,-0.0041882284,0.023076281,-0.012130737,0.0,0.0,0.0
489.7553,172.02466,12994482,0.8,0.12765957,-210.53323,279.51523,-0.0041882284,0.023076281,-0.012130737,0.0,0.0,0.0
485.42957,179.55444,12994499,0.7875,0.12765957,-196.79948,422.86325,-0.0041882284,0.023076281,-0.012130737,0.0,0.0,0.0
482.1853,188.72083,12994515,0.7875,0.11702127,-198.95424,606.1767,-0.0041882284,0.023076281,-0.012130737,0.0,0.0,0.0
479.52423,200.29651,12994532,0.8,0.09574468,-179.63042,771.2429,-0.0041882284,0.023076281,-0.012130737,0.0,0.0,0.0
477.98975,213.69897,12994549,0.7875,0.09574468,-117.632195,894.8815,-0.0041882284,0.023076281,-0.012130737,0.0,0.0,0.0
476.94666,225.12195,12994566,0.8,0.11702127,-34.19685,891.90155,-0.0041882284,0.023076281,-0.012130737,0.0,0.0,0.0
476.3228,235.38269,12994582,0.77500004,0.12765957,9.345989,750.7,-0.0041882284,0.023076281,-0.012130737,0.0,0.0,0.0
475.36475,246.36243,12994599,0.77500004,0.11702127,3.8967614,623.19476,-0.0041882284,0.023076281,-0.012130737,0.0,0.0,0.0
474.8233,259.43665,12994616,0.77500004,0.09574468,-19.857395,673.0365,-0.0041882284,0.023076281,-0.012130737,0.0,0.0,0.0
474.8233,271.40833,12994632,0.7875,0.11702127,-7.771198,746.2349,-0.0041882284,0.023076281,-0.012130737,0.0,0.0,0.0
474.23633,280.37402,12994649,0.77500004,0.12765957,-4.904382,713.8103,-0.0041882284,0.023076281,-0.012130737,0.0,0.0,0.0
474.32343,289.80725,12994666,0.7875,0.12765957,1.8976151,578.38824,-0.0041882284,0.023076281,-0.012130737,0.0,0.0,0.0
473.65167,299.05286,12994683,0.8,0.08510638,-6.888225,465.94275,-0.0041882284,0.023076281,-0.012130737,0.0,0.0,0.0
473.3238,310.406,12994699,0.77500004,0.09574468,-31.160355,518.20807,-0.0041882284,0.023076281,-0.012130737,0.0,0.0,0.0
473.3238,321.50916,12994716,0.77500004,0.08510638,-18.606815,675.71564,-0.0041882284,0.023076281,-0.012130737,0.0,0.0,0.0
473.3238,329.7798,12994733,0.7875,0.10638297,-0.3244279,656.9106,-0.0041882284,0.023076281,-0.012130737,0.0,0.0,0.0
473.3238,337.14917,12994749,0.77500004,0.12765957,14.003171,499.61572,-0.0041882284,0.023076281,-0.012130737,0.0,0.0,0.0
473.3238,343.85413,12994766,0.77500004,0.12765957,14.215375,350.44058,-0.0041882284,0.023076281,-0.012130737,0.0,0.0,0.0
473.3238,349.37048,12994783,0.77500004,0.10638297,0.025035854,261.22888,-0.0041882284,0.023076281,-0.012130737,0.0,0.0,0.0
473.3238,354.93237,12994800,0.77500004,0.08510638,0.0050362083,252.74123,-0.0041882284,0.023076281,-0.012130737,0.0,0.0,0.0
472.8377,362.28772,12994816,0.8,0.08510638,-8.821293,324.73083,-0.0041882284,0.023076281,-0.012130737,0.0,0.0,0.0
472.3241,369.66248,12994833,0.8,0.09574468,-34.128094,417.56525,-0.0041882284,0.023076281,-0.012130737,0.0,0.0,0.0
471.82428,376.78113,12994850,0.7625,0.08510638,-45.393925,472.65915,-0.0041882284,0.023076281,-0.012130737,0.0,0.0,0.0
471.82428,384.48254,12994866,0.77500004,0.10638297,-29.014097,489.5312,-0.0041882284,0.023076281,-0.012130737,0.0,0.0,0.0
471.82428,389.77576,12994883,0.77500004,0.12765957,-1.9004387,412.33234,-0.0041882284,0.023076281,-0.012130737,0.0,0.0,0.0
471.82428,394.16443,12994900,0.77500004,0.12765957,16.2559,301.60715,-0.0041882284,0.023076281,-0.012130737,0.0,0.0,0.0
471.6018,398.71667,12994916,0.77500004,0.12765957,5.862909,208.2146,-0.0041882284,0.023076281,-0.012130737,0.0,0.0,0.0
470.8246,403.2843,12994933,0.7875,0.10638297,-33.267063,194.49327,-0.0041882284,0.023076281,-0.012130737,0.0,0.0,0.0
470.32477,406.37805,12994950,0.7875,0.10638297,-49.598293,204.14359,-0.0041882284,0.023076281,-0.012130737,0.0,0.0,0.0
469.8249,408.28723,12994967,0.7875,0.10638297,-51.11618,146.54483,-0.0041882284,0.023076281,-0.012130737,0.0,0.0,0.0
469.8249,410.10315,12994983,0.7875,0.10638297,-24.14152,70.14496,-0.0041882284,0.023076281,-0.012130737,0.0,0.0,0.0
469.8249,411.98096,12995000,0.8,0.08510638,7.5470805,31.016909,-0.0041882284,0.023076281,-0.012130737,0.0,0.0,0.0
469.8249,412.99597,12995017,0.7875,0.08510638,15.301003,39.723217,-0.051350582,-0.029538989,-0.025704384,0.0,0.0,0.0
469.8249,413.0304,12995031,0.7875,0.08510638,14.936613,27.842318,-0.051350582,-0.029538989,-0.025704384,0.0,0.0,0.0
469.8249,413.0304,12995050,0.77500004,0.08510638,5.2085037,-20.306152,-0.051350582,-0.029538989,-0.025704384,0.0,0.0,0.0
469.8249,413.0304,12995067,0.77500004,0.10638297,0.039091974,-45.21902,-0.051350582,-0.029538989,-0.025704384,0.0,0.0,0.0
469.8249,413.0304,12995084,0.7625,0.10638297,0.002052049,-34.614525,-0.051350582,-0.029538989,-0.025704384,0.0,0.0,0.0
469.8249,410.9801,12995100,0.7625,0.12765957,-0.039847292,-66.86468,-0.051350582,-0.029538989,-0.025704384,0.0,0.0,0.0
470.52435,406.635,12995117,0.75,0.12765957,16.017876,-175.65175,-0.051350582,-0.029538989,-0.025704384,0.0,0.0,0.0
472.30408,400.6626,12995134,0.75,0.11702127,77.02709,-375.4942,-0.051350582,-0.029538989,-0.025704384,0.0,0.0,0.0
474.30786,390.90076,12995150,0.75,0.09574468,139.02992,-578.1297,-0.051350582,-0.029538989,-0.025704384,0.0,0.0,0.0
476.4463,378.94287,12995167,0.7625,0.09574468,175.52968,-788.9535,-0.051350582,-0.029538989,-0.025704384,0.0,0.0,0.0
477.59937,369.69788,12995184,0.75,0.09574468,138.57376,-803.8999,-0.051350582,-0.029538989,-0.025704384,0.0,0.0,0.0
479.0888,359.8672,12995201,0.7625,0.12765957,85.11539,-721.6364,-0.051350582,-0.029538989,-0.025704384,0.0,0.0,0.0
480.75537,351.30432,12995217,0.7625,0.12765957,73.98924,-584.7855,-0.051350582,-0.029538989,-0.025704384,0.0,0.0,0.0
481.77094,344.083,12995234,0.7625,0.09574468,65.24511,-403.99457,-0.051350582,-0.029538989,-0.025704384,0.0,0.0,0.0
482.8405,336.47803,12995251,0.7625,0.09574468,63.963276,-391.74542,-0.051350582,-0.029538989,-0.025704384,0.0,0.0,0.0
483.87787,329.1023,12995267,0.7625,0.07446808,57.002884,-404.60388,-0.051350582,-0.029538989,-0.025704384,0.0,0.0,0.0
484.9245,323.62292,12995284,0.77500004,0.08510638,49.561245,-368.64694,-0.051350582,-0.029538989,-0.025704384,0.0,0.0,0.0
485.96234,318.0885,12995301,0.75,0.08510638,59.061905,-329.43842,-0.051350582,-0.029538989,-0.025704384,0.0,0.0,0.0
488.21948,312.45007,12995318,0.7625,0.10638297,93.85083,-282.60242,-0.051350582,-0.029538989,-0.025704384,0.0,0.0,0.0
489.7287,309.23486,12995334,0.7625,0.10638297,113.53262,-225.86974,-0.051350582,-0.029538989,-0.025704384,0.0,0.0,0.0
491.7456,305.17346,12995351,0.7625,0.12765957,128.70142,-198.02896,-0.051350582,-0.029538989,-0.025704384,0.0,0.0,0.0
495.87775,301.0244,12995368,0.77500004,0.10638297,194.47269,-195.60638,-0.051350582,-0.029538989,-0.025704384,0.0,0.0,0.0
501.25818,297.26233,12995384,0.77500004,0.10638297,295.98572,-206.46246,-0.051350582,-0.029538989,-0.025704384,0.0,0.0,0.0
507.09113,293.59534,12995401,0.75,0.10638297,408.09952,-220.42879,-0.051350582,-0.029538989,-0.025704384,0.0,0.0,0.0
513.4717,291.51843,12995418,0.7625,0.12765957,442.4936,-167.14627,-0.051350582,-0.029538989,-0.025704384,0.0,0.0,0.0
519.88794,290.41687,12995435,0.7625,0.12765957,440.19916,-83.12177,-0.051350582,-0.029538989,-0.025704384,0.0,0.0,0.0
525.2389,290.41687,12995451,0.7625,0.12765957,394.53482,8.011509,-0.051350582,-0.029538989,-0.025704384,0.0,0.0,0.0
531.09296,290.41687,12995468,0.7625,0.12765957,342.2108,67.91011,-0.051350582,-0.029538989,-0.025704384,0.0,0.0,0.0
535.65717,292.3197,12995485,0.7625,0.12765957,304.19296,122.16621,-0.051350582,-0.029538989,-0.025704384,0.0,0.0,0.0
540.2529,294.17126,12995501,0.7625,0.12765957,268.53522,154.043,-0.051350582,-0.029538989,-0.025704384,0.0,0.0,0.0
543.7983,296.0426,12995518,0.77500004,0.10638297,231.39998,166.53682,-0.051350582,-0.029538989,-0.025704384,0.0,0.0,0.0
545.72253,297.90002,12995535,0.7875,0.10638297,145.2731,159.25778,-0.00908047,-0.0076311976,0.027436256,0.0,0.0,0.0
547.7333,301.84973,12995551,0.7625,0.08510638,58.410545,179.90617,-0.00908047,-0.0076311976,0.027436256,0.0,0.0,0.0
550.3109,308.23047,12995568,0.7625,0.08510638,67.97235,310.22928,-0.00908047,-0.0076311976,0.027436256,0.0,0.0,0.0
552.0694,315.85254,12995585,0.75,0.08510638,99.76415,490.63385,-0.00908047,-0.0076311976,0.027436256,0.0,0.0,0.0
551.7982,322.4425,12995602,0.75,0.08510638,56.581123,561.3324,-0.00908047,-0.0076311976,0.027436256,0.0,0.0,0.0
550.92664,327.2787,12995618,0.77500004,0.08510638,-51.479916,458.58435,-0.00908047,-0.0076311976,0.027436256,0.0,0.0,0.0
549.48376,330.9596,12995635,0.77500004,0.10638297,-142.03958,264.62396,-0.00908047,-0.0076311976,0.027436256,0.0,0.0,0.0
547.981,334.5194,12995652,0.7625,0.10638297,-165.05132,135.17137,-0.00908047,-0.0076311976,0.027436256,0.0,0.0,0.0
545.79333,337.51367,12995668,0.77500004,0.12765957,-156.18895,120.40618,-0.00908047,-0.0076311976,0.027436256,0.0,0.0,0.0
543.7119,340.33118,12995685,0.75,0.12765957,-153.2721,124.145645,-0.00908047,-0.0076311976,0.027436256,0.0,0.0,0.0
541.63367,342.09924,12995702,0.75,0.12765957,-150.26016,114.08042,-0.00908047,-0.0076311976,0.027436256,0.0,0.0,0.0
540.6714,345.07947,12995719,0.7625,0.12765957,-109.50973,113.00931,-0.00908047,-0.0076311976,0.027436256,0.0,0.0,0.0
538.93225,346.72144,12995735,0.77500004,0.12765957,-77.837105,109.71516,-0.00908047,-0.0076311976,0.027436256,0.0,0.0,0.0
538.10406,348.16968,12995752,0.7625,0.12765957,-52.32816,103.24554,-0.00908047,-0.0076311976,0.027436256,0.0,0.0,0.0
537.06384,348.5946,12995769,0.7625,0.12765957,-49.397133,40.877434,-0.00908047,-0.0076311976,0.027436256,0.0,0.0,0.0
536.02576,349.94666,12995785,0.7625,0.11702127,-55.59554,22.739237,-0.00908047,-0.0076311976,0.027436256,0.0,0.0,0.0
535.01025,351.35657,12995802,0.7625,0.11702127,-51.256676,37.340977,-0.00908047,-0.0076311976,0.027436256,0.0,0.0,0.0
533.9547,351.72363,12995819,0.77500004,0.11702127,-56.108715,54.50973,-0.00908047,-0.0076311976,0.027436256,0.0,0.0,0.0
532.9219,351.72363,12995836,0.77500004,0.10638297,-60.60579,25.737627,-0.00908047,-0.0076311976,0.027436256,0.0,0.0,0.0
530.9615,352.61218,12995852,0.77500004,0.10638297,-82.778885,3.5072706,-0.00908047,-0.0076311976,0.027436256,0.0,0.0,0.0
529.4348,353.38574,12995869,0.7875,0.10638297,-105.610146,11.753382,-0.00908047,-0.0076311976,0.027436256,0.0,0.0,0.0
527.2686,354.38916,12995886,0.77500004,0.10638297,-133.2013,55.512142,-0.00908047,-0.0076311976,0.027436256,0.0,0.0,0.0
526.2346,354.38916,12995902,0.7625,0.10638297,-114.76293,51.911537,-0.00908047,-0.0076311976,0.027436256,0.0,0.0,0.0
525.2035,355.46143,12995919,0.77500004,0.10638297,-75.685936,33.395737,-0.00908047,-0.0076311976,0.027436256,0.0,0.0,0.0
524.1387,355.2777,12995936,0.77500004,0.10638297,-45.856884,10.967813,-0.00908047,-0.0076311976,0.027436256,0.0,0.0,0.0
523.8073,356.16614,12995953,0.77500004,0.10638297,-24.852102,23.155819,-0.00908047,-0.0076311976,0.027436256,0.0,0.0,0.0
523.8073,356.16614,12995964,0.7625,0.10638297,-5.5498667,27.209661,-0.00908047,-0.0076311976,0.027436256,0.0,0.0,0.0
524.9001,356.16614,12996003,0.7625,0.11702127,56.321888,-16.085058,-0.00908047,-0.0076311976,0.027436256,0.0,0.0,0.0
526.97205,357.0547,12996020,0.75,0.11702127,110.32036,4.228653,-0.00908047,-0.0076311976,0.027436256,0.0,0.0,0.0
529.03766,357.70508,12996036,0.75,0.09574468,158.02518,49.81326,-0.00908047,-0.0076311976,0.027436256,0.0,0.0,0.0
532.029,359.5569,12996053,0.77500004,0.09574468,196.46957,94.58863,-0.00908047,-0.0076311976,0.027436256,0.0,0.0,0.0
534.60925,361.38196,12996070,0.7625,0.08510638,175.7256,132.711,-0.0072643757,-0.006104961,-0.026050568,0.0,0.0,0.0
536.8095,364.17407,12996086,0.7625,0.08510638,166.83205,168.9468,-0.0072643757,-0.006104961,-0.026050568,0.0,0.0,0.0
538.88763,367.86816,12996103,0.7625,0.08510638,143.49083,225.87148,-0.0072643757,-0.006104961,-0.026050568,0.0,0.0,0.0
542.1388,374.6859,12996120,0.75,0.08510638,144.66,335.44257,-0.0072643757,-0.006104961,-0.026050568,0.0,0.0,0.0
544.55634,380.83752,12996137,0.7625,0.08510638,160.1935,452.99463,-0.0072643757,-0.006104961,-0.026050568,0.0,0.0,0.0
545.96606,386.37146,12996153,0.7625,0.10638297,142.52672,471.0144,-0.0072643757,-0.006104961,-0.026050568,0.0,0.0,0.0
546.9984,391.52368,12996170,0.7625,0.12765957,85.84821,407.00122,-0.0072643757,-0.006104961,-0.026050568,0.0,0.0,0.0
547.2997,396.11804,12996187,0.75,0.12765957,-1.7395886,276.1255,-0.0072643757,-0.006104961,-0.026050568,0.0,0.0,0.0
547.2997,400.66626,12996203,0.77500004,0.12765957,-42.676888,226.10344,-0.0072643757,-0.006104961,-0.026050568,0.0,0.0,0.0
548.10266,404.33447,12996220,0.7625,0.10638297,-17.297285,221.08092,-0.0072643757,-0.006104961,-0.026050568,0.0,0.0,0.0
549.1418,408.02893,12996237,0.7625,0.10638297,29.728281,195.85869,-0.0072643757,-0.006104961,-0.026050568,0.0,0.0,0.0
550.1829,410.15906,12996254,0.77500004,0.08510638,71.24483,152.55334,-0.0072643757,-0.006104961,-0.026050568,0.0,0.0,0.0
552.5895,412.78333,12996270,0.7625,0.08510638,119.23153,101.16303,-0.0072643757,-0.006104961,-0.026050568,0.0,0.0,0.0
556.74005,416.53418,12996287,0.7625,0.08510638,204.71465,134.48187,-0.0072643757,-0.006104961,-0.026050568,0.0,0.0,0.0
560.9084,418.41162,12996304,0.7625,0.08510638,293.08673,153.27046,-0.0072643757,-0.006104961,-0.026050568,0.0,0.0,0.0
565.0681,420.26025,12996320,0.7625,0.08510638,329.0051,134.57205,-0.0072643757,-0.006104961,-0.026050568,0.0,0.0,0.0
568.50415,421.02686,12996337,0.75,0.08510638,291.02548,76.552475,-0.0072643757,-0.006104961,-0.026050568,0.0,0.0,0.0
572.22095,421.02686,12996354,0.75,0.08510638,231.5211,-16.78128,-0.0072643757,-0.006104961,-0.026050568,0.0,0.0,0.0
575.3264,418.9325,12996371,0.75,0.08510638,190.9202,-108.40962,-0.0072643757,-0.006104961,-0.026050568,0.0,0.0,0.0
577.72003,417.4729,12996387,0.7375,0.09574468,147.14111,-173.05989,-0.0072643757,-0.006104961,-0.026050568,0.0,0.0,0.0
579.8135,416.11853,12996404,0.75,0.09574468,107.309395,-156.8689,-0.0072643757,-0.006104961,-0.026050568,0.0,0.0,0.0
581.58966,414.27222,12996421,0.75,0.11702127,82.99376,-124.54858,-0.0072643757,-0.006104961,-0.026050568,0.0,0.0,0.0
583.41125,412.47656,12996438,0.75,0.11702127,75.746025,-107.37332,-0.0072643757,-0.006104961,-0.026050568,0.0,0.0,0.0
584.64935,410.61047,12996454,0.75,0.11702127,76.73388,-117.185455,-0.0072643757,-0.006104961,-0.026050568,0.0,0.0,0.0
585.7046,408.73474,12996471,0.75,0.12765957,59.177322,-125.13047,-0.0072643757,-0.006104961,-0.026050568,0.0,0.0,0.0
586.7503,406.87573,12996488,0.7625,0.12765957,43.915417,-111.015144,-0.0072643757,-0.006104961,-0.026050568,0.0,0.0,0.0
587.801,405.00793,12996504,0.75,0.12765957,45.365585,-112.27623,-0.0072643757,-0.006104961,-0.026050568,0.0,0.0,0.0
588.2864,403.16907,12996521,0.7375,0.12765957,37.58293,-112.831024,-0.0072643757,-0.006104961,-0.026050568,0.0,0.0,0.0
588.7862,401.31042,12996538,0.75,0.12765957,30.903708,-112.622406,-0.0072643757,-0.006104961,-0.026050568,0.0,0.0,0.0
589.88837,400.5913,12996554,0.7625,0.12765957,32.253517,-88.34114,-0.0072643757,-0.006104961,-0.026050568,0.0,0.0,0.0
590.2857,399.41614,12996571,0.75,0.12765957,32.423454,-51.97771,-0.0072643757,-0.006104961,-0.026050568,0.0,0.0,0.0
590.2857,398.4319,12996587,0.77500004,0.12765957,16.935005,-31.049044,-0.0072643757,-0.006104961,-0.026050568,0.0,0.0,0.0
590.2857,397.5138,12996604,0.7625,0.11702127,-0.99599284,-31.222841,0.010188501,0.011116028,-0.004840851,0.0,0.0,0.0
590.2857,397.92578,12996621,0.75,0.11702127,-20.54451,-19.75696,0.010188501,0.011116028,-0.004840851,0.0,0.0,0.0
590.2857,397.92578,12996638,0.7625,0.11702127,-21.128698,-1.8845028,0.010188501,0.011116028,-0.004840851,0.0,0.0,0.0
590.2857,397.47363,12996654,0.77500004,0.11702127,-0.009516401,22.509398,0.010188501,0.011116028,-0.004840851,0.0,0.0,0.0
590.2857,397.03735,12996671,0.77500004,0.11702127,0.026369922,-0.1417822,0.010188501,0.011116028,-0.004840851,0.0,0.0,0.0
590.2857,397.03735,12996688,0.7625,0.11702127,-0.02778317,-16.468317,0.010188501,0.011116028,-0.004840851,0.0,0.0,0.0
590.2857,396.1488,12996713,0.7625,0.11702127,0.012521879,-27.733923,0.010188501,0.011116028,-0.004840851,0.0,0.0,0.0
590.2857,396.1488,12996738,0.7625,0.11702127,0.0075501436,-9.110466,0.010188501,0.011116028,-0.004840851,0.0,0.0,0.0
590.2857,396.1488,12996762,0.77500004,0.11702127,0.008090088,2.8941007,0.010188501,0.011116028,-0.004840851,0.0,0.0,0.0
590.2857,395.26025,12996805,0.7875,0.11702127,-0.040012036,-27.958523,0.010188501,0.011116028,-0.004840851,0.0,0.0,0.0
590.2857,395.26025,12996821,0.77500004,0.11702127,-8.274773E-4,-11.313503,0.010188501,0.011116028,-0.004840851,0.0,0.0,0.0
590.2857,394.37183,12996838,0.77500004,0.11702127,-0.010158123,-27.210304,0.010188501,0.011116028,-0.004840851,0.0,0.0,0.0
590.2857,394.37183,12996855,0.77500004,0.11702127,-0.012307374,-23.299572,0.010188501,0.011116028,-0.004840851,0.0,0.0,0.0
590.2857,393.03906,12996887,0.77500004,0.11702127,0.0136708105,-33.883392,0.010188501,0.011116028,-0.004840851,0.0,0.0,0.0
590.2857,392.15063,12996918,0.7625,0.11702127,-0.025368093,-32.41224,0.010188501,0.011116028,-0.004840851,0.0,0.0,0.0
590.2857,392.59485,12996938,0.77500004,0.11702127,-0.017513009,-15.407871,0.010188501,0.011116028,-0.004840851,0.0,0.0,0.0
590.2857,391.7063,12996955,0.77500004,0.11702127,-0.0065523027,-21.221365,0.010188501,0.011116028,-0.004840851,0.0,0.0,0.0
590.2857,391.7063,12996972,0.7625,0.09574468,-0.026558999,-13.228157,0.010188501,0.011116028,-0.004840851,0.0,0.0,0.0
589.7859,391.7063,12996989,0.7625,0.09574468,-20.27641,2.7068434,0.010188501,0.011116028,-0.004840851,0.0,0.0,0.0
589.4653,390.81775,12997005,0.7625,0.09574468,-24.445585,-16.11628,0.010188501,0.011116028,-0.004840851,0.0,0.0,0.0
589.286,390.4641,12997022,0.7625,0.09574468,-26.107748,-19.871479,0.010188501,0.011116028,-0.004840851,0.0,0.0,0.0
589.286,389.2649,12997039,0.7625,0.09574468,-11.826116,-62.764545,0.010188501,0.011116028,-0.004840851,0.0,0.0,0.0
589.286,389.04077,12997055,0.77500004,0.09574468,6.777267,-56.302406,0.010188501,0.011116028,-0.004840851,0.0,0.0,0.0
589.286,388.3695,12997072,0.7625,0.09574468,7.317833,-35.691128,0.010188501,0.011116028,-0.004840851,0.0,0.0,0.0
589.286,388.15222,12997089,0.75,0.09574468,7.1489806,-28.907183,0.010188501,0.011116028,-0.004840851,0.0,0.0,0.0
588.53625,388.15222,12997105,0.7625,0.09574468,-19.685217,3.216681,0.010188501,0.011116028,-0.004840851,0.0,0.0,0.0
588.2864,388.15222,12997122,0.77500004,0.09574468,-35.60919,7.495234,0.010188501,0.011116028,-0.004840851,0.0,0.0,0.0
588.2864,388.15222,12997139,0.7625,0.09574468,-30.559149,12.127387,-0.007849202,0.008892819,0.028126717,0.0,0.0,0.0
588.2864,388.15222,12997151,0.7625,0.09574468,-12.491848,14.945319,-0.007849202,0.008892819,0.028126717,0.0,0.0,0.0
588.2864,388.15222,12997171,0.77500004,0.09574468,7.343319,2.2052205,-0.007849202,0.008892819,0.028126717,0.0,0.0,0.0
588.2864,388.15222,12997183,0.7625,0.09574468,15.512879,0.0016976034,-0.007849202,0.008892819,0.028126717,0.0,0.0,0.0
588.2864,388.15222,12997204,0.77500004,0.09574468,3.6587477,-0.0136391185,-0.007849202,0.008892819,0.028126717,0.0,0.0,0.0
588.2138,387.2638,12997223,0.75,0.09574468,-1.0581536,-25.19723,-0.007849202,0.008892819,0.028126717,0.0,0.0,0.0
587.57574,387.2638,12997239,0.77500004,0.09574468,-20.189138,-30.60088,-0.007849202,0.008892819,0.028126717,0.0,0.0,0.0
587.2867,387.2638,12997256,0.7625,0.09574468,-38.641933,-13.640398,-0.007849202,0.008892819,0.028126717,0.0,0.0,0.0
587.2867,386.37524,12997273,0.7625,0.09574468,-23.030756,-24.342136,-0.007849202,0.008892819,0.028126717,0.0,0.0,0.0
587.2867,385.48682,12997289,0.75,0.09574468,3.5036871,-46.375458,-0.007849202,0.008892819,0.028126717,0.0,0.0,0.0
587.2867,384.81104,12997306,0.75,0.09574468,13.506031,-54.001526,-0.007849202,0.008892819,0.028126717,0.0,0.0,0.0
586.8894,383.00354,12997323,0.7375,0.09574468,0.9266123,-88.93831,-0.007849202,0.008892819,0.028126717,0.0,0.0,0.0
586.287,381.14868,12997339,0.75,0.09574468,-33.052113,-114.97828,-0.007849202,0.008892819,0.028126717,0.0,0.0,0.0
586.287,379.27783,12997356,0.75,0.09574468,-34.26811,-138.15048,-0.007849202,0.008892819,0.028126717,0.0,0.0,0.0
586.287,377.43604,12997373,0.7375,0.09574468,-12.806432,-140.06165,-0.007849202,0.008892819,0.028126717,0.0,0.0,0.0
587.36096,372.7837,12997390,0.7375,0.09574468,36.44998,-203.44196,-0.007849202,0.008892819,0.028126717,0.0,0.0,0.0
588.90686,368.17615,12997406,0.7375,0.11702127,97.33582,-287.3037,-0.007849202,0.008892819,0.028126717,0.0,0.0,0.0
591.6408,361.4381,12997423,0.725,0.12765957,158.17317,-397.84937,-0.007849202,0.008892819,0.028126717,0.0,0.0,0.0
595.2339,354.4784,12997440,0.725,0.12765957,215.29669,-463.66428,-0.007849202,0.008892819,0.028126717,0.0,0.0,0.0
598.1793,347.4657,12997456,0.725,0.08510638,241.16405,-481.19183,-0.007849202,0.008892819,0.028126717,0.0,0.0,0.0
602.301,341.48022,12997473,0.7375,0.08510638,268.46893,-470.3378,-0.007849202,0.008892819,0.028126717,0.0,0.0,0.0
606.4864,335.01184,12997490,0.7375,0.08510638,282.4441,-410.1987,-0.007849202,0.008892819,0.028126717,0.0,0.0,0.0
611.2492,329.72046,12997507,0.7375,0.08510638,291.12817,-334.38248,-0.007849202,0.008892819,0.028126717,0.0,0.0,0.0
616.59076,324.02332,12997523,0.725,0.08510638,317.11197,-288.62643,-0.007849202,0.008892819,0.028126717,0.0,0.0,0.0
622.70306,317.58032,12997540,0.7375,0.08510638,355.57547,-323.871,-0.007849202,0.008892819,0.028126717,0.0,0.0,0.0
627.0901,312.79272,12997557,0.725,0.08510638,352.98044,-335.7874,-0.007849202,0.008892819,0.028126717,0.0,0.0,0.0
631.2989,308.16345,12997573,0.725,0.10638297,293.26797,-298.08813,-0.007849202,0.008892819,0.028126717,0.0,0.0,0.0
634.4127,304.46545,12997590,0.7375,0.12765957,205.68292,-232.55249,-0.007849202,0.008892819,0.028126717,0.0,0.0,0.0
638.5885,300.9375,12997607,0.7375,0.12765957,179.1729,-179.04372,-0.007849202,0.008892819,0.028126717,0.0,0.0,0.0
642.77936,297.95972,12997624,0.7625,0.12765957,202.31715,-144.53787,-0.007849202,0.008892819,0.028126717,0.0,0.0,0.0
647.74164,295.4015,12997640,0.7375,0.12765957,261.86377,-138.4039,-0.007849202,0.008892819,0.028126717,0.0,0.0,0.0
654.8764,292.72437,12997657,0.75,0.10638297,363.07965,-129.4396,-0.007849202,0.008892819,0.028126717,0.0,0.0,0.0
662.9339,290.88098,12997674,0.7375,0.10638297,503.64102,-115.40785,-0.006279364,-0.04088573,-0.02549839,0.0,0.0,0.0
670.9478,289.04236,12997690,0.75,0.10638297,572.0882,-98.148705,-0.006279364,-0.04088573,-0.02549839,0.0,0.0,0.0
679.25134,287.75146,12997707,0.75,0.12765957,574.6538,-73.90198,-0.006279364,-0.04088573,-0.02549839,0.0,0.0,0.0
686.1053,287.75146,12997724,0.7375,0.10638297,484.73746,-21.904675,-0.006279364,-0.04088573,-0.02549839,0.0,0.0,0.0
692.9447,287.75146,12997741,0.75,0.12765957,404.71118,33.950066,-0.006279364,-0.04088573,-0.02549839,0.0,0.0,0.0
699.2478,288.4911,12997757,0.77500004,0.12765957,358.48605,63.319057,-0.006279364,-0.04088573,-0.02549839,0.0,0.0,0.0
706.07776,290.36646,12997774,0.7625,0.12765957,345.5087,112.843124,-0.006279364,-0.04088573,-0.02549839,0.0,0.0,0.0
711.8639,293.1521,12997791,0.75,0.10638297,358.87228,169.49774,-0.006279364,-0.04088573,-0.02549839,0.0,0.0,0.0
719.1582,296.84692,12997807,0.77500004,0.10638297,394.35226,246.69662,-0.006279364,-0.04088573,-0.02549839,0.0,0.0,0.0
726.41504,300.53247,12997824,0.7625,0.09574468,430.6211,287.97186,-0.006279364,-0.04088573,-0.02549839,0.0,0.0,0.0
732.4614,304.2578,12997841,0.7875,0.10638297,424.08823,279.7041,-0.006279364,-0.04088573,-0.02549839,0.0,0.0,0.0
737.2987,308.0525,12997857,0.75,0.08510638,345.4499,256.1249,-0.006279364,-0.04088573,-0.02549839,0.0,0.0,0.0
741.584,311.6056,12997874,0.7625,0.09574468,260.80875,230.00475,-0.006279364,-0.04088573,-0.02549839,0.0,0.0,0.0
744.2394,314.41333,12997891,0.75,0.09574468,155.69852,196.80556,-0.006279364,-0.04088573,-0.02549839,0.0,0.0,0.0
746.26135,317.5398,12997908,0.77500004,0.09574468,88.77826,179.46556,-0.006279364,-0.04088573,-0.02549839,0.0,0.0,0.0
747.5527,319.97986,12997924,0.7625,0.09574468,36.386627,138.41531,-0.006279364,-0.04088573,-0.02549839,0.0,0.0,0.0
748.23425,320.62598,12997941,0.7875,0.09574468,-14.635851,80.306046,-0.006279364,-0.04088573,-0.02549839,0.0,0.0,0.0
748.23425,320.62598,12997958,0.7625,0.09574468,-31.420307,-6.2321815,-0.006279364,-0.04088573,-0.02549839,0.0,0.0,0.0
748.23425,320.62598,12997974,0.77500004,0.09574468,-39.598694,-62.70245,-0.006279364,-0.04088573,-0.02549839,0.0,0.0,0.0
747.7439,320.62598,12997991,0.77500004,0.09574468,-52.382496,-71.19093,-0.006279364,-0.04088573,-0.02549839,0.0,0.0,0.0
746.70355,320.62598,12998008,0.7625,0.08510638,-68.18267,-34.681572,-0.006279364,-0.04088573,-0.02549839,0.0,0.0,0.0
743.51733,318.7196,12998025,0.77500004,0.08510638,-142.87854,-53.1289,-0.006279364,-0.04088573,-0.02549839,0.0,0.0,0.0
738.6668,316.86926,12998041,0.7625,0.08510638,-266.82343,-117.19314,-0.006279364,-0.04088573,-0.02549839,0.0,0.0,0.0
731.07385,314.99902,12998058,0.77500004,0.08510638,-437.54654,-156.47556,-0.006279364,-0.04088573,-0.02549839,0.0,0.0,0.0
723.69824,312.3203,12998075,0.77500004,0.08510638,-553.66675,-179.98488,-0.006279364,-0.04088573,-0.02549839,0.0,0.0,0.0
716.15,310.44763,12998091,0.7625,0.08510638,-574.34094,-154.68364,-0.006279364,-0.04088573,-0.02549839,0.0,0.0,0.0
708.48267,308.62756,12998108,0.7625,0.11702127,-535.67145,-132.19347,-0.006279364,-0.04088573,-0.02549839,0.0,0.0,0.0
700.60846,306.75488,12998125,0.7625,0.10638297,-486.2286,-110.15159,-0.006279364,-0.04088573,-0.02549839,0.0,0.0,0.0
692.1469,305.52148,12998142,0.7625,0.10638297,-487.692,-83.36951,-0.006279364,-0.04088573,-0.02549839,0.0,0.0,0.0
682.76666,305.52148,12998158,0.77500004,0.09574468,-537.6434,-27.857935,-0.006279364,-0.04088573,-0.02549839,0.0,0.0,0.0
674.002,305.52148,12998175,0.75,0.09574468,-573.84863,23.340208,-0.006279364,-0.04088573,-0.02549839,0.0,0.0,0.0
665.53394,305.52148,12998192,0.77500004,0.10638297,-559.7659,52.469845,-0.006279364,-0.04088573,-0.02549839,0.0,0.0,0.0
658.7292,305.52148,12998208,0.7625,0.09574468,-464.30774,35.93346,-0.0050234944,-7.085949E-4,-0.0043992996,0.0,0.0,0.0
651.9296,306.49536,12998225,0.7625,0.09574468,-380.76813,32.47873,-0.0050234944,-7.085949E-4,-0.0043992996,0.0,0.0,0.0
646.32776,308.34326,12998242,0.7875,0.08510638,-321.52115,85.72707,-0.0050234944,-7.085949E-4,-0.0043992996,0.0,0.0,0.0
639.82874,312.21863,12998259,0.77500004,0.08510638,-309.5542,193.69441,-0.0050234944,-7.085949E-4,-0.0043992996,0.0,0.0,0.0
633.4427,317.19556,12998275,0.77500004,0.08510638,-331.05908,307.07657,-0.0050234944,-7.085949E-4,-0.0043992996,0.0,0.0,0.0
627.0709,322.58325,12998292,0.77500004,0.08510638,-377.00958,393.60825,-0.0050234944,-7.085949E-4,-0.0043992996,0.0,0.0,0.0
621.08167,328.11865,12998309,0.77500004,0.09574468,-399.30496,415.11697,-0.0050234944,-7.085949E-4,-0.0043992996,0.0,0.0,0.0
616.1522,333.6759,12998325,0.7625,0.10638297,-348.40228,393.45212,-0.0050234944,-7.085949E-4,-0.0043992996,0.0,0.0,0.0
611.8162,338.64783,12998342,0.7625,0.12765957,-260.2269,347.86478,-0.0050234944,-7.085949E-4,-0.0043992996,0.0,0.0,0.0
606.33527,347.18384,12998359,0.77500004,0.12765957,-234.6904,386.8728,-0.0050234944,-7.085949E-4,-0.0043992996,0.0,0.0,0.0
603.2884,352.0116,12998376,0.7625,0.10638297,-209.84454,401.6204,-0.0050234944,-7.085949E-4,-0.0043992996,0.0,0.0,0.0
601.01483,357.32312,12998392,0.77500004,0.08510638,-152.7238,351.3558,-0.0050234944,-7.085949E-4,-0.0043992996,0.0,0.0,0.0
600.7823,363.00867,12998409,0.77500004,0.08510638,-42.110664,304.23972,-0.0050234944,-7.085949E-4,-0.0043992996,0.0,0.0,0.0
600.7823,368.69153,12998426,0.77500004,0.08510638,66.14308,304.93307,-0.0050234944,-7.085949E-4,-0.0043992996,0.0,0.0,0.0
601.8425,373.37073,12998442,0.77500004,0.08510638,123.76035,298.70245,-0.0050234944,-7.085949E-4,-0.0043992996,0.0,0.0,0.0
603.3831,376.9629,12998459,0.77500004,0.08510638,145.39352,273.5432,-0.0050234944,-7.085949E-4,-0.0043992996,0.0,0.0,0.0
604.9225,379.51855,12998476,0.7625,0.08510638,145.7985,173.00954,-0.0050234944,-7.085949E-4,-0.0043992996,0.0,0.0,0.0
605.9859,381.40918,12998492,0.7625,0.08510638,115.10878,83.616104,-0.0050234944,-7.085949E-4,-0.0043992996,0.0,0.0,0.0
608.2097,384.09167,12998509,0.77500004,0.09574468,114.65199,73.662735,-0.0050234944,-7.085949E-4,-0.0043992996,0.0,0.0,0.0
610.242,385.89795,12998526,0.7875,0.09574468,122.052315,83.37291,-0.0050234944,-7.085949E-4,-0.0043992996,0.0,0.0,0.0
612.86926,388.67725,12998543,0.77500004,0.09574468,161.4894,126.206825,-0.0050234944,-7.085949E-4,-0.0043992996,0.0,0.0,0.0
615.7794,390.52283,12998559,0.77500004,0.09574468,189.81763,138.23651,-0.0050234944,-7.085949E-4,-0.0043992996,0.0,0.0,0.0
618.5272,392.3734,12998576,0.77500004,0.10638297,193.5494,113.867386,-0.0050234944,-7.085949E-4,-0.0043992996,0.0,0.0,0.0
620.99805,394.2074,12998593,0.7625,0.12765957,173.7166,106.508194,-0.0050234944,-7.085949E-4,-0.0043992996,0.0,0.0,0.0
624.1085,396.0504,12998609,0.7625,0.12765957,170.661,93.571106,-0.0050234944,-7.085949E-4,-0.0043992996,0.0,0.0,0.0
627.25726,397.91602,12998626,0.75,0.12765957,179.85318,100.683975,-0.0050234944,-7.085949E-4,-0.0043992996,0.0,0.0,0.0
630.3632,398.81433,12998643,0.7625,0.12765957,194.18294,87.809265,-0.0050234944,-7.085949E-4,-0.0043992996,0.0,0.0,0.0
632.4158,399.83044,12998660,0.75,0.12765957,172.98297,50.27741,-0.0050234944,-7.085949E-4,-0.0043992996,0.0,0.0,0.0
635.63074,401.693,12998676,0.75,0.12765957,156.61017,58.332607,-0.0050234944,-7.085949E-4,-0.0043992996,0.0,0.0,0.0
638.8018,402.3683,12998693,0.7375,0.12765957,165.68532,63.79639,-0.0050234944,-7.085949E-4,-0.0043992996,0.0,0.0,0.0
642.5316,403.25684,12998710,0.7625,0.12765957,204.35161,63.687454,-0.0050234944,-7.085949E-4,-0.0043992996,0.0,0.0,0.0
646.4687,404.1454,12998726,0.75,0.12765957,257.7656,44.98753,-0.0050234944,-7.085949E-4,-0.0043992996,0.0,0.0,0.0
650.0766,404.1454,12998743,0.75,0.12765957,251.59917,-1.7510799,-0.020018797,-5.668849E-4,0.02848053,0.0,0.0,0.0
654.5039,405.0338,12998760,0.75,0.10638297,254.17911,13.625193,-0.020018797,-5.668849E-4,0.02848053,0.0,0.0,0.0
660.3472,405.0338,12998777,0.75,0.10638297,300.31824,15.622902,-0.020018797,-5.668849E-4,0.02848053,0.0,0.0,0.0
666.1015,405.0338,12998793,0.7375,0.10638297,368.0716,3.433185,-0.020018797,-5.668849E-4,0.02848053,0.0,0.0,0.0
671.8888,404.1454,12998810,0.7375,0.10638297,408.96814,-37.34505,-0.020018797,-5.668849E-4,0.02848053,0.0,0.0,0.0
677.0992,402.42456,12998827,0.75,0.10638297,377.11798,-90.740364,-0.020018797,-5.668849E-4,0.02848053,0.0,0.0,0.0
681.78845,401.47986,12998843,0.7375,0.12765957,304.6236,-116.040085,-0.020018797,-5.668849E-4,0.02848053,0.0,0.0,0.0
685.9474,399.61707,12998860,0.7375,0.12765957,244.8142,-119.915924,-0.020018797,-5.668849E-4,0.02848053,0.0,0.0,0.0
689.5863,397.77783,12998877,0.725,0.11702127,201.87091,-121.05528,-0.020018797,-5.668849E-4,0.02848053,0.0,0.0,0.0
693.78906,395.91016,12998894,0.725,0.09574468,198.86127,-119.70692,-0.020018797,-5.668849E-4,0.02848053,0.0,0.0,0.0
697.3068,391.93628,12998910,0.7375,0.09574468,203.55156,-177.82518,-0.020018797,-5.668849E-4,0.02848053,0.0,0.0,0.0
701.103,388.28247,12998927,0.7375,0.08510638,209.65717,-243.38297,-0.020018797,-5.668849E-4,0.02848053,0.0,0.0,0.0
703.1635,384.75012,12998944,0.725,0.07446808,171.9305,-267.6591,-0.020018797,-5.668849E-4,0.02848053,0.0,0.0,0.0
706.093,380.0432,12998960,0.725,0.08510638,133.91199,-292.6571,-0.020018797,-5.668849E-4,0.02848053,0.0,0.0,0.0
708.3921,376.34436,12998977,0.75,0.08510638,126.0276,-269.48093,-0.020018797,-5.668849E-4,0.02848053,0.0,0.0,0.0
710.8351,371.11328,12998994,0.7375,0.08510638,121.77386,-283.20612,-0.020018797,-5.668849E-4,0.02848053,0.0,0.0,0.0
713.04926,366.46338,12999011,0.7375,0.09574468,127.72698,-299.3319,-0.020018797,-5.668849E-4,0.02848053,0.0,0.0,0.0
715.62225,360.93567,12999027,0.7375,0.10638297,135.72098,-319.85535,-0.020018797,-5.668849E-4,0.02848053,0.0,0.0,0.0
718.20593,355.37915,12999044,0.725,0.10638297,148.05544,-352.41864,-0.020018797,-5.668849E-4,0.02848053,0.0,0.0,0.0
722.8535,348.01184,12999061,0.7375,0.09574468,216.40312,-407.48352,-0.020018797,-5.668849E-4,0.02848053,0.0,0.0,0.0
726.4722,342.53088,12999077,0.7375,0.08510638,256.96375,-408.66388,-0.020018797,-5.668849E-4,0.02848053,0.0,0.0,0.0
728.935,336.98926,12999094,0.725,0.08510638,241.05273,-379.64496,-0.020018797,-5.668849E-4,0.02848053,0.0,0.0,0.0
730.8885,331.64868,12999111,0.75,0.08510638,167.42323,-335.35065,-0.020018797,-5.668849E-4,0.02848053,0.0,0.0,0.0
733.3661,325.36,12999127,0.75,0.08510638,93.84418,-302.95288,-0.020018797,-5.668849E-4,0.02848053,0.0,0.0,0.0
734.95306,320.75232,12999144,0.7375,0.08510638,65.4867,-303.2441,-0.020018797,-5.668849E-4,0.02848053,0.0,0.0,0.0
735.9936,316.16443,12999161,0.75,0.08510638,69.02618,-294.91907,-0.020018797,-5.668849E-4,0.02848053,0.0,0.0,0.0
737.02765,312.48816,12999178,0.725,0.10638297,53.495094,-239.86096,-0.020018797,-5.668849E-4,0.02848053,0.0,0.0,0.0
737.23785,309.41748,12999194,0.75,0.10638297,15.639692,-181.24855,-0.020018797,-5.668849E-4,0.02848053,0.0,0.0,0.0
737.23785,307.57556,12999211,0.75,0.10638297,-25.853996,-92.046646,-0.020018797,-5.668849E-4,0.02848053,0.0,0.0,0.0
737.23785,305.73157,12999228,0.7625,0.12765957,-29.50131,-58.88638,-0.020018797,-5.668849E-4,0.02848053,0.0,0.0,0.0
737.23785,303.8673,12999244,0.7625,0.12765957,-27.797064,-48.715694,-0.020018797,-5.668849E-4,0.02848053,0.0,0.0,0.0
737.23785,302.85596,12999261,0.77500004,0.12765957,-13.669696,-56.24638,-0.020018797,-5.668849E-4,0.02848053,0.0,0.0,0.0
737.23785,302.85596,12999278,0.7625,0.10638297,0.008468634,-22.173065,-0.032015037,-4.5351684E-4,0.0067853928,0.0,0.0,0.0
737.23785,302.85596,12999295,0.77500004,0.10638297,0.028759746,23.036442,-0.032015037,-4.5351684E-4,0.0067853928,0.0,0.0,0.0
737.23785,302.85596,12999311,0.77500004,0.10638297,0.016785854,48.55857,-0.032015037,-4.5351684E-4,0.0067853928,0.0,0.0,0.0
737.23785,302.85596,12999328,0.7625,0.10638297,0.001340138,38.410294,-0.032015037,-4.5351684E-4,0.0067853928,0.0,0.0,0.0
736.5543,304.07092,12999345,0.7625,0.08510638,-17.76967,41.612576,-0.032015037,-4.5351684E-4,0.0067853928,0.0,0.0,0.0
735.511,307.21826,12999361,0.7625,0.08510638,-54.459133,129.82248,-0.032015037,-4.5351684E-4,0.0067853928,0.0,0.0,0.0
734.46814,310.92578,12999378,0.7625,0.08510638,-85.15129,264.05963,-0.032015037,-4.5351684E-4,0.0067853928,0.0,0.0,0.0
733.11725,316.61694,12999395,0.75,0.08510638,-93.55076,356.66174,-0.032015037,-4.5351684E-4,0.0067853928,0.0,0.0,0.0
731.9003,323.32312,12999412,0.7375,0.08510638,-89.880356,455.53677,-0.032015037,-4.5351684E-4,0.0067853928,0.0,0.0,0.0
730.85297,328.90857,12999428,0.7375,0.08510638,-77.18669,455.16632,-0.032015037,-4.5351684E-4,0.0067853928,0.0,0.0,0.0
729.3126,333.56885,12999445,0.75,0.09574468,-81.84757,385.9159,-0.032015037,-4.5351684E-4,0.0067853928,0.0,0.0,0.0
727.3118,339.92163,12999462,0.75,0.10638297,-98.65834,327.42032,-0.032015037,-4.5351684E-4,0.0067853928,0.0,0.0,0.0
725.23303,346.41577,12999478,0.7625,0.10638297,-127.949615,348.73605,-0.032015037,-4.5351684E-4,0.0067853928,0.0,0.0,0.0
723.6448,352.87195,12999495,0.75,0.09574468,-131.49438,406.07208,-0.032015037,-4.5351684E-4,0.0067853928,0.0,0.0,0.0
722.65424,359.45947,12999512,0.75,0.08510638,-95.88085,422.90814,-0.032015037,-4.5351684E-4,0.0067853928,0.0,0.0,0.0
722.24274,365.77673,12999529,0.7375,0.08510638,-42.005646,406.2016,-0.032015037,-4.5351684E-4,0.0067853928,0.0,0.0,0.0
722.24274,372.11096,12999545,0.75,0.08510638,12.382434,380.38004,-0.032015037,-4.5351684E-4,0.0067853928,0.0,0.0,0.0
722.94226,379.4436,12999562,0.725,0.08510638,55.27514,408.25732,-0.032015037,-4.5351684E-4,0.0067853928,0.0,0.0,0.0
723.4444,384.78674,12999579,0.7625,0.09574468,71.1682,381.41028,-0.032015037,-4.5351684E-4,0.0067853928,0.0,0.0,0.0
724.5227,390.03833,12999595,0.7375,0.09574468,76.08826,328.11237,-0.032015037,-4.5351684E-4,0.0067853928,0.0,0.0,0.0
725.5606,393.72852,12999612,0.75,0.10638297,76.221504,241.88005,-0.032015037,-4.5351684E-4,0.0067853928,0.0,0.0,0.0
726.6041,396.79358,12999629,0.75,0.10638297,77.4788,155.5644,-0.032015037,-4.5351684E-4,0.0067853928,0.0,0.0,0.0
728.01227,399.98206,12999646,0.7375,0.10638297,83.54201,110.45246,-0.032015037,-4.5351684E-4,0.0067853928,0.0,0.0,0.0
730.56165,403.93396,12999662,0.75,0.09574468,116.74912,150.2602,-0.032015037,-4.5351684E-4,0.0067853928,0.0,0.0,0.0
733.1965,405.88452,12999679,0.75,0.10638297,172.13336,168.87302,-0.032015037,-4.5351684E-4,0.0067853928,0.0,0.0,0.0
736.31226,408.6538,12999696,0.725,0.08510638,207.34615,148.17154,-0.032015037,-4.5351684E-4,0.0067853928,0.0,0.0,0.0
738.36115,410.47473,12999712,0.7375,0.08510638,193.60458,117.07995,-0.032015037,-4.5351684E-4,0.0067853928,0.0,0.0,0.0
741.0398,412.3214,12999729,0.7375,0.09574468,161.62514,81.66823,-0.032015037,-4.5351684E-4,0.0067853928,0.0,0.0,0.0
744.0719,414.11804,12999746,0.7375,0.09574468,160.00266,90.54829,-0.032015037,-4.5351684E-4,0.0067853928,0.0,0.0,0.0
746.6518,416.06653,12999763,0.725,0.09574468,168.95856,98.33777,-0.032015037,-4.5351684E-4,0.0067853928,0.0,0.0,0.0
749.81836,417.8191,12999779,0.725,0.09574468,179.27705,96.046005,-0.032015037,-4.5351684E-4,0.0067853928,0.0,0.0,0.0
753.4978,419.70312,12999796,0.725,0.09574468,208.7308,112.641685,-0.032015037,-4.5351684E-4,0.0067853928,0.0,0.0,0.0
757.07184,421.52466,12999813,0.725,0.08510638,226.87627,113.002106,0.0063879713,-3.6281347E-4,0.005428314,0.0,0.0,0.0
761.39923,423.3971,12999829,0.725,0.08510638,254.49675,111.21591,0.0063879713,-3.6281347E-4,0.005428314,0.0,0.0,0.0
766.2287,423.69238,12999846,0.725,0.08510638,293.71356,71.28509,0.0063879713,-3.6281347E-4,0.005428314,0.0,0.0,0.0
770.89264,423.69238,12999863,0.725,0.08510638,311.28366,1.3212235,0.0063879713,-3.6281347E-4,0.005428314,0.0,0.0,0.0
775.5458,423.69238,12999879,0.725,0.08510638,313.35876,-43.744663,0.0063879713,-3.6281347E-4,0.005428314,0.0,0.0,0.0
779.7032,421.92468,12999896,0.725,0.08510638,280.69086,-93.64876,0.0063879713,-3.6281347E-4,0.005428314,0.0,0.0,0.0
784.87335,420.08472,12999913,0.71250004,0.08510638,269.1309,-136.39053,0.0063879713,-3.6281347E-4,0.005428314,0.0,0.0,0.0
790.0825,417.2157,12999930,0.71250004,0.10638297,299.55026,-178.81924,0.0063879713,-3.6281347E-4,0.005428314,0.0,0.0,0.0
794.1648,415.49805,12999946,0.7,0.10638297,292.78784,-189.9417,0.0063879713,-3.6281347E-4,0.005428314,0.0,0.0,0.0
797.7337,412.7251,12999963,0.7,0.12765957,251.3177,-183.03848,0.0063879713,-3.6281347E-4,0.005428314,0.0,0.0,0.0
801.7632,408.8291,12999980,0.7,0.12765957,212.70355,-199.09247,0.0063879713,-3.6281347E-4,0.005428314,0.0,0.0,0.0
804.906,405.10474,12999996,0.7,0.12765957,179.95645,-239.85222,0.0063879713,-3.6281347E-4,0.005428314,0.0,0.0,0.0
807.7487,401.41968,13000013,0.71250004,0.10638297,170.48096,-260.1867,0.0063879713,-3.6281347E-4,0.005428314,0.0,0.0,0.0
809.8318,397.71692,13000030,0.71250004,0.10638297,130.2822,-248.74974,0.0063879713,-3.6281347E-4,0.005428314,0.0,0.0,0.0
812.41034,394.02173,13000047,0.7,0.08510638,107.168045,-228.66434,0.0063879713,-3.6281347E-4,0.005428314,0.0,0.0,0.0
814.874,389.64233,13000063,0.7,0.08510638,113.28538,-230.51167,0.0063879713,-3.6281347E-4,0.005428314,0.0,0.0,0.0
816.90674,385.41174,13000080,0.71250004,0.06382979,121.3368,-245.56073,0.0063879713,-3.6281347E-4,0.005428314,0.0,0.0,0.0
819.1426,380.2777,13000097,0.71250004,0.06382979,131.2651,-302.0006,0.0063879713,-3.6281347E-4,0.005428314,0.0,0.0,0.0
822.2246,372.1079,13000113,0.71250004,0.08510638,156.03125,-419.9504,0.0063879713,-3.6281347E-4,0.005428314,0.0,0.0,0.0
824.3019,365.69336,13000130,0.71250004,0.09574468,153.44028,-480.99152,0.0063879713,-3.6281347E-4,0.005428314,0.0,0.0,0.0
826.9532,358.2522,13000147,0.71250004,0.10638297,152.84813,-497.00238,0.0063879713,-3.6281347E-4,0.005428314,0.0,0.0,0.0
828.835,353.04932,13000164,0.7,0.10638297,139.83983,-428.8623,0.0063879713,-3.6281347E-4,0.005428314,0.0,0.0,0.0
831.7929,345.89307,13000180,0.71250004,0.09574468,134.97104,-366.79202,0.0063879713,-3.6281347E-4,0.005428314,0.0,0.0,0.0
833.4105,341.22522,13000197,0.725,0.08510638,129.11684,-311.03934,0.0063879713,-3.6281347E-4,0.005428314,0.0,0.0,0.0
835.1718,336.26587,13000214,0.725,0.08510638,105.30036,-281.37744,0.0063879713,-3.6281347E-4,0.005428314,0.0,0.0,0.0
836.77026,331.05786,13000230,0.7,0.06382979,87.35977,-275.13675,0.0063879713,-3.6281347E-4,0.005428314,0.0,0.0,0.0
838.838,324.59497,13000247,0.71250004,0.06382979,94.77097,-321.72318,0.0063879713,-3.6281347E-4,0.005428314,0.0,0.0,0.0
840.9191,318.08484,13000264,0.71250004,0.08510638,113.31408,-383.68225,0.0063879713,-3.6281347E-4,0.005428314,0.0,0.0,0.0
842.8906,311.77917,13000280,0.71250004,0.09574468,125.48594,-415.09564,0.0063879713,-3.6281347E-4,0.005428314,0.0,0.0,0.0
845.07404,305.8645,13000297,0.7,0.12765957,132.72388,-404.71695,0.0063879713,-3.6281347E-4,0.005428314,0.0,0.0,0.0
848.10284,297.78845,13000314,0.7,0.12765957,150.83215,-402.85223,0.0063879713,-3.6281347E-4,0.005428314,0.0,0.0,0.0
850.7487,290.3037,13000331,0.6875,0.08510638,177.28397,-468.39014,0.0063879713,-3.6281347E-4,0.005428314,0.0,0.0,0.0
852.82245,281.98608,13000347,0.6875,0.07446808,169.795,-523.06085,-0.010889623,0.015709743,0.020341873,0.0,0.0,0.0
853.7928,274.65222,13000364,0.7,0.07446808,109.51898,-513.7242,-0.010889623,0.015709743,0.020341873,0.0,0.0,0.0
855.3313,267.26685,13000381,0.71250004,0.08510638,63.65663,-470.6409,-0.010889623,0.015709743,0.020341873,0.0,0.0,0.0
856.896,258.80676,13000397,0.7,0.11702127,47.960274,-452.4381,-0.010889623,0.015709743,0.020341873,0.0,0.0,0.0
858.40216,251.65149,13000414,0.7,0.12765957,66.80747,-458.8533,-0.010889623,0.015709743,0.020341873,0.0,0.0,0.0
859.94977,244.64893,13000431,0.725,0.12765957,95.47373,-453.06415,-0.010889623,0.015709743,0.020341873,0.0,0.0,0.0
861.7796,238.59143,13000448,0.7,0.11702127,100.30931,-381.88303,-0.010889623,0.015709743,0.020341873,0.0,0.0,0.0
863.3571,232.0946,13000464,0.71250004,0.09574468,106.88494,-335.3097,-0.010889623,0.015709743,0.020341873,0.0,0.0,0.0
864.93524,224.70703,13000481,0.71250004,0.08510638,103.76913,-374.9815,-0.010889623,0.015709743,0.020341873,0.0,0.0,0.0
866.60254,217.16821,13000498,0.71250004,0.09574468,99.85476,-442.7658,-0.010889623,0.015709743,0.020341873,0.0,0.0,0.0
867.19556,209.05408,13000514,0.71250004,0.09574468,72.47858,-500.21072,-0.010889623,0.015709743,0.020341873,0.0,0.0,0.0
867.68317,203.40857,13000531,0.71250004,0.11702127,24.055763,-452.77,-0.010889623,0.015709743,0.020341873,0.0,0.0,0.0
867.6954,197.85901,13000548,0.71250004,0.12765957,-10.90117,-345.99347,-0.010889623,0.015709743,0.020341873,0.0,0.0,0.0
867.6954,193.78967,13000565,0.7,0.12765957,-32.580498,-242.78366,-0.010889623,0.015709743,0.020341873,0.0,0.0,0.0
867.6954,189.62402,13000581,0.71250004,0.12765957,-22.953592,-188.66335,-0.010889623,0.015709743,0.020341873,0.0,0.0,0.0
867.6954,185.08704,13000598,0.7,0.11702127,-11.461581,-199.08037,-0.010889623,0.015709743,0.020341873,0.0,0.0,0.0
867.6954,181.50037,13000615,0.7375,0.09574468,-7.396096,-211.5243,-0.010889623,0.015709743,0.020341873,0.0,0.0,0.0
867.6954,176.39221,13000631,0.71250004,0.09574468,7.3866715E-4,-251.42308,-0.010889623,0.015709743,0.020341873,0.0,0.0,0.0
867.19556,170.86914,13000648,0.71250004,0.09574468,-14.769588,-299.24188,-0.010889623,0.015709743,0.020341873,0.0,0.0,0.0
867.19556,165.91016,13000665,0.71250004,0.08510638,-18.239382,-331.86395,-0.010889623,0.015709743,0.020341873,0.0,0.0,0.0
867.19556,161.39026,13000682,0.71250004,0.09574468,-11.153746,-325.38025,-0.010889623,0.015709743,0.020341873,0.0,0.0,0.0
867.19556,157.68665,13000698,0.71250004,0.09574468,0.79096967,-249.5699,-0.010889623,0.015709743,0.020341873,0.0,0.0,0.0
867.19556,154.01477,13000715,0.725,0.09574468,8.68493,-193.4316,-0.010889623,0.015709743,0.020341873,0.0,0.0,0.0
866.7572,151.91968,13000732,0.7375,0.09574468,-1.8463501,-138.41356,-0.010889623,0.015709743,0.020341873,0.0,0.0,0.0
866.19586,150.92188,13000748,0.75,0.09574468,-33.5517,-69.525246,-0.010889623,0.015709743,0.020341873,0.0,0.0,0.0
865.1581,150.92188,13000765,0.7375,0.09574468,-60.152298,17.796366,-0.010889623,0.015709743,0.020341873,0.0,0.0,0.0
864.1186,150.92188,13000782,0.75,0.09574468,-78.78394,68.70645,-0.010889623,0.015709743,0.020341873,0.0,0.0,0.0
863.0736,152.91797,13000798,0.75,0.09574468,-81.39489,123.93855,-0.010889623,0.015709743,0.020341873,0.0,0.0,0.0
861.5359,154.76294,13000815,0.75,0.09574468,-89.63447,154.7023,-0.010889623,0.015709743,0.020341873,0.0,0.0,0.0
860.5043,157.82898,13000832,0.7375,0.09574468,-85.582664,194.54799,-0.010889623,0.015709743,0.020341873,0.0,0.0,0.0
859.225,161.53625,13000849,0.7375,0.09574468,-74.86985,254.40103,-0.010889623,0.015709743,0.020341873,0.0,0.0,0.0
857.42334,165.71753,13000865,0.725,0.08510638,-92.48093,281.28754,-0.010889623,0.015709743,0.020341873,0.0,0.0,0.0
855.897,170.30322,13000882,0.75,0.10638297,-102.43783,311.72165,0.023288302,0.012567803,2.7370453E-4,0.0,0.0,0.0
853.63684,175.91223,13000899,0.7375,0.12765957,-124.754715,343.25668,0.023288302,0.012567803,2.7370453E-4,0.0,0.0,0.0
851.41235,183.04431,13000915,0.725,0.12765957,-144.97707,401.63354,0.023288302,0.012567803,2.7370453E-4,0.0,0.0,0.0
849.33673,190.42346,13000932,0.7375,0.10638297,-146.23944,482.02905,0.023288302,0.012567803,2.7370453E-4,0.0,0.0,0.0
847.28357,197.81946,13000949,0.75,0.08510638,-137.20473,513.2436,0.023288302,0.012567803,2.7370453E-4,0.0,0.0,0.0
845.1829,207.8739,13000966,0.7375,0.08510638,-126.56941,575.59564,0.023288302,0.012567803,2.7370453E-4,0.0,0.0,0.0
843.2355,215.66858,13000982,0.7375,0.08510638,-117.045975,585.1835,0.023288302,0.012567803,2.7370453E-4,0.0,0.0,0.0
841.51074,224.46558,13000999,0.7375,0.09574468,-111.38183,554.258,0.023288302,0.012567803,2.7370453E-4,0.0,0.0,0.0
840.07367,230.92786,13001016,0.75,0.10638297,-95.36058,464.5616,0.023288302,0.012567803,2.7370453E-4,0.0,0.0,0.0
838.517,239.33069,13001032,0.725,0.10638297,-80.82574,422.59854,0.023288302,0.012567803,2.7370453E-4,0.0,0.0,0.0
836.79297,246.56921,13001049,0.7375,0.08510638,-80.23005,414.54977,0.023288302,0.012567803,2.7370453E-4,0.0,0.0,0.0
834.70807,256.64343,13001066,0.7375,0.08510638,-107.78114,516.0184,0.023288302,0.012567803,2.7370453E-4,0.0,0.0,0.0
833.126,266.714,13001083,0.725,0.08510638,-113.79711,618.4125,0.023288302,0.012567803,2.7370453E-4,0.0,0.0,0.0
831.0527,274.08496,13001099,0.725,0.08510638,-124.54645,592.5985,0.023288302,0.012567803,2.7370453E-4,0.0,0.0,0.0
828.975,281.47144,13001116,0.725,0.10638297,-126.0705,492.05685,0.023288302,0.012567803,2.7370453E-4,0.0,0.0,0.0
827.30145,289.59143,13001133,0.725,0.10638297,-116.545586,392.9191,0.023288302,0.012567803,2.7370453E-4,0.0,0.0,0.0
826.26385,297.13416,13001149,0.7375,0.09574468,-91.37757,391.95435,0.023288302,0.012567803,2.7370453E-4,0.0,0.0,0.0
824.72516,305.40918,13001166,0.7375,0.08510638,-68.15894,473.11224,0.023288302,0.012567803,2.7370453E-4,0.0,0.0,0.0
823.72217,315.18457,13001183,0.725,0.08510638,-50.612064,546.58527,0.023288302,0.012567803,2.7370453E-4,0.0,0.0,0.0
822.6455,324.75342,13001200,0.7375,0.08510638,-51.16745,592.29865,0.023288302,0.012567803,2.7370453E-4,0.0,0.0,0.0
821.59784,332.08765,13001216,0.71250004,0.10638297,-56.753574,550.19464,0.023288302,0.012567803,2.7370453E-4,0.0,0.0,0.0
821.2105,339.4834,13001233,0.71250004,0.12765957,-40.060173,471.32767,0.023288302,0.012567803,2.7370453E-4,0.0,0.0,0.0
819.4984,350.43738,13001250,0.7375,0.10638297,-55.600746,485.92346,0.023288302,0.012567803,2.7370453E-4,0.0,0.0,0.0
819.2112,357.089,13001266,0.71250004,0.08510638,-47.522156,502.62558,0.023288302,0.012567803,2.7370453E-4,0.0,0.0,0.0
819.2112,366.0327,13001283,0.7,0.07446808,-16.932823,545.35016,0.023288302,0.012567803,2.7370453E-4,0.0,0.0,0.0
819.2112,374.3098,13001300,0.71250004,0.07446808,13.274108,521.6352,0.023288302,0.012567803,2.7370453E-4,0.0,0.0,0.0
819.2112,380.1985,13001316,0.725,0.08510638,29.891024,417.64215,0.023288302,0.012567803,2.7370453E-4,0.0,0.0,0.0
819.5915,384.84937,13001333,0.725,0.08510638,20.724722,299.06152,0.023288302,0.012567803,2.7370453E-4,0.0,0.0,0.0
820.1264,388.74072,13001350,0.725,0.10638297,31.738432,171.96774,0.023288302,0.012567803,2.7370453E-4,0.0,0.0,0.0
821.17,392.4508,13001367,0.725,0.12765957,56.86131,125.71556,0.023288302,0.012567803,2.7370453E-4,0.0,0.0,0.0
822.20654,397.0276,13001383,0.725,0.12765957,75.24096,158.52911,0.023288302,0.012567803,2.7370453E-4,0.0,0.0,0.0
823.7421,401.6527,13001400,0.725,0.09574468,100.463684,244.95044,0.023288302,0.012567803,2.7370453E-4,0.0,0.0,0.0
824.7774,405.27576,13001417,0.7375,0.09574468,95.30751,262.3476,0.0026306435,-0.021945745,2.193451E-4,0.0,0.0,0.0
825.82404,407.01514,13001433,0.7375,0.09574468,79.69078,192.21535,0.0026306435,-0.021945745,2.193451E-4,0.0,0.0,0.0
826.8265,408.79712,13001450,0.7375,0.09574468,61.48111,93.00893,0.0026306435,-0.021945745,2.193451E-4,0.0,0.0,0.0
827.9024,409.8213,13001467,0.7375,0.09574468,51.55476,9.626067,0.0026306435,-0.021945745,2.193451E-4,0.0,0.0,0.0
829.44385,411.25342,13001484,0.7375,0.08510638,78.31298,22.729904,0.0026306435,-0.021945745,2.193451E-4,0.0,0.0,0.0
831.2464,412.62085,13001500,0.7375,0.08510638,102.29845,57.767967,0.0026306435,-0.021945745,2.193451E-4,0.0,0.0,0.0
832.99255,413.91882,13001517,0.7375,0.08510638,124.925064,80.07382,0.0026306435,-0.021945745,2.193451E-4,0.0,0.0,0.0
834.67975,413.91882,13001534,0.725,0.08510638,117.947975,43.324818,0.0026306435,-0.021945745,2.193451E-4,0.0,0.0,0.0
836.9799,413.91882,13001550,0.7,0.08510638,125.89006,-15.012026,0.0026306435,-0.021945745,2.193451E-4,0.0,0.0,0.0
839.0118,413.91882,13001567,0.71250004,0.09574468,127.76632,-35.26313,0.0026306435,-0.021945745,2.193451E-4,0.0,0.0,0.0
841.62305,413.10217,13001584,0.71250004,0.09574468,145.62221,-53.001846,0.0026306435,-0.021945745,2.193451E-4,0.0,0.0,0.0
844.2481,411.22668,13001601,0.6875,0.12765957,165.02115,-90.84814,0.0026306435,-0.021945745,2.193451E-4,0.0,0.0,0.0
846.3068,409.38354,13001617,0.7,0.12765957,155.57658,-139.23479,0.0026306435,-0.021945745,2.193451E-4,0.0,0.0,0.0
848.9442,406.52332,13001634,0.7,0.12765957,154.90799,-185.99872,0.0026306435,-0.021945745,2.193451E-4,0.0,0.0,0.0
851.5629,402.82764,13001651,0.71250004,0.12765957,155.87236,-234.99287,0.0026306435,-0.021945745,2.193451E-4,0.0,0.0,0.0
854.71564,399.09143,13001667,0.6875,0.11702127,173.31621,-260.71793,0.0026306435,-0.021945745,2.193451E-4,0.0,0.0,0.0
858.4796,394.21912,13001684,0.6875,0.09574468,212.0776,-297.42596,0.0026306435,-0.021945745,2.193451E-4,0.0,0.0,0.0
863.18365,388.61414,13001701,0.6875,0.07446808,271.06012,-347.06976,0.0026306435,-0.021945745,2.193451E-4,0.0,0.0,0.0
866.70703,382.34692,13001718,0.6875,0.07446808,282.5388,-391.9898,0.0026306435,-0.021945745,2.193451E-4,0.0,0.0,0.0
870.57074,375.9331,13001734,0.7,0.08510638,257.6964,-433.11514,0.0026306435,-0.021945745,2.193451E-4,0.0,0.0,0.0
874.6517,370.21533,13001751,0.71250004,0.08510638,233.17543,-414.72955,0.0026306435,-0.021945745,2.193451E-4,0.0,0.0,0.0
879.3011,364.6831,13001768,0.7,0.09574468,249.7331,-356.80002,0.0026306435,-0.021945745,2.193451E-4,0.0,0.0,0.0
883.89,359.1516,13001784,0.7,0.10638297,279.68356,-320.98788,0.0026306435,-0.021945745,2.193451E-4,0.0,0.0,0.0
888.61707,353.59595,13001801,0.71250004,0.10638297,306.74963,-305.38336,0.0026306435,-0.021945745,2.193451E-4,0.0,0.0,0.0
894.309,347.15076,13001818,0.71250004,0.09574468,324.32474,-350.40134,0.0026306435,-0.021945745,2.193451E-4,0.0,0.0,0.0
899.5765,340.5979,13001835,0.675,0.08510638,334.02927,-388.204,0.0026306435,-0.021945745,2.193451E-4,0.0,0.0,0.0
906.873,331.3003,13001851,0.7,0.08510638,395.48196,-488.86078,0.0026306435,-0.021945745,2.193451E-4,0.0,0.0,0.0
912.4376,322.3949,13001868,0.7,0.09574468,408.11957,-581.7551,0.0026306435,-0.021945745,2.193451E-4,0.0,0.0,0.0
919.1168,315.2307,13001885,0.7,0.08510638,411.50525,-566.53314,0.0026306435,-0.021945745,2.193451E-4,0.0,0.0,0.0
925.9506,310.9862,13001901,0.7,0.09574468,420.21652,-422.31067,0.0026306435,-0.021945745,2.193451E-4,0.0,0.0,0.0
931.8803,307.32092,13001918,0.71250004,0.09574468,378.1148,-172.63055,0.0026306435,-0.021945745,2.193451E-4,0.0,0.0,0.0
939.3296,304.1537,13001935,0.7,0.09574468,404.71518,-81.14905,0.0026306435,-0.021945745,2.193451E-4,0.0,0.0,0.0
946.3189,303.7445,13001951,0.71250004,0.09574468,420.69476,-14.491886,0.0021045133,-0.0015566051,1.7547607E-4,0.0,0.0,0.0
953.515,303.7445,13001968,0.71250004,0.10638297,432.4731,52.55873,0.0021045133,-0.0015566051,1.7547607E-4,0.0,0.0,0.0
959.9127,303.7445,13001985,0.71250004,0.10638297,426.7666,91.3257,0.0021045133,-0.0015566051,1.7547607E-4,0.0,0.0,0.0
965.9397,304.63293,13002002,0.71250004,0.11702127,369.14108,113.890915,0.0021045133,-0.0015566051,1.7547607E-4,0.0,0.0,0.0
971.09314,306.38562,13002018,0.71250004,0.09574468,319.44702,110.53796,0.0021045133,-0.0015566051,1.7547607E-4,0.0,0.0,0.0
975.2959,308.2472,13002035,0.7,0.08510638,262.39743,132.86304,0.0021045133,-0.0015566051,1.7547607E-4,0.0,0.0,0.0
979.4503,310.09338,13002052,0.71250004,0.08510638,214.8371,154.44408,0.0021045133,-0.0015566051,1.7547607E-4,0.0,0.0,0.0
981.9973,311.94177,13002068,0.71250004,0.08510638,157.6489,144.46053,0.0021045133,-0.0015566051,1.7547607E-4,0.0,0.0,0.0
984.00134,313.8235,13002085,0.725,0.08510638,100.40706,122.800316,0.0021045133,-0.0015566051,1.7547607E-4,0.0,0.0,0.0
984.87244,313.51794,13002102,0.725,0.08510638,42.205326,53.15605,0.0021045133,-0.0015566051,1.7547607E-4,0.0,0.0,0.0
985.657,313.51794,13002135,0.75,0.08510638,-28.135143,-53.521496,0.0021045133,-0.0015566051,1.7547607E-4,0.0,0.0,0.0
985.657,314.85083,13002151,0.725,0.08510638,-36.95813,-25.995497,0.0021045133,-0.0015566051,1.7547607E-4,0.0,0.0,0.0
985.657,314.4065,13002185,0.71250004,0.08510638,-15.41171,16.986414,0.0021045133,-0.0015566051,1.7547607E-4,0.0,0.0,0.0
985.657,314.4065,13002199,0.725,0.08510638,-11.786149,2.0401728,0.0021045133,-0.0015566051,1.7547607E-4,0.0,0.0,0.0
984.65125,314.4065,13002236,0.725,0.08510638,-29.916275,-7.578942,0.0021045133,-0.0015566051,1.7547607E-4,0.0,0.0,0.0
983.60986,314.4065,13002252,0.725,0.08510638,-67.53861,-0.004602283,0.0021045133,-0.0015566051,1.7547607E-4,0.0,0.0,0.0
982.56995,312.47314,13002269,0.7375,0.08510638,-79.67972,-63.265347,0.0021045133,-0.0015566051,1.7547607E-4,0.0,0.0,0.0
981.5088,312.62952,13002286,0.725,0.08510638,-82.82075,-65.577354,0.0021045133,-0.0015566051,1.7547607E-4,0.0,0.0,0.0
980.47095,312.62952,13002302,0.7375,0.08510638,-62.639454,-9.931029,0.0021045133,-0.0015566051,1.7547607E-4,0.0,0.0,0.0
979.43286,310.4508,13002319,0.71250004,0.09574468,-62.52422,-54.258602,0.0021045133,-0.0015566051,1.7547607E-4,0.0,0.0,0.0
978.9169,310.85254,13002336,0.71250004,0.09574468,-45.252094,-33.737934,0.0021045133,-0.0015566051,1.7547607E-4,0.0,0.0,0.0
977.9094,310.85254,13002352,0.725,0.09574468,-45.779232,-15.228037,0.0021045133,-0.0015566051,1.7547607E-4,0.0,0.0,0.0
977.3367,310.85254,13002369,0.725,0.09574468,-38.049557,11.930231,0.0021045133,-0.0015566051,1.7547607E-4,0.0,0.0,0.0
977.1598,310.85254,13002386,0.71250004,0.09574468,-26.88184,38.39613,0.0021045133,-0.0015566051,1.7547607E-4,0.0,0.0,0.0
977.1598,310.85254,13002403,0.65000004,0.09574468,-1.5011239,9.12608,0.0021045133,-0.0015566051,1.7547607E-4,0.0,0.0,0.0
977.1598,310.85254,13002404,0.3125,0.09574468,1.0640198,7.9895573,0.0021045133,-0.0015566051,1.7547607E-4,0.0,0.0,0.0
977.1598,310.85254,13002412,0.3125,0.09574468,1.0640198,7.9895573,0.0021045133,-0.0015566051,1.7547607E-4,0.0,0.0,0.0
1004.65076,333.06506,13003044,0.475,0.07446808,0.0,0.0,0.00774689,0.015003771,-0.0030870438,0.0,0.0,0.0
1004.65076,333.06506,13003071,0.58750004,0.053191487,-0.01898497,-0.0027831437,0.00774689,0.015003771,-0.0030870438,0.0,0.0,0.0
1004.65076,333.06506,13003082,0.625,0.08510638,0.0317466,0.01093201,0.00774689,0.015003771,-0.0030870438,0.0,0.0,0.0
1004.65076,333.06506,13003104,0.65000004,0.08510638,0.05456805,0.018920789,0.00774689,0.015003771,-0.0030870438,0.0,0.0,0.0
1004.65076,333.06506,13003121,0.675,0.08510638,-0.014649047,-0.004573593,0.00774689,0.015003771,-0.0030870438,0.0,0.0,0.0
1004.65076,333.06506,13003138,0.6875,0.08510638,-0.06049556,-0.020385163,0.00774689,0.015003771,-0.0030870438,0.0,0.0,0.0
1004.65076,333.06506,13003155,0.675,0.06382979,-0.0052230596,-0.001438222,0.00774689,0.015003771,-0.0030870438,0.0,0.0,0.0
1004.65076,333.06506,13003160,0.6875,0.06382979,0.042228695,0.012359671,0.00774689,0.015003771,-0.0030870438,0.0,0.0,0.0
1004.65076,333.06506,13003181,0.6875,0.08510638,-0.030847494,-0.009889131,0.00774689,0.015003771,-0.0030870438,0.0,0.0,0.0
989.9707,323.27942,13003205,0.7,0.08510638,-288.4018,-192.25697,0.00774689,0.015003771,-0.0030870438,0.0,0.0,0.0
978.67224,317.07776,13003221,0.7,0.09574468,-884.0293,-552.5487,0.00774689,0.015003771,-0.0030870438,0.0,0.0,0.0
971.41516,315.22205,13003238,0.7,0.08510638,-871.74426,-430.6578,0.00774689,0.015003771,-0.0030870438,0.0,0.0,0.0
963.58923,315.29504,13003255,0.7,0.08510638,-701.03204,-178.66188,0.00774689,0.015003771,-0.0030870438,0.0,0.0,0.0
955.0806,316.4248,13003272,0.71250004,0.08510638,-375.18222,190.89696,0.00774689,0.015003771,-0.0030870438,0.0,0.0,0.0
947.47925,318.3131,13003288,0.71250004,0.08510638,-310.2441,315.63678,0.00774689,0.015003771,-0.0030870438,0.0,0.0,0.0
940.27545,321.33496,13003305,0.6875,0.07446808,-440.82825,258.2366,0.00774689,0.015003771,-0.0030870438,0.0,0.0,0.0
934.4869,325.02356,13003322,0.7,0.08510638,-400.96185,271.02817,0.00774689,0.015003771,-0.0030870438,0.0,0.0,0.0
929.57227,328.7141,13003338,0.7,0.09574468,-294.1336,288.51624,0.00774689,0.015003771,-0.0030870438,0.0,0.0,0.0
925.72437,332.41602,13003355,0.7,0.11702127,-202.15744,270.80643,0.00774689,0.015003771,-0.0030870438,0.0,0.0,0.0
921.90173,337.99805,13003372,0.71250004,0.12765957,-149.23438,276.5211,0.00774689,0.015003771,-0.0030870438,0.0,0.0,0.0
918.00006,345.63208,13003389,0.7,0.12765957,-164.2775,395.9104,0.00774689,0.015003771,-0.0030870438,0.0,0.0,0.0
915.74567,352.26062,13003405,0.6875,0.11702127,-167.38737,501.54276,0.00774689,0.015003771,-0.0030870438,0.0,0.0,0.0
914.7067,360.4192,13003422,0.71250004,0.09574468,-92.8221,544.7832,0.00774689,0.015003771,-0.0030870438,0.0,0.0,0.0
915.1794,369.48865,13003439,0.6875,0.08510638,18.508852,557.2712,0.00774689,0.015003771,-0.0030870438,0.0,0.0,0.0
916.7787,377.84302,13003455,0.7,0.09574468,139.58052,552.0684,0.00774689,0.015003771,-0.0030870438,0.0,0.0,0.0
919.4476,385.23572,13003472,0.6875,0.11702127,210.61667,525.0116,0.00774689,0.015003771,-0.0030870438,0.0,0.0,0.0
922.0645,388.61047,13003489,0.6875,0.12765957,238.32292,355.58945,0.00774689,0.015003771,-0.0030870438,0.0,0.0,0.0
926.7994,394.6239,13003506,0.6875,0.10638297,284.9227,228.6319,0.00774689,0.015003771,-0.0030870438,0.0,0.0,0.0
933.61957,400.8037,13003522,0.6875,0.10638297,382.89142,237.88078,0.00774689,0.015003771,-0.0030870438,0.0,0.0,0.0
940.0829,406.28748,13003539,0.6875,0.09574468,477.1844,328.73648,-0.025802488,-0.01999697,-0.01846981,0.0,0.0,0.0
947.4675,410.4973,13003556,0.675,0.09574468,511.02383,332.5674,-0.025802488,-0.01999697,-0.01846981,0.0,0.0,0.0
954.7973,412.72607,13003572,0.675,0.08510638,495.1772,193.74396,-0.025802488,-0.01999697,-0.01846981,0.0,0.0,0.0
961.36975,413.68335,13003589,0.6625,0.09574468,451.22656,32.7251,-0.025802488,-0.01999697,-0.01846981,0.0,0.0,0.0
967.2003,413.91882,13003606,0.6625,0.09574468,398.21286,-56.107258,-0.025802488,-0.01999697,-0.01846981,0.0,0.0,0.0
973.7721,413.91882,13003622,0.675,0.10638297,348.56012,-93.286835,-0.025802488,-0.01999697,-0.01846981,0.0,0.0,0.0
980.55505,412.1681,13003639,0.6625,0.09574468,347.77002,-111.10575,-0.025802488,-0.01999697,-0.01846981,0.0,0.0,0.0
986.22156,408.5304,13003656,0.6625,0.10638297,376.5727,-196.97517,-0.025802488,-0.01999697,-0.01846981,0.0,0.0,0.0
990.9535,404.8219,13003673,0.675,0.10638297,330.54373,-282.3057,-0.025802488,-0.01999697,-0.01846981,0.0,0.0,0.0
993.95374,401.12524,13003689,0.675,0.09574468,220.3095,-313.1771,-0.025802488,-0.01999697,-0.01846981,0.0,0.0,0.0
996.61365,393.89722,13003706,0.675,0.08510638,108.75424,-370.3232,-0.025802488,-0.01999697,-0.01846981,0.0,0.0,0.0
998.3579,382.412,13003723,0.6875,0.06382979,58.581043,-567.66895,-0.025802488,-0.01999697,-0.01846981,0.0,0.0,0.0
998.6527,372.24866,13003739,0.7,0.08510638,17.340765,-770.8241,-0.025802488,-0.01999697,-0.01846981,0.0,0.0,0.0
997.89636,364.1151,13003756,0.6875,0.09574468,-62.90083,-760.116,-0.025802488,-0.01999697,-0.01846981,0.0,0.0,0.0
996.0603,356.72327,13003773,0.6875,0.10638297,-146.61063,-576.1425,-0.025802488,-0.01999697,-0.01846981,0.0,0.0,0.0
993.1455,349.93066,13003790,0.6875,0.09574468,-222.69637,-374.7236,-0.025802488,-0.01999697,-0.01846981,0.0,0.0,0.0
990.0393,344.40918,13003806,0.7,0.08510638,-250.91263,-290.46417,-0.025802488,-0.01999697,-0.01846981,0.0,0.0,0.0
987.3262,339.5863,13003823,0.71250004,0.08510638,-245.12924,-239.42819,-0.025802488,-0.01999697,-0.01846981,0.0,0.0,0.0
984.3458,335.09326,13003840,0.71250004,0.08510638,-199.71672,-199.23418,-0.025802488,-0.01999697,-0.01846981,0.0,0.0,0.0
980.67847,329.5376,13003856,0.7,0.09574468,-191.5186,-227.19102,-0.025802488,-0.01999697,-0.01846981,0.0,0.0,0.0
978.09045,326.7843,13003873,0.725,0.09574468,-193.38658,-228.44339,-0.025802488,-0.01999697,-0.01846981,0.0,0.0,0.0
974.9408,324.93848,13003890,0.71250004,0.09574468,-192.89166,-146.61649,-0.025802488,-0.01999697,-0.01846981,0.0,0.0,0.0
971.8115,324.18005,13003907,0.71250004,0.08510638,-188.17766,-41.639946,-0.025802488,-0.01999697,-0.01846981,0.0,0.0,0.0
967.24854,325.39368,13003923,0.71250004,0.08510638,-207.03026,91.32635,-0.025802488,-0.01999697,-0.01846981,0.0,0.0,0.0
959.6122,328.42407,13003940,0.7,0.08510638,-351.6344,207.12927,-0.025802488,-0.01999697,-0.01846981,0.0,0.0,0.0
954.24536,332.10718,13003957,0.7,0.09574468,-472.3574,299.4207,-0.025802488,-0.01999697,-0.01846981,0.0,0.0,0.0
950.3591,335.32153,13003973,0.71250004,0.10638297,-395.0307,329.48557,-0.025802488,-0.01999697,-0.01846981,0.0,0.0,0.0
947.2474,337.71155,13003990,0.6875,0.10638297,-225.61359,238.63089,-0.025802488,-0.01999697,-0.01846981,0.0,0.0,0.0
945.67,341.39636,13004007,0.7,0.10638297,-53.593575,180.30162,-0.025802488,-0.01999697,-0.01846981,0.0,0.0,0.0
946.055,346.66858,13004024,0.7,0.10638297,44.266113,228.26743,-0.025802488,-0.01999697,-0.01846981,0.0,0.0,0.0
948.7981,350.5055,13004040,0.7,0.09574468,148.32399,291.63043,-0.025802488,-0.01999697,-0.01846981,0.0,0.0,0.0
954.9068,355.96802,13004057,0.7,0.08510638,353.2516,340.44534,-0.025802488,-0.01999697,-0.01846981,0.0,0.0,0.0
963.22437,360.63525,13004074,0.6875,0.09574468,568.7372,328.09848,-0.025802488,-0.01999697,-0.01846981,0.0,0.0,0.0
972.60583,363.36194,13004090,0.675,0.08510638,698.4051,247.09462,-0.004641991,0.016002417,0.0012245178,0.0,0.0,0.0
983.44104,365.05115,13004107,0.675,0.08510638,779.2741,139.72325,-0.004641991,0.016002417,0.0012245178,0.0,0.0,0.0
994.42615,363.95728,13004124,0.675,0.08510638,766.28436,-30.278774,-0.004641991,0.016002417,0.0012245178,0.0,0.0,0.0
1003.1588,360.8274,13004140,0.675,0.09574468,676.0943,-214.5151,-0.004641991,0.016002417,0.0012245178,0.0,0.0,0.0
1011.5653,355.9757,13004157,0.6875,0.12765957,564.4873,-362.67236,-0.004641991,0.016002417,0.0012245178,0.0,0.0,0.0
1019.1124,350.8551,13004174,0.7,0.12765957,437.41974,-444.15274,-0.004641991,0.016002417,0.0012245178,0.0,0.0,0.0
1024.8485,347.16016,13004191,0.7,0.11702127,348.4699,-375.87988,-0.004641991,0.016002417,0.0012245178,0.0,0.0,0.0
1030.2465,342.58704,13004207,0.7,0.08510638,275.17575,-295.99268,-0.004641991,0.016002417,0.0012245178,0.0,0.0,0.0
1035.0538,338.02917,13004224,0.71250004,0.08510638,227.29964,-249.54163,-0.004641991,0.016002417,0.0012245178,0.0,0.0,0.0
1039.2205,334.32593,13004241,0.7,0.08510638,203.26839,-239.55624,-0.004641991,0.016002417,0.0012245178,0.0,0.0,0.0
1041.5073,330.6333,13004257,0.7,0.06382979,157.93616,-228.2674,-0.004641991,0.016002417,0.0012245178,0.0,0.0,0.0
1043.0939,326.07544,13004274,0.7,0.06382979,74.24868,-218.66473,-0.004641991,0.016002417,0.0012245178,0.0,0.0,0.0
1045.7205,319.5409,13004291,0.71250004,0.08510638,52.920547,-303.26566,-0.004641991,0.016002417,0.0012245178,0.0,0.0,0.0
1046.6954,314.09546,13004308,0.71250004,0.09574468,47.682354,-385.31766,-0.004641991,0.016002417,0.0012245178,0.0,0.0,0.0
1046.6371,309.6172,13004324,0.7375,0.09574468,19.203972,-383.064,-0.004641991,0.016002417,0.0012245178,0.0,0.0,0.0
1046.6371,305.89844,13004341,0.7,0.10638297,-18.665852,-287.4079,-0.004641991,0.016002417,0.0012245178,0.0,0.0,0.0
1046.6371,303.39172,13004358,0.725,0.10638297,-54.35685,-162.08922,-0.004641991,0.016002417,0.0012245178,0.0,0.0,0.0
1045.6375,301.58826,13004374,0.71250004,0.12765957,-76.47168,-65.14654,-0.004641991,0.016002417,0.0012245178,0.0,0.0,0.0
1044.8843,299.7401,13004391,0.71250004,0.12765957,-60.9905,-46.90481,-0.004641991,0.016002417,0.0012245178,0.0,0.0,0.0
1043.8444,297.8916,13004408,0.725,0.12765957,-76.467606,-61.948563,-0.004641991,0.016002417,0.0012245178,0.0,0.0,0.0
1042.8102,296.05322,13004425,0.725,0.12765957,-80.48013,-84.66767,-0.004641991,0.016002417,0.0012245178,0.0,0.0,0.0
1041.7706,294.2052,13004441,0.725,0.12765957,-71.7653,-109.449554,-0.004641991,0.016002417,0.0012245178,0.0,0.0,0.0
1040.7332,292.3612,13004458,0.725,0.10638297,-69.73017,-108.67468,-0.004641991,0.016002417,0.0012245178,0.0,0.0,0.0
1039.7415,290.59827,13004475,0.725,0.10638297,-58.67698,-104.48034,-0.004641991,0.016002417,0.0012245178,0.0,0.0,0.0
1038.6495,288.65723,13004491,0.725,0.10638297,-61.09362,-108.74507,-0.004641991,0.016002417,0.0012245178,0.0,0.0,0.0
1037.6097,286.80908,13004508,0.725,0.10638297,-64.08427,-113.87262,-0.004641991,0.016002417,0.0012245178,0.0,0.0,0.0
1036.5695,285.84827,13004525,0.725,0.10638297,-64.63605,-86.24425,-0.004641991,0.016002417,0.0012245178,0.0,0.0,0.0
1036.6404,285.97437,13004542,0.725,0.10638297,-33.356747,-28.829357,-0.004641991,0.016002417,0.0012245178,0.0,0.0,0.0
1035.8906,285.97437,13004553,0.725,0.10638297,-22.908613,11.730689,-0.004641991,0.016002417,0.0012245178,0.0,0.0,0.0
1035.6407,285.97437,13004575,0.7375,0.11702127,-6.2965717,44.054173,-0.004641991,0.016002417,0.0012245178,0.0,0.0,0.0
1035.6407,285.97437,13004592,0.7375,0.10638297,1.1830624,27.5526,-0.004641991,0.016002417,0.0012245178,0.0,0.0,0.0
1035.6407,285.97437,13004608,0.7375,0.10638297,3.3891008,10.248044,-0.004641991,0.016002417,0.0012245178,0.0,0.0,0.0
1035.6407,285.97437,13004616,0.725,0.10638297,5.694305,-0.95203656,0.028286405,-0.01919806,-0.031020164,0.0,0.0,0.0
1035.6407,285.08594,13004652,0.725,0.10638297,3.4969866,-25.856783,0.028286405,-0.01919806,-0.031020164,0.0,0.0,0.0
1035.6407,285.08594,13004675,0.71250004,0.10638297,-0.012958796,-21.939297,0.028286405,-0.01919806,-0.031020164,0.0,0.0,0.0
1035.6407,283.38513,13004692,0.71250004,0.10638297,-0.111562215,-58.957603,0.028286405,-0.01919806,-0.031020164,0.0,0.0,0.0
1035.6407,283.30884,13004709,0.725,0.10638297,-0.0067354036,-52.7871,0.028286405,-0.01919806,-0.031020164,0.0,0.0,0.0
1035.6407,283.30884,13004741,0.725,0.08510638,0.0047946027,6.313436,0.028286405,-0.01919806,-0.031020164,0.0,0.0,0.0
1035.6407,283.30884,13004759,0.725,0.10638297,-0.041837446,39.21143,0.028286405,-0.01919806,-0.031020164,0.0,0.0,0.0
1035.6407,283.30884,13004775,0.7375,0.10638297,-0.01852068,12.418237,0.028286405,-0.01919806,-0.031020164,0.0,0.0,0.0
1035.6407,283.30884,13004809,0.71250004,0.10638297,0.03903993,0.010619566,0.028286405,-0.01919806,-0.031020164,0.0,0.0,0.0
1035.6407,283.30884,13004826,0.7375,0.10638297,-0.0034925353,2.0585422E-4,0.028286405,-0.01919806,-0.031020164,0.0,0.0,0.0
1035.957,283.30884,13004842,0.7375,0.10638297,6.8465705,-0.0037321548,0.028286405,-0.01919806,-0.031020164,0.0,0.0,0.0
1036.1405,283.30884,13004858,0.725,0.10638297,19.050724,-0.003090597,0.028286405,-0.01919806,-0.031020164,0.0,0.0,0.0
1037.0366,283.30884,13004876,0.725,0.10638297,45.477943,-0.008660078,0.028286405,-0.01919806,-0.031020164,0.0,0.0,0.0
1038.4717,284.93652,13004892,0.725,0.12765957,72.08274,43.113167,0.028286405,-0.01919806,-0.031020164,0.0,0.0,0.0
1041.5502,288.5349,13004909,0.7375,0.10638297,143.60086,149.49554,0.028286405,-0.01919806,-0.031020164,0.0,0.0,0.0
1045.71,294.0741,13004926,0.725,0.09574468,246.93936,314.8708,0.028286405,-0.01919806,-0.031020164,0.0,0.0,0.0
1050.9006,302.4381,13004943,0.725,0.08510638,348.66626,507.17453,0.028286405,-0.01919806,-0.031020164,0.0,0.0,0.0
1057.2565,312.84753,13004959,0.725,0.08510638,424.93018,688.20825,0.028286405,-0.01919806,-0.031020164,0.0,0.0,0.0
1064.6975,326.96326,13004976,0.71250004,0.10638297,504.04822,913.20996,0.028286405,-0.01919806,-0.031020164,0.0,0.0,0.0
1070.0918,336.55212,13004993,0.725,0.12765957,459.60254,880.50775,0.028286405,-0.01919806,-0.031020164,0.0,0.0,0.0
1079.5121,354.93042,13005009,0.7,0.09574468,487.15704,960.2595,0.028286405,-0.01919806,-0.031020164,0.0,0.0,0.0
1086.3689,372.14417,13005026,0.725,0.09574468,485.76373,1069.8043,0.028286405,-0.01919806,-0.031020164,0.0,0.0,0.0
1091.8545,386.03687,13005043,0.725,0.10638297,405.4145,1047.9226,0.028286405,-0.01919806,-0.031020164,0.0,0.0,0.0
1096.4207,401.34558,13005060,0.725,0.12765957,321.79092,1020.3089,0.028286405,-0.01919806,-0.031020164,0.0,0.0,0.0
1099.3391,418.28162,13005076,0.71250004,0.08510638,147.13338,880.00275,0.028286405,-0.01919806,-0.031020164,0.0,0.0,0.0
1100.1198,434.77844,13005093,0.71250004,0.08510638,45.26762,986.17065,0.028286405,-0.01919806,-0.031020164,0.0,0.0,0.0
1098.2413,448.70642,13005110,0.71250004,0.12765957,-100.58248,987.39557,0.028286405,-0.01919806,-0.031020164,0.0,0.0,0.0
1096.152,462.59326,13005126,0.71250004,0.10638297,-240.1853,868.859,0.028286405,-0.01919806,-0.031020164,0.0,0.0,0.0
1093.664,475.02588,13005143,0.7375,0.08510638,-279.99664,721.1832,0.028286405,-0.01919806,-0.031020164,0.0,0.0,0.0
1088.7959,487.59094,13005160,0.725,0.09574468,-305.58072,669.9713,-0.009370875,-0.015358448,0.023182869,0.0,0.0,0.0
1083.5956,495.33716,13005176,0.725,0.12765957,-349.25793,586.5214,-0.009370875,-0.015358448,0.023182869,0.0,0.0,0.0
1066.5767,510.54236,13005193,0.75,0.10638297,-671.2698,610.83264,-0.009370875,-0.015358448,0.023182869,0.0,0.0,0.0
1044.73,523.15027,13005210,0.7375,0.08510638,-1226.1473,707.3812,-0.009370875,-0.015358448,0.023182869,0.0,0.0,0.0
1012.63684,538.68494,13005227,0.71250004,0.08510638,-1917.8745,874.55975,-0.009370875,-0.015358448,0.023182869,0.0,0.0,0.0
953.81415,574.952,13005243,0.625,0.12765957,-3115.5913,1532.9182,-0.009370875,-0.015358448,0.023182869,0.0,0.0,0.0
935.6733,588.954,13005247,0.275,0.08510638,-3461.0098,1823.9396,-0.009370875,-0.015358448,0.023182869,0.0,0.0,0.0
935.6733,588.954,13005255,0.275,0.08510638,-3461.0098,1823.9396,-0.009370875,-0.015358448,0.023182869,0.0,0.0,0.0
766.2284,265.53882,13005787,0.6875,0.08510638,0.0,0.0,0.024503298,0.051713243,0.034546852,0.0,0.0,0.0
766.2284,265.53882,13005812,0.7375,0.08510638,-0.07757475,-0.027794275,0.024503298,0.051713243,0.034546852,0.0,0.0,0.0
798.24646,254.35913,13005828,0.75,0.11702127,2487.9524,-868.68823,0.024503298,0.051713243,0.034546852,0.0,0.0,0.0
823.65125,250.94055,13005845,0.75,0.09574468,2641.3735,-643.8796,0.024503298,0.051713243,0.034546852,0.0,0.0,0.0
864.16754,249.54578,13005862,0.725,0.10638297,2990.9148,-341.43372,0.024503298,0.051713243,0.034546852,0.0,0.0,0.0
905.9941,249.54578,13005878,0.71250004,0.10638297,3199.403,-107.289116,0.024503298,0.051713243,0.034546852,0.0,0.0,0.0
939.6408,249.54578,13005895,0.71250004,0.09574468,2755.9062,178.5858,0.024503298,0.051713243,0.034546852,0.0,0.0,0.0
962.6644,249.54578,13005908,0.35,0.12765957,2460.5908,238.4454,0.024503298,0.051713243,0.034546852,0.0,0.0,0.0
962.6644,249.54578,13005915,0.35,0.12765957,2460.5908,238.4454,0.024503298,0.051713243,0.034546852,0.0,0.0,0.0
