x,y,timestamp,pressure,fingerarea,velocityx,velocityy,accelx,accely,accelz,gyrox,gyroy,gyroz
253.8952,238.88379,13027940,0.65000004,0.12765957,0.0,0.0,0.015955728,0.035724834,0.025249481,0.0,0.0,0.0
253.8952,238.88379,13027969,0.6625,0.12765957,0.0010028011,0.0017178578,0.015955728,0.035724834,0.025249481,0.0,0.0,0.0
253.8952,238.88379,13027984,0.7,0.12765957,0.031733837,0.029195,0.015955728,0.035724834,0.025249481,0.0,0.0,0.0
253.8952,238.88379,13028019,0.71250004,0.12765957,0.02176689,0.018754108,0.015955728,0.035724834,0.025249481,0.0,0.0,0.0
253.8952,238.88379,13028036,0.7625,0.12765957,-3.66388E-4,-9.61931E-4,0.015955728,0.035724834,0.025249481,0.0,0.0,0.0
253.8952,238.88379,13028053,0.75,0.12765957,-0.016835265,-0.014465585,0.015955728,0.035724834,0.025249481,0.0,0.0,0.0
253.8952,238.88379,13028070,0.75,0.12765957,0.010526668,0.009940671,0.015955728,0.035724834,0.025249481,0.0,0.0,0.0
253.8952,238.88379,13028086,0.7625,0.12765957,-0.020476531,-0.019410452,0.015955728,0.035724834,0.025249481,0.0,0.0,0.0
253.8952,238.88379,13028103,0.77500004,0.10638297,0.013752434,0.01138697,0.012764584,0.02857986,-0.011800766,0.0,0.0,0.0
253.8952,238.88379,13028120,0.8,0.10638297,0.01670831,0.015460473,0.012764584,0.02857986,-0.011800766,0.0,0.0,0.0
253.8952,238.88379,13028136,0.77500004,0.08510638,0.004383034,0.0047487593,0.012764584,0.02857986,-0.011800766,0.0,0.0,0.0
253.8952,238.88379,13028152,0.7875,0.09574468,0.036348555,0.034457438,0.012764584,0.02857986,-0.011800766,0.0,0.0,0.0
253.8952,238.88379,13028170,0.8,0.09574468,0.016685251,0.016012572,0.012764584,0.02857986,-0.011800766,0.0,0.0,0.0
253.8952,238.88379,13028187,0.8,0.09574468,-0.0026821233,-0.0032422284,0.012764584,0.02857986,-0.011800766,0.0,0.0,0.0
253.8952,238.88379,13028203,0.8,0.10638297,0.01642047,0.015252002,0.012764584,0.02857986,-0.011800766,0.0,0.0,0.0
241.14496,239.66528,13028220,0.8125,0.09574468,-233.29399,14.3244705,0.012764584,0.02857986,-0.011800766,0.0,0.0,0.0
225.96878,244.18604,13028237,0.825,0.12765957,-866.90295,132.85744,0.012764584,0.02857986,-0.011800766,0.0,0.0,0.0
216.62933,252.52014,13028253,0.85,0.09574468,-1136.5527,442.99387,0.012764584,0.02857986,-0.011800766,0.0,0.0,0.0
208.83102,264.66187,13028270,0.83750004,0.08510638,-914.3346,731.53436,0.012764584,0.02857986,-0.011800766,0.0,0.0,0.0
196.88358,284.25098,13028287,0.85,0.12765957,-632.15906,1112.4674,0.012764584,0.02857986,-0.011800766,0.0,0.0,0.0
187.27516,304.792,13028303,0.8625,0.08510638,-446.98944,1427.3113,0.012764584,0.02857986,-0.011800766,0.0,0.0,0.0
176.73755,328.9474,13028320,0.85,0.09574468,-621.5507,1704.0399,0.012764584,0.02857986,-0.011800766,0.0,0.0,0.0
166.61897,348.6416,13028337,0.83750004,0.12765957,-676.6439,1600.0437,0.012764584,0.02857986,-0.011800766,0.0,0.0,0.0
156.50154,371.68616,13028354,0.85,0.09574468,-608.58093,1433.7885,0.012764584,0.02857986,-0.011800766,0.0,0.0,0.0
148.63448,388.1449,13028370,0.85,0.12765957,-531.79675,1189.3197,0.012764584,0.02857986,-0.011800766,0.0,0.0,0.0
136.49243,403.30884,13028387,0.85,0.09574468,-535.1511,860.1128,0.012764584,0.02857986,-0.011800766,0.0,0.0,0.0
119.28133,423.35107,13028404,0.85,0.08510638,-805.7466,893.2989,0.012764584,0.02857986,-0.011800766,0.0,0.0,0.0
106.33182,437.04712,13028420,0.83750004,0.11702127,-993.3055,859.867,0.012764584,0.02857986,-0.011800766,0.0,0.0,0.0
93.839615,445.7058,13028437,0.83750004,0.12765957,-985.6008,726.56726,0.012764584,0.02857986,-0.011800766,0.0,0.0,0.0
82.33377,448.59143,13028454,0.875,0.10638297,-788.1624,308.6903,0.012764584,0.02857986,-0.011800766,0.0,0.0,0.0
74.08882,447.58936,13028471,0.8625,0.09574468,-518.5666,-211.36374,0.012764584,0.02857986,-0.011800766,0.0,0.0,0.0
68.49242,439.5863,13028487,0.85,0.08510638,-333.2539,-590.67145,0.012764584,0.02857986,-0.011800766,0.0,0.0,0.0
66.95607,420.62695,13028504,0.85,0.10638297,-118.264595,-1094.28,0.012764584,0.02857986,-0.011800766,0.0,0.0,0.0
70.71835,403.75806,13028521,0.8625,0.09574468,217.28654,-1435.5608,0.012764584,0.02857986,-0.011800766,0.0,0.0,0.0
77.10277,393.9497,13028537,0.85,0.08510638,506.4135,-1325.4941,0.012764584,0.02857986,-0.011800766,0.0,0.0,0.0
85.675995,384.6172,13028554,0.8625,0.09574468,717.7304,-789.5609,0.012764584,0.02857986,-0.011800766,0.0,0.0,0.0
99.01906,378.25134,13028571,0.8625,0.08510638,870.64056,-309.74042,0.012764584,0.02857986,-0.011800766,0.0,0.0,0.0
116.00786,378.65417,13028588,0.83750004,0.08510638,1074.1067,-6.7550225,0.012764584,0.02857986,-0.011800766,0.0,0.0,0.0
132.3354,386.02026,13028604,0.83750004,0.08510638,1224.6213,397.55878,0.012764584,0.02857986,-0.011800766,0.0,0.0,0.0
143.5936,395.32202,13028621,0.83750004,0.12765957,1102.0642,811.6658,0.012764584,0.02857986,-0.011800766,0.0,0.0,0.0
155.10672,406.01538,13028638,0.83750004,0.10638297,778.2146,990.5218,-0.0057883337,-0.041136116,-0.025440216,0.0,0.0,0.0
167.29018,417.34375,13028654,0.83750004,0.08510638,571.10455,972.2176,-0.0057883337,-0.041136116,-0.025440216,0.0,0.0,0.0
181.25497,428.39087,13028671,0.85,0.08510638,653.01166,809.47034,-0.0057883337,-0.041136116,-0.025440216,0.0,0.0,0.0
194.31097,437.63257,13028688,0.8625,0.11702127,788.1921,671.26056,-0.0057883337,-0.041136116,-0.025440216,0.0,0.0,0.0
208.62717,443.67212,13028705,0.85,0.10638297,884.94934,490.31015,-0.0057883337,-0.041136116,-0.025440216,0.0,0.0,0.0
227.2833,447.2909,13028721,0.85,0.09574468,1013.4476,241.77168,-0.0057883337,-0.041136116,-0.025440216,0.0,0.0,0.0
245.16959,447.682,13028738,0.83750004,0.11702127,1151.9973,3.1093602,-0.0057883337,-0.041136116,-0.025440216,0.0,0.0,0.0
257.3023,443.82385,13028755,0.825,0.08510638,1026.0952,-262.93832,-0.0057883337,-0.041136116,-0.025440216,0.0,0.0,0.0
270.56488,435.10962,13028771,0.825,0.08510638,790.00037,-544.52167,-0.0057883337,-0.041136116,-0.025440216,0.0,0.0,0.0
284.31744,422.59546,13028788,0.825,0.09574468,657.4751,-857.20654,-0.0057883337,-0.041136116,-0.025440216,0.0,0.0,0.0
294.14383,411.7401,13028805,0.825,0.12765957,624.7164,-1005.1626,-0.0057883337,-0.041136116,-0.025440216,0.0,0.0,0.0
301.57425,403.3225,13028821,0.8125,0.10638297,520.7669,-842.0246,-0.0057883337,-0.041136116,-0.025440216,0.0,0.0,0.0
308.55,397.58875,13028838,0.8125,0.11702127,323.7607,-522.6388,-0.0057883337,-0.041136116,-0.025440216,0.0,0.0,0.0
318.8809,392.75415,13028855,0.825,0.08510638,317.77698,-224.44688,-0.0057883337,-0.041136116,-0.025440216,0.0,0.0,0.0
333.91324,389.92444,13028872,0.8125,0.08510638,663.68195,-85.38483,-0.0057883337,-0.041136116,-0.025440216,0.0,0.0,0.0
346.33902,389.04077,13028888,0.8125,0.08510638,913.956,-2.651841,-0.0057883337,-0.041136116,-0.025440216,0.0,0.0,0.0
355.4856,389.04077,13028905,0.825,0.09574468,861.8412,80.69487,-0.0057883337,-0.041136116,-0.025440216,0.0,0.0,0.0
362.11417,389.04077,13028922,0.8125,0.09574468,569.5121,113.4557,-0.0057883337,-0.041136116,-0.025440216,0.0,0.0,0.0
368.3141,390.21252,13028938,0.8125,0.10638297,268.58746,123.69844,-0.0057883337,-0.041136116,-0.025440216,0.0,0.0,0.0
375.04395,391.16968,13028955,0.83750004,0.10638297,188.63477,106.483665,-0.0057883337,-0.041136116,-0.025440216,0.0,0.0,0.0
382.04266,393.01746,13028972,0.83750004,0.09574468,333.23166,118.56896,-0.0057883337,-0.041136116,-0.025440216,0.0,0.0,0.0
385.90857,393.48328,13028989,0.83750004,0.09574468,346.17776,112.75962,-0.0057883337,-0.041136116,-0.025440216,0.0,0.0,0.0
387.67188,393.48328,13029005,0.825,0.09574468,184.40642,40.529297,-0.0057883337,-0.041136116,-0.025440216,0.0,0.0,0.0
388.35144,391.9895,13029022,0.825,0.09574468,-9.790253,-62.23211,-0.0057883337,-0.041136116,-0.025440216,0.0,0.0,0.0
388.00085,390.19458,13029039,0.8125,0.08510638,-137.65492,-155.23859,-0.0057883337,-0.041136116,-0.025440216,0.0,0.0,0.0
386.00858,386.65308,13029055,0.825,0.08510638,-179.45798,-213.96346,-0.0057883337,-0.041136116,-0.025440216,0.0,0.0,0.0
382.4536,382.0664,13029072,0.8125,0.08510638,-231.57376,-284.791,-0.0057883337,-0.041136116,-0.025440216,0.0,0.0,0.0
374.72195,376.52234,13029089,0.8125,0.08510638,-410.43646,-373.6862,-0.0057883337,-0.041136116,-0.025440216,0.0,0.0,0.0
356.15417,372.94043,13029106,0.8125,0.08510638,-863.53186,-362.50003,-0.0057883337,-0.041136116,-0.025440216,0.0,0.0,0.0
333.71994,376.06042,13029122,0.825,0.08510638,-1410.1111,-102.65864,-0.0057883337,-0.041136116,-0.025440216,0.0,0.0,0.0
316.64694,383.81104,13029139,0.83750004,0.08510638,-1614.2853,356.4215,-0.0057883337,-0.041136116,-0.025440216,0.0,0.0,0.0
296.5372,395.35986,13029156,0.825,0.10638297,-1527.4434,786.4633,-0.0057883337,-0.041136116,-0.025440216,0.0,0.0,0.0
283.68546,406.03357,13029172,0.83750004,0.10638297,-1144.9344,992.35394,0.027369332,-0.016908884,-0.020352364,0.0,0.0,0.0
277.12244,416.62292,13029189,0.825,0.08510638,-512.5547,842.53864,0.027369332,-0.016908884,-0.020352364,0.0,0.0,0.0
274.97803,431.80237,13029206,0.825,0.08510638,-91.69483,862.8665,0.027369332,-0.016908884,-0.020352364,0.0,0.0,0.0
279.55887,440.58105,13029223,0.825,0.10638297,394.47604,767.88074,0.027369332,-0.016908884,-0.020352364,0.0,0.0,0.0
295.2806,452.73474,13029239,0.8125,0.12765957,939.5196,716.5709,0.027369332,-0.016908884,-0.020352364,0.0,0.0,0.0
309.53818,458.86646,13029256,0.8,0.12765957,1296.6058,535.32526,0.027369332,-0.016908884,-0.020352364,0.0,0.0,0.0
328.43814,461.00952,13029273,0.8125,0.12765957,1487.7292,202.93979,0.027369332,-0.016908884,-0.020352364,0.0,0.0,0.0
347.27316,456.59753,13029289,0.8125,0.12765957,1477.4908,-164.77643,0.027369332,-0.016908884,-0.020352364,0.0,0.0,0.0
360.71924,450.135,13029306,0.8,0.09574468,1156.1078,-563.3191,0.027369332,-0.016908884,-0.020352364,0.0,0.0,0.0
370.4479,439.78674,13029323,0.8125,0.08510638,772.0128,-820.89154,0.027369332,-0.016908884,-0.020352364,0.0,0.0,0.0
377.5382,428.69788,13029339,0.8,0.10638297,411.73434,-911.5121,0.027369332,-0.016908884,-0.020352364,0.0,0.0,0.0
382.29395,415.90723,13029356,0.7875,0.12765957,112.92664,-928.9972,0.027369332,-0.016908884,-0.020352364,0.0,0.0,0.0
383.66156,407.5675,13029373,0.8,0.12765957,-22.499722,-816.0582,0.027369332,-0.016908884,-0.020352364,0.0,0.0,0.0
382.62097,402.43115,13029390,0.8125,0.10638297,-149.56906,-476.38647,0.027369332,-0.016908884,-0.020352364,0.0,0.0,0.0
381.58298,400.11035,13029406,0.8125,0.10638297,-240.52737,-125.82282,0.027369332,-0.016908884,-0.020352364,0.0,0.0,0.0
380.54108,399.70276,13029423,0.8,0.12765957,-227.82861,119.990204,0.027369332,-0.016908884,-0.020352364,0.0,0.0,0.0
378.6608,400.93567,13029440,0.8125,0.12765957,-174.3046,230.50467,0.027369332,-0.016908884,-0.020352364,0.0,0.0,0.0
378.63065,406.70447,13029457,0.8,0.10638297,-90.142044,324.8816,0.027369332,-0.016908884,-0.020352364,0.0,0.0,0.0
382.46893,416.03784,13029473,0.8125,0.08510638,71.71018,581.89606,0.027369332,-0.016908884,-0.020352364,0.0,0.0,0.0
393.8644,428.5636,13029490,0.8,0.08510638,432.1175,821.90533,0.027369332,-0.016908884,-0.020352364,0.0,0.0,0.0
408.33582,438.79126,13029507,0.7875,0.08510638,930.6825,950.12933,0.027369332,-0.016908884,-0.020352364,0.0,0.0,0.0
423.04437,445.28467,13029523,0.7625,0.10638297,1204.2303,715.2029,0.027369332,-0.016908884,-0.020352364,0.0,0.0,0.0
443.23605,445.74402,13029540,0.5375,0.09574468,1337.482,280.42615,0.027369332,-0.016908884,-0.020352364,0.0,0.0,0.0
443.23605,445.74402,13029547,0.5375,0.09574468,1337.482,280.42615,0.027369332,-0.016908884,-0.020352364,0.0,0.0,0.0
451.33093,410.36487,13029869,0.65000004,0.08510638,0.0,0.0,-0.026104536,0.034472898,0.01571846,0.0,0.0,0.0
451.33093,410.36487,13029891,0.675,0.08510638,0.014189576,0.010474997,-0.026104536,0.034472898,0.01571846,0.0,0.0,0.0
451.33093,410.36487,13029906,0.725,0.09574468,-0.042405035,-0.037799552,-0.026104536,0.034472898,0.01571846,0.0,0.0,0.0
451.33093,410.36487,13029924,0.7375,0.10638297,0.0026200488,0.0038917202,-0.026104536,0.034472898,0.01571846,0.0,0.0,0.0
451.33093,410.36487,13029954,0.75,0.10638297,0.0066363127,0.00520932,-0.026104536,0.034472898,0.01571846,0.0,0.0,0.0
451.33093,410.36487,13029975,0.77500004,0.10638297,-0.016653502,-0.016533038,-0.026104536,0.034472898,0.01571846,0.0,0.0,0.0
472.29462,388.62708,13029991,0.77500004,0.09574468,557.32227,-577.88196,-0.026104536,0.034472898,0.01571846,0.0,0.0,0.0
480.46655,375.68152,13030008,0.7625,0.08510638,1066.1036,-1243.2229,-0.026104536,0.034472898,0.01571846,0.0,0.0,0.0
488.7229,362.8678,13030025,0.7625,0.10638297,1006.9632,-1361.919,-0.026104536,0.034472898,0.01571846,0.0,0.0,0.0
497.1137,351.4828,13030041,0.77500004,0.09574468,815.20306,-1165.4379,-0.026104536,0.034472898,0.01571846,0.0,0.0,0.0
505.976,335.03967,13030058,0.77500004,0.08510638,348.37415,-727.8886,-0.026104536,0.034472898,0.01571846,0.0,0.0,0.0
515.27203,315.8153,13030075,0.77500004,0.10638297,386.5128,-924.2867,-0.026104536,0.034472898,0.01571846,0.0,0.0,0.0
523.5163,297.80933,13030091,0.77500004,0.12765957,551.194,-1250.4406,-0.026104536,0.034472898,0.01571846,0.0,0.0,0.0
531.26215,273.4226,13030108,0.7625,0.09574468,495.22208,-1426.7935,-0.026104536,0.034472898,0.01571846,0.0,0.0,0.0
535.4696,254.88,13030125,0.77500004,0.11702127,344.72305,-1395.5206,-0.026104536,0.034472898,0.01571846,0.0,0.0,0.0
537.7385,241.46033,13030142,0.7625,0.11702127,139.56766,-1088.2446,-0.026104536,0.034472898,0.01571846,0.0,0.0,0.0
538.27716,230.3153,13030158,0.7625,0.09574468,-24.034021,-743.05493,-0.026104536,0.034472898,0.01571846,0.0,0.0,0.0
538.3026,220.08984,13030175,0.8,0.09574468,-128.19781,-427.31024,-0.026104536,0.034472898,0.01571846,0.0,0.0,0.0
536.6909,213.70654,13030192,0.7875,0.09574468,-170.76584,-257.9398,-0.026104536,0.034472898,0.01571846,0.0,0.0,0.0
534.6084,210.27808,13030208,0.7875,0.09574468,-183.689,-178.95789,-0.026104536,0.034472898,0.01571846,0.0,0.0,0.0
531.94745,208.46301,13030225,0.8,0.08510638,-208.27007,-12.628078,-0.026104536,0.034472898,0.01571846,0.0,0.0,0.0
525.63556,209.91003,13030242,0.7875,0.08510638,-312.11285,170.67444,-0.03688363,-0.020421684,0.01257515,0.0,0.0,0.0
517.9774,215.4524,13030259,0.7875,0.08510638,-457.98706,354.99954,-0.03688363,-0.020421684,0.01257515,0.0,0.0,0.0
508.33734,224.64099,13030275,0.8,0.10638297,-641.1391,593.1022,-0.03688363,-0.020421684,0.01257515,0.0,0.0,0.0
498.54083,237.0896,13030292,0.8,0.10638297,-738.5687,855.82214,-0.03688363,-0.020421684,0.01257515,0.0,0.0,0.0
486.35657,263.37048,13030309,0.8,0.09574468,-774.95465,1361.353,-0.03688363,-0.020421684,0.01257515,0.0,0.0,0.0
479.1079,280.55798,13030325,0.8,0.11702127,-669.69965,1633.8383,-0.03688363,-0.020421684,0.01257515,0.0,0.0,0.0
473.40344,297.41345,13030342,0.7875,0.10638297,-437.94388,1445.2666,-0.03688363,-0.020421684,0.01257515,0.0,0.0,0.0
468.52625,320.35425,13030359,0.8,0.08510638,-244.64084,1298.6351,-0.03688363,-0.020421684,0.01257515,0.0,0.0,0.0
465.86694,336.42615,13030376,0.7875,0.10638297,-82.17613,1107.2294,-0.03688363,-0.020421684,0.01257515,0.0,0.0,0.0
463.27002,353.06824,13030392,0.7875,0.08510638,-43.906452,998.95764,-0.03688363,-0.020421684,0.01257515,0.0,0.0,0.0
460.04602,372.5238,13030409,0.7875,0.08510638,-82.68298,1077.9979,-0.03688363,-0.020421684,0.01257515,0.0,0.0,0.0
456.50018,386.85144,13030426,0.7875,0.09574468,-138.18991,928.6828,-0.03688363,-0.020421684,0.01257515,0.0,0.0,0.0
451.51044,400.25854,13030442,0.8,0.10638297,-241.13113,805.314,-0.03688363,-0.020421684,0.01257515,0.0,0.0,0.0
447.4286,410.51477,13030459,0.8,0.08510638,-296.78925,667.4078,-0.03688363,-0.020421684,0.01257515,0.0,0.0,0.0
442.22897,421.99866,13030476,0.8,0.08510638,-328.0435,511.2784,-0.03688363,-0.020421684,0.01257515,0.0,0.0,0.0
437.29434,433.11316,13030493,0.7875,0.08510638,-327.73425,586.2468,-0.03688363,-0.020421684,0.01257515,0.0,0.0,0.0
433.50717,440.27112,13030509,0.7875,0.11702127,-288.46957,530.75635,-0.03688363,-0.020421684,0.01257515,0.0,0.0,0.0
431.21497,445.23425,13030526,0.77500004,0.12765957,-187.893,325.40845,-0.03688363,-0.020421684,0.01257515,0.0,0.0,0.0
429.46304,448.3484,13030543,0.8,0.12765957,-78.779564,110.2256,-0.03688363,-0.020421684,0.01257515,0.0,0.0,0.0
428.41776,450.20654,13030559,0.8,0.12765957,-9.981488,-27.560577,-0.03688363,-0.020421684,0.01257515,0.0,0.0,0.0
427.38052,450.34753,13030576,0.7875,0.12765957,5.7670217,-76.469215,-0.03688363,-0.020421684,0.01257515,0.0,0.0,0.0
426.589,450.34753,13030593,0.8,0.12765957,-8.854055,-99.068985,-0.03688363,-0.020421684,0.01257515,0.0,0.0,0.0
426.2958,450.34753,13030609,0.8,0.12765957,-8.840202,-87.886566,-0.03688363,-0.020421684,0.01257515,0.0,0.0,0.0
426.33908,450.34753,13030621,0.7875,0.12765957,2.2612324,-80.01384,-0.03688363,-0.020421684,0.01257515,0.0,0.0,0.0
426.33908,450.34753,13030643,0.8125,0.12765957,16.420822,-22.319561,-0.03688363,-0.020421684,0.01257515,0.0,0.0,0.0
426.33908,450.34753,13030654,0.8,0.12765957,21.392363,-1.1523018,-0.03688363,-0.020421684,0.01257515,0.0,0.0,0.0
426.33908,450.34753,13030676,0.7875,0.11702127,12.109341,0.02266452,-0.03688363,-0.020421684,0.01257515,0.0,0.0,0.0
426.33908,449.9397,13030693,0.8,0.11702127,5.100649,-6.90996,-0.03688363,-0.020421684,0.01257515,0.0,0.0,0.0
426.86826,448.10022,13030710,0.7875,0.10638297,9.007884,-67.19739,-0.03688363,-0.020421684,0.01257515,0.0,0.0,0.0
430.09476,444.22986,13030726,0.7875,0.08510638,105.24055,-180.39125,-0.03688363,-0.020421684,0.01257515,0.0,0.0,0.0
437.3562,434.41748,13030743,0.77500004,0.08510638,312.58423,-431.95334,-0.03688363,-0.020421684,0.01257515,0.0,0.0,0.0
447.56976,421.56592,13030760,0.77500004,0.09574468,615.02747,-791.09625,-0.03688363,-0.020421684,0.01257515,0.0,0.0,0.0
458.20184,409.33044,13030777,0.77500004,0.12765957,831.51044,-1003.51697,-0.03688363,-0.020421684,0.01257515,0.0,0.0,0.0
467.50726,400.0171,13030793,0.7625,0.11702127,804.02356,-904.7821,0.018493094,0.015662655,0.01006031,0.0,0.0,0.0
478.97455,390.7047,13030810,0.7625,0.08510638,729.1703,-655.0329,0.018493094,0.015662655,0.01006031,0.0,0.0,0.0
494.21124,381.43616,13030827,0.7625,0.08510638,794.8538,-491.0529,0.018493094,0.015662655,0.01006031,0.0,0.0,0.0
510.16376,373.29565,13030843,0.7625,0.08510638,980.58026,-455.87204,0.018493094,0.015662655,0.01006031,0.0,0.0,0.0
523.2699,368.97388,13030860,0.77500004,0.09574468,1042.6909,-359.80313,0.018493094,0.015662655,0.01006031,0.0,0.0,0.0
534.24634,367.37146,13030877,0.77500004,0.08510638,861.0893,-144.57802,0.018493094,0.015662655,0.01006031,0.0,0.0,0.0
543.31726,368.94202,13030894,0.77500004,0.08510638,592.2106,110.3773,0.018493094,0.015662655,0.01006031,0.0,0.0,0.0
550.3156,372.1693,13030910,0.77500004,0.08510638,341.0207,327.64728,0.018493094,0.015662655,0.01006031,0.0,0.0,0.0
554.36383,375.8313,13030927,0.7875,0.08510638,221.76534,383.16855,0.018493094,0.015662655,0.01006031,0.0,0.0,0.0
557.9532,384.2677,13030944,0.7875,0.09574468,112.592224,491.60916,0.018493094,0.015662655,0.01006031,0.0,0.0,0.0
557.9713,389.88403,13030960,0.7875,0.09574468,-36.197784,529.11346,0.018493094,0.015662655,0.01006031,0.0,0.0,0.0
553.8614,393.87085,13030977,0.8,0.12765957,-225.96391,429.23758,0.018493094,0.015662655,0.01006031,0.0,0.0,0.0
543.89606,399.4143,13030994,0.75,0.12765957,-529.5045,323.97916,0.018493094,0.015662655,0.01006031,0.0,0.0,0.0
528.48376,404.9745,13031011,0.7875,0.12765957,-953.6536,267.21228,0.018493094,0.015662655,0.01006031,0.0,0.0,0.0
511.85126,406.86182,13031027,0.77500004,0.12765957,-1268.4006,198.27144,0.018493094,0.015662655,0.01006031,0.0,0.0,0.0
500.61188,405.7975,13031044,0.8,0.12765957,-1176.4783,49.409054,0.018493094,0.015662655,0.01006031,0.0,0.0,0.0
496.995,403.9552,13031061,0.7875,0.12765957,-682.8645,-164.41602,0.018493094,0.015662655,0.01006031,0.0,0.0,0.0
495.1593,403.25684,13031077,0.7875,0.12765957,-109.58001,-254.474,0.018493094,0.015662655,0.01006031,0.0,0.0,0.0
494.998,403.25684,13031094,0.77500004,0.12765957,246.88722,-158.451,0.018493094,0.015662655,0.01006031,0.0,0.0,0.0
498.87628,405.33398,13031111,0.7625,0.09574468,365.6106,48.361557,0.018493094,0.015662655,0.01006031,0.0,0.0,0.0
508.23175,414.083,13031127,0.7625,0.08510638,538.77026,363.34686,0.018493094,0.015662655,0.01006031,0.0,0.0,0.0
517.8479,425.3916,13031144,0.75,0.08510638,776.7708,723.9596,0.018493094,0.015662655,0.01006031,0.0,0.0,0.0
524.1216,434.02454,13031161,0.75,0.09574468,764.8335,866.547,0.018493094,0.015662655,0.01006031,0.0,0.0,0.0
529.4823,444.23315,13031178,0.7625,0.12765957,473.22876,768.57996,0.018493094,0.015662655,0.01006031,0.0,0.0,0.0
533.3676,452.08203,13031194,0.77500004,0.12765957,217.10754,579.9368,0.018493094,0.015662655,0.01006031,0.0,0.0,0.0
535.71606,456.41174,13031211,0.77500004,0.11702127,70.14688,367.26038,0.018493094,0.015662655,0.01006031,0.0,0.0,0.0
538.3105,460.1305,13031228,0.7875,0.10638297,63.602768,199.78926,0.018493094,0.015662655,0.01006031,0.0,0.0,0.0
543.55084,463.82312,13031244,0.77500004,0.09574468,154.39455,103.479294,0.018493094,0.015662655,0.01006031,0.0,0.0,0.0
551.46063,464.5636,13031261,0.7875,0.09574468,345.60477,9.928651,0.018493094,0.015662655,0.01006031,0.0,0.0,0.0
560.4223,463.4525,13031278,0.7625,0.10638297,567.0183,-59.871574,0.018493094,0.015662655,0.01006031,0.0,0.0,0.0
569.9305,459.67163,13031295,0.7625,0.12765957,698.162,-216.93571,0.018493094,0.015662655,0.01006031,0.0,0.0,0.0
579.02466,453.41943,13031311,0.7625,0.11702127,690.16565,-418.68405,0.018493094,0.015662655,0.01006031,0.0,0.0,0.0
587.4551,444.67566,13031328,0.7625,0.08510638,582.44385,-592.29156,-0.017205525,0.028530136,0.008048058,0.0,0.0,0.0
592.87854,435.96497,13031345,0.75,0.08510638,430.92065,-682.2008,-0.017205525,0.028530136,0.008048058,0.0,0.0,0.0
595.3657,430.6554,13031361,0.7625,0.08510638,198.12541,-577.0559,-0.017205525,0.028530136,0.008048058,0.0,0.0,0.0
596.6334,426.8916,13031378,0.77500004,0.08510638,-7.155349,-337.80283,-0.017205525,0.028530136,0.008048058,0.0,0.0,0.0
596.78357,424.78406,13031395,0.6875,0.08510638,-128.42485,-91.35297,-0.017205525,0.028530136,0.008048058,0.0,0.0,0.0
596.78357,424.58093,13031396,0.2375,0.09574468,-127.45538,-79.249825,-0.017205525,0.028530136,0.008048058,0.0,0.0,0.0
596.78357,424.58093,13031405,0.2375,0.09574468,-127.45538,-79.249825,-0.017205525,0.028530136,0.008048058,0.0,0.0,0.0
600.7823,429.02344,13032996,0.6125,0.06382979,0.0,0.0,-0.010089226,-0.036592573,-0.03299904,0.0,0.0,0.0
600.7823,429.02344,13033016,0.65000004,0.07446808,0.1412129,0.102453984,-0.010089226,-0.036592573,-0.03299904,0.0,0.0,0.0
600.7823,429.02344,13033032,0.71250004,0.08510638,0.007996391,0.01125285,-0.010089226,-0.036592573,-0.03299904,0.0,0.0,0.0
600.7823,429.02344,13033049,0.7,0.09574468,-0.021298967,-0.01378959,-0.010089226,-0.036592573,-0.03299904,0.0,0.0,0.0
618.7987,407.53833,13033066,0.71250004,0.09574468,742.53845,-893.43945,-0.010089226,-0.036592573,-0.03299904,0.0,0.0,0.0
632.426,393.4718,13033083,0.725,0.09574468,1138.2839,-1288.5862,-0.010089226,-0.036592573,-0.03299904,0.0,0.0,0.0
646.8909,382.18994,13033099,0.7375,0.07446808,1329.8815,-1330.4961,-0.010089226,-0.036592573,-0.03299904,0.0,0.0,0.0
662.24005,374.83264,13033116,0.725,0.08510638,1182.2723,-902.88434,-0.010089226,-0.036592573,-0.03299904,0.0,0.0,0.0
678.54614,370.2069,13033133,0.71250004,0.08510638,930.7081,-146.36226,-0.010089226,-0.036592573,-0.03299904,0.0,0.0,0.0
691.8878,372.31433,13033149,0.725,0.08510638,895.2078,182.34482,-0.010089226,-0.036592573,-0.03299904,0.0,0.0,0.0
703.1881,376.17822,13033166,0.725,0.06382979,823.7618,381.13147,-0.010089226,-0.036592573,-0.03299904,0.0,0.0,0.0
713.3929,382.02002,13033183,0.71250004,0.08510638,631.5698,556.75806,-0.010089226,-0.036592573,-0.03299904,0.0,0.0,0.0
720.27295,387.10706,13033200,0.7375,0.09574468,402.78397,584.905,-0.010089226,-0.036592573,-0.03299904,0.0,0.0,0.0
725.4726,391.6836,13033216,0.7375,0.10638297,257.61996,416.32474,-0.010089226,-0.036592573,-0.03299904,0.0,0.0,0.0
728.2953,394.8645,13033233,0.77500004,0.12765957,110.62436,279.82245,-0.010089226,-0.036592573,-0.03299904,0.0,0.0,0.0
729.997,396.60522,13033250,0.75,0.10638297,-9.249335,124.44406,-0.010089226,-0.036592573,-0.03299904,0.0,0.0,0.0
731.0974,397.03735,13033266,0.7625,0.12765957,-56.277637,5.018287,-0.010089226,-0.036592573,-0.03299904,0.0,0.0,0.0
731.2398,397.03735,13033283,0.7875,0.12765957,-69.633835,-74.83309,-0.010089226,-0.036592573,-0.03299904,0.0,0.0,0.0
729.4188,397.03735,13033300,0.7625,0.10638297,-103.231384,-91.820206,-0.010089226,-0.036592573,-0.03299904,0.0,0.0,0.0
722.8761,397.03735,13033317,0.77500004,0.12765957,-271.012,-60.062397,-0.010089226,-0.036592573,-0.03299904,0.0,0.0,0.0
712.4819,397.03735,13033333,0.77500004,0.11702127,-597.99976,-22.145483,-0.010089226,-0.036592573,-0.03299904,0.0,0.0,0.0
699.89514,396.04028,13033350,0.7875,0.10638297,-871.0315,-24.104845,-0.010089226,-0.036592573,-0.03299904,0.0,0.0,0.0
681.44415,396.1488,13033367,0.77500004,0.09574468,-1162.9236,-32.37991,-0.010089226,-0.036592573,-0.03299904,0.0,0.0,0.0
662.021,397.30798,13033383,0.7625,0.12765957,-1355.0808,4.6832294,-0.010089226,-0.036592573,-0.03299904,0.0,0.0,0.0
646.0176,400.5913,13033400,0.77500004,0.12765957,-1291.9568,114.48017,-0.010089226,-0.036592573,-0.03299904,0.0,0.0,0.0
628.78564,406.1958,13033417,0.7625,0.10638297,-1149.0502,327.87836,-0.010089226,-0.036592573,-0.03299904,0.0,0.0,0.0
613.683,413.08667,13033434,0.77500004,0.08510638,-980.6011,488.31448,-0.010089226,-0.036592573,-0.03299904,0.0,0.0,0.0
604.7915,420.47888,13033450,0.77500004,0.09574468,-732.3095,567.03394,-0.010089226,-0.036592573,-0.03299904,0.0,0.0,0.0
597.94604,434.36475,13033467,0.77500004,0.09574468,-408.01593,730.71857,-0.008071378,0.018725947,0.02159977,0.0,0.0,0.0
596.78357,445.45093,13033484,0.7875,0.12765957,15.072123,843.43365,-0.008071378,0.018725947,0.02159977,0.0,0.0,0.0
599.0889,453.557,13033500,0.7875,0.12765957,303.85788,787.0891,-0.008071378,0.018725947,0.02159977,0.0,0.0,0.0
607.14825,460.6012,13033517,0.7875,0.09574468,533.009,532.9225,-0.008071378,0.018725947,0.02159977,0.0,0.0,0.0
622.7047,467.2057,13033534,0.77500004,0.08510638,930.4897,312.88562,-0.008071378,0.018725947,0.02159977,0.0,0.0,0.0
638.8219,468.11755,13033550,0.77500004,0.10638297,1252.2124,97.1793,-0.008071378,0.018725947,0.02159977,0.0,0.0,0.0
658.2659,465.17102,13033567,0.77500004,0.10638297,1429.8217,-132.36237,-0.008071378,0.018725947,0.02159977,0.0,0.0,0.0
675.9394,459.437,13033584,0.75,0.12765957,1399.6433,-414.91644,-0.008071378,0.018725947,0.02159977,0.0,0.0,0.0
687.8493,452.5475,13033601,0.7625,0.11702127,1075.0298,-625.07263,-0.008071378,0.018725947,0.02159977,0.0,0.0,0.0
696.93567,445.068,13033617,0.7625,0.08510638,687.42584,-660.5082,-0.008071378,0.018725947,0.02159977,0.0,0.0,0.0
703.1357,436.74353,13033634,0.7625,0.08510638,265.13885,-594.0222,-0.008071378,0.018725947,0.02159977,0.0,0.0,0.0
707.83185,428.3916,13033651,0.7875,0.08510638,116.24505,-579.53174,-0.008071378,0.018725947,0.02159977,0.0,0.0,0.0
711.17926,420.5935,13033667,0.7625,0.10638297,63.908466,-547.76495,-0.008071378,0.018725947,0.02159977,0.0,0.0,0.0
715.78784,409.05286,13033684,0.77500004,0.12765957,91.33305,-587.2579,-0.008071378,0.018725947,0.02159977,0.0,0.0,0.0
718.02325,401.18005,13033701,0.8125,0.09574468,103.086235,-601.68353,-0.008071378,0.018725947,0.02159977,0.0,0.0,0.0
719.1547,396.4652,13033718,0.7875,0.08510638,72.282265,-450.02628,-0.008071378,0.018725947,0.02159977,0.0,0.0,0.0
719.2437,393.54504,13033734,0.7875,0.08510638,-1.2457285,-224.08688,-0.008071378,0.018725947,0.02159977,0.0,0.0,0.0
719.7435,390.79736,13033751,0.8,0.08510638,-57.609966,-29.104294,-0.008071378,0.018725947,0.02159977,0.0,0.0,0.0
719.7435,388.9358,13033768,0.77500004,0.08510638,-58.96708,27.742104,-0.008071378,0.018725947,0.02159977,0.0,0.0,0.0
719.7435,387.1046,13033784,0.8,0.08510638,-28.96282,-27.170553,-0.008071378,0.018725947,0.02159977,0.0,0.0,0.0
719.7435,387.2638,13033815,0.7875,0.08510638,-7.6923313,17.58039,-0.008071378,0.018725947,0.02159977,0.0,0.0,0.0
719.7435,386.37524,13033835,0.8,0.08510638,-6.302316,33.50877,-0.008071378,0.018725947,0.02159977,0.0,0.0,0.0
719.7435,385.48682,13033851,0.7875,0.08510638,-0.016418144,-6.24314,-0.008071378,0.018725947,0.02159977,0.0,0.0,0.0
719.7435,385.48682,13033868,0.7875,0.08510638,-0.030774256,-30.872995,-0.008071378,0.018725947,0.02159977,0.0,0.0,0.0
719.7435,385.48682,13033885,0.7875,0.08510638,0.051300425,15.053454,-0.008071378,0.018725947,0.02159977,0.0,0.0,0.0
719.7435,385.48682,13033901,0.8125,0.08510638,0.07465105,20.596037,-0.008071378,0.018725947,0.02159977,0.0,0.0,0.0
719.7435,385.48682,13033916,0.8,0.08510638,-0.04417927,16.004963,-0.008071378,0.018725947,0.02159977,0.0,0.0,0.0
719.7435,384.59827,13033952,0.7875,0.08510638,-0.057517186,-30.13927,-0.008071378,0.018725947,0.02159977,0.0,0.0,0.0
719.7435,384.59827,13033968,0.8125,0.08510638,-0.015179051,-19.831196,-0.008071378,0.018725947,0.02159977,0.0,0.0,0.0
720.49335,384.59827,13033980,0.7875,0.08510638,18.955647,-7.880945,-0.0064571053,0.014980748,-0.030719757,0.0,0.0,0.0
720.2434,384.59827,13034000,0.8,0.08510638,19.545982,9.320311,-0.0064571053,0.014980748,-0.030719757,0.0,0.0,0.0
720.2434,384.59827,13034018,0.8125,0.08510638,3.4268498,0.0015817392,-0.0064571053,0.014980748,-0.030719757,0.0,0.0,0.0
720.2434,384.59827,13034035,0.8125,0.08510638,-1.4077444,0.008954369,-0.0064571053,0.014980748,-0.030719757,0.0,0.0,0.0
720.2434,384.59827,13034044,0.8,0.08510638,-7.954464,-0.0040712105,-0.0064571053,0.014980748,-0.030719757,0.0,0.0,0.0
720.2434,384.59827,13034085,0.8125,0.08510638,-0.050998136,-0.027264003,-0.0064571053,0.014980748,-0.030719757,0.0,0.0,0.0
720.2434,384.59827,13034102,0.7875,0.08510638,-0.009703413,-0.0060781725,-0.0064571053,0.014980748,-0.030719757,0.0,0.0,0.0
720.2434,384.59827,13034119,0.7875,0.08510638,0.04354264,0.021582793,-0.0064571053,0.014980748,-0.030719757,0.0,0.0,0.0
720.7432,384.59827,13034135,0.7875,0.08510638,15.388509,-0.0011818239,-0.0064571053,0.014980748,-0.030719757,0.0,0.0,0.0
720.7432,384.59827,13034152,0.77500004,0.09574468,20.21671,0.00698181,-0.0064571053,0.014980748,-0.030719757,0.0,0.0,0.0
720.7432,386.31372,13034169,0.7875,0.09574468,11.076649,41.59824,-0.0064571053,0.014980748,-0.030719757,0.0,0.0,0.0
721.28064,388.219,13034185,0.7875,0.09574468,12.079281,115.369705,-0.0064571053,0.014980748,-0.030719757,0.0,0.0,0.0
721.24304,391.98657,13034202,0.7875,0.10638297,10.35036,209.16856,-0.0064571053,0.014980748,-0.030719757,0.0,0.0,0.0
721.7429,396.82153,13034219,0.77500004,0.10638297,23.471935,301.75613,-0.0064571053,0.014980748,-0.030719757,0.0,0.0,0.0
722.3628,402.12012,13034236,0.8,0.09574468,33.544456,373.47446,-0.0064571053,0.014980748,-0.030719757,0.0,0.0,0.0
723.4532,407.93457,13034252,0.7875,0.09574468,52.7514,408.44073,-0.0064571053,0.014980748,-0.030719757,0.0,0.0,0.0
724.46906,414.2406,13034269,0.77500004,0.08510638,71.18791,425.35956,-0.0064571053,0.014980748,-0.030719757,0.0,0.0,0.0
726.0147,421.19165,13034286,0.7625,0.08510638,96.78592,432.23715,-0.0064571053,0.014980748,-0.030719757,0.0,0.0,0.0
727.3689,429.14685,13034302,0.77500004,0.08510638,102.44336,471.45215,-0.0064571053,0.014980748,-0.030719757,0.0,0.0,0.0
729.9335,436.20227,13034319,0.7625,0.08510638,127.57337,504.52563,-0.0064571053,0.014980748,-0.030719757,0.0,0.0,0.0
732.40027,441.7483,13034336,0.7875,0.09574468,161.35353,426.12503,-0.0064571053,0.014980748,-0.030719757,0.0,0.0,0.0
735.0211,447.29553,13034353,0.7875,0.12765957,180.60327,321.62708,-0.0064571053,0.014980748,-0.030719757,0.0,0.0,0.0
737.12683,450.15015,13034369,0.7625,0.12765957,170.65083,195.49277,-0.0064571053,0.014980748,-0.030719757,0.0,0.0,0.0
740.7812,453.94104,13034386,0.7625,0.11702127,180.2636,141.64514,-0.0064571053,0.014980748,-0.030719757,0.0,0.0,0.0
745.668,457.7633,13034403,0.75,0.11702127,241.29895,154.16917,-0.0064571053,0.014980748,-0.030719757,0.0,0.0,0.0
751.2869,461.33752,13034419,0.7625,0.10638297,342.10785,181.1927,-0.0064571053,0.014980748,-0.030719757,0.0,0.0,0.0
758.9886,464.2339,13034436,0.7625,0.10638297,457.7245,189.39276,-0.0064571053,0.014980748,-0.030719757,0.0,0.0,0.0
766.8238,465.8064,13034453,0.75,0.09574468,539.659,146.35277,-0.0064571053,0.014980748,-0.030719757,0.0,0.0,0.0
772.64764,465.45203,13034470,0.75,0.09574468,512.4127,29.816624,-0.0064571053,0.014980748,-0.030719757,0.0,0.0,0.0
778.93787,464.12854,13034486,0.7625,0.10638297,411.07773,-107.223274,-0.0064571053,0.014980748,-0.030719757,0.0,0.0,0.0
785.40607,461.78906,13034503,0.75,0.12765957,360.70764,-188.88914,-0.0064571053,0.014980748,-0.030719757,0.0,0.0,0.0
790.8534,458.07178,13034520,0.7375,0.12765957,319.7914,-274.45795,0.026834317,0.011984602,0.023423195,0.0,0.0,0.0
796.79626,452.94385,13034536,0.7375,0.11702127,317.0059,-335.26117,0.026834317,0.011984602,0.023423195,0.0,0.0,0.0
802.2526,444.95264,13034553,0.725,0.09574468,318.7174,-457.4803,0.026834317,0.011984602,0.023423195,0.0,0.0,0.0
809.37585,428.9369,13034570,0.725,0.09574468,359.34598,-771.80475,0.026834317,0.011984602,0.023423195,0.0,0.0,0.0
814.1395,415.87817,13034587,0.725,0.10638297,363.0225,-1036.7178,0.026834317,0.011984602,0.023423195,0.0,0.0,0.0
817.28217,402.96484,13034603,0.7375,0.10638297,266.47104,-1052.8336,0.026834317,0.011984602,0.023423195,0.0,0.0,0.0
821.53217,386.12024,13034620,0.75,0.06382979,185.7107,-1025.7279,0.026834317,0.011984602,0.023423195,0.0,0.0,0.0
824.44916,368.07385,13034637,0.7375,0.09574468,143.88629,-1057.1515,0.026834317,0.011984602,0.023423195,0.0,0.0,0.0
829.23755,345.99927,13034653,0.7375,0.08510638,188.38387,-1247.2825,0.026834317,0.011984602,0.023423195,0.0,0.0,0.0
834.41766,320.95996,13034670,0.7375,0.08510638,279.9376,-1540.526,0.026834317,0.011984602,0.023423195,0.0,0.0,0.0
838.0907,299.80994,13034687,0.725,0.10638297,292.8183,-1578.7882,0.026834317,0.011984602,0.023423195,0.0,0.0,0.0
841.4875,280.82898,13034704,0.7375,0.08510638,244.73491,-1339.6832,0.026834317,0.011984602,0.023423195,0.0,0.0,0.0
843.7723,263.27063,13034720,0.7375,0.08510638,154.31194,-1095.751,0.026834317,0.011984602,0.023423195,0.0,0.0,0.0
845.7026,247.99084,13034737,0.725,0.12765957,89.789986,-848.56305,0.026834317,0.011984602,0.023423195,0.0,0.0,0.0
847.46216,238.17212,13034754,0.7375,0.10638297,51.461933,-631.7719,0.026834317,0.011984602,0.023423195,0.0,0.0,0.0
848.2017,231.36072,13034770,0.725,0.08510638,38.14239,-377.27606,0.026834317,0.011984602,0.023423195,0.0,0.0,0.0
847.75464,226.63232,13034787,0.75,0.08510638,-9.534965,-114.08425,0.026834317,0.011984602,0.023423195,0.0,0.0,0.0
846.70605,224.67456,13034804,0.75,0.08510638,-78.87271,26.02622,0.026834317,0.011984602,0.023423195,0.0,0.0,0.0
843.0142,226.57922,13034820,0.7625,0.10638297,-190.20552,174.59424,0.026834317,0.011984602,0.023423195,0.0,0.0,0.0
835.42694,240.40637,13034837,0.7625,0.09574468,-384.82782,573.5276,0.026834317,0.011984602,0.023423195,0.0,0.0,0.0
825.54065,269.19897,13034854,0.75,0.08510638,-633.452,1455.1129,0.026834317,0.011984602,0.023423195,0.0,0.0,0.0
819.9229,297.56348,13034871,0.7375,0.10638297,-669.98157,2184.3867,0.026834317,0.011984602,0.023423195,0.0,0.0,0.0
816.82886,334.0681,13034887,0.7375,0.10638297,-468.6634,2690.639,0.026834317,0.011984602,0.023423195,0.0,0.0,0.0
815.21246,368.0033,13034904,0.7375,0.08510638,-78.08275,2552.4424,0.026834317,0.011984602,0.023423195,0.0,0.0,0.0
814.987,395.8694,13034921,0.71250004,0.12765957,130.39267,2115.8328,0.026834317,0.011984602,0.023423195,0.0,0.0,0.0
816.51843,423.66174,13034937,0.7,0.07446808,172.5991,1745.5587,0.026834317,0.011984602,0.023423195,0.0,0.0,0.0
818.90826,440.19714,13034954,0.71250004,0.10638297,218.73222,1188.2749,0.026834317,0.011984602,0.023423195,0.0,0.0,0.0
821.8882,451.17053,13034971,0.7,0.10638297,250.52911,639.82446,0.026834317,0.011984602,0.023423195,0.0,0.0,0.0
823.972,455.25623,13034988,0.7,0.09574468,234.06122,72.22505,0.026834317,0.011984602,0.023423195,0.0,0.0,0.0
826.6484,458.2904,13035004,0.7,0.09574468,193.53992,-235.87198,0.026834317,0.011984602,0.023423195,0.0,0.0,0.0
829.23663,458.344,13035021,0.7,0.10638297,158.462,-318.75082,0.026834317,0.011984602,0.023423195,0.0,0.0,0.0
829.70776,456.47644,13035038,0.71250004,0.09574468,93.889725,-294.9169,0.026834317,0.011984602,0.023423195,0.0,0.0,0.0
827.9241,446.5033,13035054,0.71250004,0.06382979,-29.223236,-486.8519,-0.042532545,-0.0064123273,-0.013261795,0.0,0.0,0.0
821.4392,433.8723,13035071,0.725,0.09574468,-288.41153,-828.6548,-0.042532545,-0.0064123273,-0.013261795,0.0,0.0,0.0
808.0042,417.042,13035088,0.725,0.12765957,-678.61127,-1145.9954,-0.042532545,-0.0064123273,-0.013261795,0.0,0.0,0.0
787.4262,401.23767,13035105,0.7375,0.09574468,-1192.7958,-1296.0627,-0.042532545,-0.0064123273,-0.013261795,0.0,0.0,0.0
771.0449,389.1067,13035121,0.75,0.09574468,-1506.8866,-1075.0579,-0.042532545,-0.0064123273,-0.013261795,0.0,0.0,0.0
762.28876,378.48364,13035138,0.75,0.09574468,-1167.9653,-751.5651,-0.042532545,-0.0064123273,-0.013261795,0.0,0.0,0.0
757.57745,367.47778,13035155,0.7625,0.11702127,-501.46103,-558.6834,-0.042532545,-0.0064123273,-0.013261795,0.0,0.0,0.0
759.91895,359.7931,13035171,0.75,0.12765957,220.56816,-406.66034,-0.042532545,-0.0064123273,-0.013261795,0.0,0.0,0.0
781.70056,347.76196,13035188,0.75,0.10638297,980.8862,-486.2579,-0.042532545,-0.0064123273,-0.013261795,0.0,0.0,0.0
813.76825,338.9535,13035205,0.75,0.11702127,1972.9043,-560.2162,-0.042532545,-0.0064123273,-0.013261795,0.0,0.0,0.0
845.2821,335.7594,13035222,0.75,0.08510638,2744.0198,-424.70068,-0.042532545,-0.0064123273,-0.013261795,0.0,0.0,0.0
873.30475,335.7306,13035238,0.7375,0.08510638,2603.6123,-78.269424,-0.042532545,-0.0064123273,-0.013261795,0.0,0.0,0.0
901.18854,338.62854,13035255,0.7,0.11702127,2099.3293,260.11118,-0.042532545,-0.0064123273,-0.013261795,0.0,0.0,0.0
915.17993,341.06165,13035270,0.35,0.12765957,1504.3,460.5738,-0.042532545,-0.0064123273,-0.013261795,0.0,0.0,0.0
915.17993,341.06165,13035277,0.35,0.12765957,1504.3,460.5738,-0.042532545,-0.0064123273,-0.013261795,0.0,0.0,0.0
972.1614,398.81433,13036812,0.65000004,0.12765957,0.0,0.0,0.030063335,-0.0071231127,-0.03238964,0.0,0.0,0.0
972.1614,398.81433,13036842,0.6625,0.10638297,-0.07099869,-0.030838963,0.030063335,-0.0071231127,-0.03238964,0.0,0.0,0.0
972.1614,398.81433,13036859,0.675,0.10638297,-0.08104593,-0.033898056,0.030063335,-0.0071231127,-0.03238964,0.0,0.0,0.0
953.8312,396.24194,13036876,0.6875,0.09574468,-811.0839,-113.830025,0.030063335,-0.0071231127,-0.03238964,0.0,0.0,0.0
936.6286,394.3672,13036893,0.71250004,0.11702127,-1311.2496,-164.12585,0.030063335,-0.0071231127,-0.03238964,0.0,0.0,0.0
918.9358,395.3379,13036909,0.71250004,0.10638297,-1467.1587,-87.4903,0.030063335,-0.0071231127,-0.03238964,0.0,0.0,0.0
900.781,397.18408,13036926,0.725,0.10638297,-1484.8468,53.904457,0.030063335,-0.0071231127,-0.03238964,0.0,0.0,0.0
884.90643,399.04065,13036943,0.725,0.12765957,-1204.7571,177.38359,0.030063335,-0.0071231127,-0.03238964,0.0,0.0,0.0
873.199,404.2235,13036959,0.7375,0.11702127,-821.59564,300.6443,0.030063335,-0.0071231127,-0.03238964,0.0,0.0,0.0
866.50183,410.0022,13036976,0.71250004,0.08510638,-522.98254,382.8878,0.030063335,-0.0071231127,-0.03238964,0.0,0.0,0.0
859.7413,424.427,13036993,0.75,0.08510638,-220.26314,675.6741,0.030063335,-0.0071231127,-0.03238964,0.0,0.0,0.0
858.75635,437.72192,13037010,0.71250004,0.08510638,-24.290407,1006.93823,0.030063335,-0.0071231127,-0.03238964,0.0,0.0,0.0
861.2314,445.07678,13037026,0.71250004,0.12765957,207.51271,935.26843,0.030063335,-0.0071231127,-0.03238964,0.0,0.0,0.0
870.41345,452.5503,13037043,0.71250004,0.12765957,516.37164,586.3079,0.030063335,-0.0071231127,-0.03238964,0.0,0.0,0.0
890.50024,459.53796,13037060,0.7375,0.10638297,1116.2554,297.14523,0.030063335,-0.0071231127,-0.03238964,0.0,0.0,0.0
909.1222,461.78735,13037076,0.7375,0.11702127,1551.1902,110.91894,0.030063335,-0.0071231127,-0.03238964,0.0,0.0,0.0
925.80664,462.7865,13037093,0.725,0.10638297,1570.4537,39.82181,0.030063335,-0.0071231127,-0.03238964,0.0,0.0,0.0
947.0702,461.86414,13037110,0.725,0.12765957,1417.8639,-118.45735,0.030063335,-0.0071231127,-0.03238964,0.0,0.0,0.0
962.2988,459.14587,13037126,0.725,0.12765957,1115.3081,-287.1413,0.030063335,-0.0071231127,-0.03238964,0.0,0.0,0.0
974.2571,455.32422,13037143,0.725,0.12765957,855.8961,-324.8616,0.030063335,-0.0071231127,-0.03238964,0.0,0.0,0.0
985.81213,450.43384,13037160,0.7375,0.09574468,642.3468,-356.73007,0.030063335,-0.0071231127,-0.03238964,0.0,0.0,0.0
994.7333,444.85266,13037177,0.725,0.08510638,427.46115,-400.79532,0.030063335,-0.0071231127,-0.03238964,0.0,0.0,0.0
999.29456,438.1643,13037193,0.725,0.08510638,246.38774,-434.6804,-0.023949333,-0.037698478,-0.04191208,0.0,0.0,0.0
1003.1686,429.4292,13037210,0.7375,0.08510638,149.1988,-527.72705,-0.023949333,-0.037698478,-0.04191208,0.0,0.0,0.0
1004.65076,420.8225,13037227,0.7375,0.09574468,0.46240792,-602.81055,-0.023949333,-0.037698478,-0.04191208,0.0,0.0,0.0
1004.34534,413.52368,13037243,0.7375,0.10638297,-113.845665,-561.9537,-0.023949333,-0.037698478,-0.04191208,0.0,0.0,0.0
1001.9265,407.29932,13037260,0.725,0.10638297,-204.58273,-466.05695,-0.023949333,-0.037698478,-0.04191208,0.0,0.0,0.0
997.3031,401.25122,13037277,0.7375,0.09574468,-326.04968,-320.8734,-0.023949333,-0.037698478,-0.04191208,0.0,0.0,0.0
990.0746,393.8556,13037294,0.75,0.08510638,-474.45282,-319.49603,-0.023949333,-0.037698478,-0.04191208,0.0,0.0,0.0
978.7937,387.3235,13037310,0.725,0.09574468,-661.564,-384.20425,-0.023949333,-0.037698478,-0.04191208,0.0,0.0,0.0
965.03906,385.47205,13037327,0.7375,0.08510638,-903.3555,-273.7438,-0.023949333,-0.037698478,-0.04191208,0.0,0.0,0.0
946.957,387.51733,13037344,0.7375,0.08510638,-1149.2029,-13.367257,-0.023949333,-0.037698478,-0.04191208,0.0,0.0,0.0
934.847,391.21057,13037360,0.725,0.11702127,-1123.4926,308.39813,-0.023949333,-0.037698478,-0.04191208,0.0,0.0,0.0
928.1879,394.9569,13037377,0.75,0.12765957,-785.1213,457.23526,-0.023949333,-0.037698478,-0.04191208,0.0,0.0,0.0
923.1074,401.22375,13037394,0.725,0.12765957,-341.84012,480.03998,-0.023949333,-0.037698478,-0.04191208,0.0,0.0,0.0
922.6775,404.1454,13037407,0.4875,0.08510638,-21.023375,433.85822,-0.023949333,-0.037698478,-0.04191208,0.0,0.0,0.0
922.6775,404.1454,13037414,0.4875,0.08510638,-21.023375,433.85822,-0.023949333,-0.037698478,-0.04191208,0.0,0.0,0.0
993.15454,429.912,13037914,0.625,0.06382979,0.0,0.0,-0.0031594634,-0.014158785,0.046470642,0.0,0.0,0.0
993.15454,429.912,13037945,0.6875,0.06382979,0.029931331,0.009054159,-0.0031594634,-0.014158785,0.046470642,0.0,0.0,0.0
993.15454,429.912,13037959,0.71250004,0.08510638,0.036009245,0.01464828,-0.0031594634,-0.014158785,0.046470642,0.0,0.0,0.0
1009.6492,423.69238,13037979,0.71250004,0.09574468,758.2066,-285.91324,-0.0031594634,-0.014158785,0.046470642,0.0,0.0,0.0
1023.13904,417.20264,13037995,0.71250004,0.10638297,1050.693,-441.32568,-0.0031594634,-0.014158785,0.046470642,0.0,0.0,0.0
1035.5897,409.80273,13038012,0.71250004,0.10638297,1113.3685,-542.8587,-0.0031594634,-0.014158785,0.046470642,0.0,0.0,0.0
1046.4203,402.34473,13038029,0.725,0.09574468,962.70435,-585.11487,-0.0031594634,-0.014158785,0.046470642,0.0,0.0,0.0
1053.8718,394.8927,13038046,0.7375,0.08510638,612.55914,-536.6904,-0.0031594634,-0.014158785,0.046470642,0.0,0.0,0.0
1058.6346,387.03857,13038062,0.75,0.08510638,261.01926,-472.77554,-0.0031594634,-0.014158785,0.046470642,0.0,0.0,0.0
1064.8309,371.92358,13038079,0.7375,0.10638297,189.00974,-685.2104,-0.0031594634,-0.014158785,0.046470642,0.0,0.0,0.0
1066.1307,360.40503,13038096,0.7375,0.12765957,93.252815,-874.20264,-0.0031594634,-0.014158785,0.046470642,0.0,0.0,0.0
1064.5078,351.28442,13038112,0.75,0.10638297,-75.768776,-829.1602,-0.0031594634,-0.014158785,0.046470642,0.0,0.0,0.0
1062.4932,346.146,13038129,0.7375,0.09574468,-250.64726,-521.45667,-0.0031594634,-0.014158785,0.046470642,0.0,0.0,0.0
1059.0872,342.35364,13038146,0.75,0.08510638,-354.6687,-124.10886,-0.0031594634,-0.014158785,0.046470642,0.0,0.0,0.0
1054.4222,339.41235,13038163,0.7375,0.08510638,-375.96896,17.088728,-0.0031594634,-0.014158785,0.046470642,0.0,0.0,0.0
1050.7231,337.55933,13038179,0.75,0.08510638,-333.68396,20.274834,-0.0031594634,-0.014158785,0.046470642,0.0,0.0,0.0
1049.1276,337.50757,13038196,0.75,0.10638297,-224.98572,29.640272,-0.0031594634,-0.014158785,0.046470642,0.0,0.0,0.0
1048.0876,338.48303,13038213,0.75,0.12765957,-92.41935,83.93004,-0.0031594634,-0.014158785,0.046470642,0.0,0.0,0.0
1049.3182,343.3235,13038229,0.75,0.12765957,70.23729,247.6384,-0.0031594634,-0.014158785,0.046470642,0.0,0.0,0.0
1053.1963,349.80627,13038246,0.7375,0.09574468,227.8386,429.77963,-0.0031594634,-0.014158785,0.046470642,0.0,0.0,0.0
1060.6605,359.2478,13038263,0.725,0.08510638,427.2922,614.181,0.01347243,-0.011327028,0.005176544,0.0,0.0,0.0
1070.2924,372.96777,13038279,0.75,0.09574468,643.06305,834.49915,0.01347243,-0.011327028,0.005176544,0.0,0.0,0.0
1077.8512,384.55896,13038296,0.7375,0.12765957,708.9917,924.1096,0.01347243,-0.011327028,0.005176544,0.0,0.0,0.0
1085.9948,398.2057,13038313,0.725,0.12765957,603.80615,903.0681,0.01347243,-0.011327028,0.005176544,0.0,0.0,0.0
1092.2998,412.5559,13038330,0.75,0.08510638,454.03915,887.71826,0.01347243,-0.011327028,0.005176544,0.0,0.0,0.0
1097.2043,429.0746,13038346,0.725,0.08510638,318.77252,977.0888,0.01347243,-0.011327028,0.005176544,0.0,0.0,0.0
1099.524,442.21716,13038363,0.7375,0.10638297,176.40053,991.0486,0.01347243,-0.011327028,0.005176544,0.0,0.0,0.0
1101.0571,454.015,13038380,0.725,0.10638297,29.156208,836.2336,0.01347243,-0.011327028,0.005176544,0.0,0.0,0.0
1101.1194,467.88623,13038396,0.75,0.08510638,-83.97616,694.3322,0.01347243,-0.011327028,0.005176544,0.0,0.0,0.0
1101.1194,485.42224,13038413,0.7375,0.08510638,-96.68737,844.8094,0.01347243,-0.011327028,0.005176544,0.0,0.0,0.0
1099.9974,498.09033,13038430,0.7375,0.12765957,-102.784065,942.6555,0.01347243,-0.011327028,0.005176544,0.0,0.0,0.0
1096.2092,513.1173,13038447,0.75,0.10638297,-185.74529,951.6186,0.01347243,-0.011327028,0.005176544,0.0,0.0,0.0
1089.1024,527.05505,13038463,0.725,0.09574468,-366.34274,860.3722,0.01347243,-0.011327028,0.005176544,0.0,0.0,0.0
1078.8767,538.75354,13038478,0.75,0.08510638,-540.3996,699.247,0.01347243,-0.011327028,0.005176544,0.0,0.0,0.0
1055.6354,552.2051,13038497,0.75,0.09574468,-1127.2942,728.98096,0.01347243,-0.011327028,0.005176544,0.0,0.0,0.0
1030.222,561.45886,13038513,0.7375,0.12765957,-1750.1729,703.86584,0.01347243,-0.011327028,0.005176544,0.0,0.0,0.0
1003.22363,568.2313,13038530,0.7375,0.10638297,-2097.1545,519.65576,0.01347243,-0.011327028,0.005176544,0.0,0.0,0.0
980.5139,572.9978,13038547,0.7375,0.11702127,-1971.6973,271.0302,0.01347243,-0.011327028,0.005176544,0.0,0.0,0.0
962.1647,580.069,13038559,0.3625,0.08510638,-1799.7684,221.24403,0.01347243,-0.011327028,0.005176544,0.0,0.0,0.0
962.1647,580.069,13038565,0.3625,0.08510638,-1799.7684,221.24403,0.01347243,-0.011327028,0.005176544,0.0,0.0,0.0
