x,y,timestamp,pressure,fingerarea,velocityx,velocityy,accelx,accely,accelz,gyrox,gyroy,gyroz
306.3781,261.0963,98434008,1.2125,0.14893617,0.0,0.0,0.012097806,-0.035181284,0.015086174,0.0,0.0,0.0
306.3781,261.0963,98434039,1.375,0.14893617,-0.037398405,-0.034904923,0.012097806,-0.035181284,0.015086174,0.0,0.0,0.0
306.3781,261.0963,98434055,1.35,0.12765957,-0.010756399,-0.009733255,0.012097806,-0.035181284,0.015086174,0.0,0.0,0.0
306.3781,261.0963,98434072,1.2125,0.12765957,-0.016550645,-0.015121502,0.012097806,-0.035181284,0.015086174,0.0,0.0,0.0
306.3781,261.0963,98434089,0.975,0.10638297,0.0025073148,0.002279466,0.012097806,-0.035181284,0.015086174,0.0,0.0,0.0
293.46826,295.14832,98434105,0.90000004,0.10638297,-385.02032,1006.4289,0.012097806,-0.035181284,0.015086174,8.55473E-5,0.0,0.0
287.38165,322.7102,98434122,0.9125,0.08510638,-620.861,1966.693,0.012097806,-0.035181284,0.015086174,8.55473E-5,0.0,0.0
279.3228,353.26025,98434139,0.90000004,0.10638297,-705.4652,2559.1282,0.012097806,-0.035181284,0.015086174,8.55473E-5,0.0,0.0
270.61313,383.23718,98434156,0.925,0.10638297,-667.6788,2539.4597,0.012097806,-0.035181284,0.015086174,8.55473E-5,0.0,0.0
258.9483,414.90796,98434172,0.925,0.11702127,-615.8451,2164.6147,0.012097806,-0.035181284,0.015086174,-0.0010548945,1.2410524E-4,0.0
247.6842,436.96362,98434189,0.925,0.10638297,-763.4265,1741.1272,0.012097806,-0.035181284,0.015086174,-0.0010548945,1.2410524E-4,0.0
233.66534,460.43616,98434206,0.9125,0.09574468,-870.261,1399.1274,0.012097806,-0.035181284,0.015086174,-0.0010548945,1.2410524E-4,0.0
225.01376,472.1129,98434222,0.96250004,0.08510638,-767.68713,814.99115,0.012097806,-0.035181284,0.015086174,-0.0010548945,1.2410524E-4,0.0
215.33514,483.4773,98434239,1.0125,0.11702127,-601.1503,424.68134,0.049678236,0.059854984,0.04406929,-5.8696245E-5,0.0,0.0
205.03665,490.61865,98434256,1.0875,0.12765957,-500.46744,186.30734,0.049678236,0.059854984,0.04406929,-5.8696245E-5,0.0,0.0
194.13647,492.10718,98434273,1.1875,0.10638297,-546.33057,-3.4513893,0.049678236,0.059854984,0.04406929,-5.8696245E-5,0.0,0.0
184.0577,485.99805,98434289,1.1750001,0.10638297,-623.70087,-364.3697,0.049678236,0.059854984,0.04406929,-5.8696245E-5,0.0,0.0
177.26204,476.76843,98434306,1.1375,0.10638297,-549.7577,-734.71954,0.049678236,0.059854984,0.04406929,5.5339362E-5,0.0,0.0
170.3937,463.5067,98434323,1.0875,0.12765957,-393.43906,-1032.767,0.049678236,0.059854984,0.04406929,5.5339362E-5,0.0,0.0
166.0051,452.7854,98434339,1.0625,0.10638297,-249.28697,-1062.0344,0.049678236,0.059854984,0.04406929,5.5339362E-5,0.0,0.0
162.49721,442.86108,98434356,1.0625,0.08510638,-150.10318,-893.3341,0.049678236,0.059854984,0.04406929,5.5339362E-5,0.0,0.0
160.0122,432.5172,98434373,1.075,0.08510638,-96.12053,-697.2109,0.049678236,0.059854984,0.04406929,3.4402512E-4,0.0,0.0
160.64755,426.95154,98434390,1.1,0.10638297,30.137741,-421.1922,0.049678236,0.059854984,0.04406929,3.4402512E-4,0.0,0.0
161.93349,424.12927,98434406,1.1750001,0.12765957,145.90468,-189.68976,0.049678236,0.059854984,0.04406929,3.4402512E-4,0.0,0.0
165.91933,424.13464,98434423,1.325,0.12765957,262.20956,44.823685,0.049678236,0.059854984,0.04406929,3.4402512E-4,0.0,0.0
170.6838,426.59033,98434440,1.325,0.12765957,372.7223,261.18716,0.049678236,0.059854984,0.04406929,-2.180777E-4,2.7259712E-5,0.0
176.17361,431.69263,98434456,1.1750001,0.10638297,418.96112,408.69104,0.049678236,0.059854984,0.04406929,-2.180777E-4,2.7259712E-5,0.0
188.3269,443.1598,98434473,1.1,0.12765957,588.41833,641.2182,0.049678236,0.059854984,0.04406929,-2.180777E-4,2.7259712E-5,0.0
206.76352,456.94458,98434490,1.1,0.14893617,967.9283,921.9621,0.049678236,0.059854984,0.04406929,-2.180777E-4,2.7259712E-5,0.0
227.88635,471.3214,98434506,1.1,0.10638297,1396.369,1118.0056,0.049678236,0.059854984,0.04406929,-0.0,0.0,0.0
251.38431,485.5337,98434523,1.0625,0.12765957,1672.1589,1106.5765,0.049678236,0.059854984,0.04406929,-0.0,0.0,0.0
279.37497,496.34045,98434540,1.0625,0.10638297,1834.5348,897.23846,0.049678236,0.059854984,0.04406929,-0.0,0.0,0.0
309.59897,500.54456,98434557,1.0625,0.12765957,1929.7694,490.00925,0.049678236,0.059854984,0.04406929,-0.0,0.0,0.0
339.48694,499.79956,98434573,1.0500001,0.10638297,2010.7416,24.36185,0.049678236,0.059854984,0.04406929,-8.388603E-5,0.0,0.0
371.82855,491.26636,98434590,1.0500001,0.12765957,2059.6785,-499.91208,0.049678236,0.059854984,0.04406929,-8.388603E-5,0.0,0.0
397.85736,475.66382,98434607,1.0125,0.11702127,1886.5992,-1033.9185,0.049678236,0.059854984,0.04406929,-8.388603E-5,0.0,0.0
419.0537,459.55847,98434623,1.0,0.12765957,1476.1312,-1366.7311,0.049678236,0.059854984,0.04406929,-8.388603E-5,0.0,0.0
431.9841,446.23193,98434640,1.0,0.10638297,921.03613,-1324.0464,0.049678236,0.059854984,0.04406929,-3.372172E-4,3.372172E-5,0.0
439.9901,429.46387,98434657,1.025,0.10638297,315.42172,-1086.0288,0.049678236,0.059854984,0.04406929,-3.372172E-4,3.372172E-5,0.0
442.0244,414.21497,98434674,1.0500001,0.12765957,-95.72115,-974.14874,0.049678236,0.059854984,0.04406929,-3.372172E-4,3.372172E-5,0.0
438.99307,407.88672,98434690,1.1,0.12765957,-425.5456,-723.19275,0.049678236,0.059854984,0.04406929,-3.372172E-4,3.372172E-5,0.0
433.42072,403.30652,98434707,1.2,0.12765957,-624.0651,-356.46292,0.049678236,0.059854984,0.04406929,8.55473E-5,0.0,0.0
425.59796,402.3683,98434724,1.2125,0.12765957,-713.08905,60.242416,0.049678236,0.059854984,0.04406929,8.55473E-5,0.0,0.0
417.85208,405.28247,98434740,1.125,0.11702127,-733.5673,366.6388,0.049678236,0.059854984,0.04406929,8.55473E-5,0.0,0.0
406.07968,412.87976,98434757,0.9875,0.11702127,-698.2739,500.8409,0.049678236,0.059854984,0.04406929,8.55473E-5,0.0,0.0
371.47183,440.3369,98434774,0.9375,0.12765957,-1419.3322,1205.544,-0.06425738,-0.08811593,-0.060744286,4.9149944E-4,-4.0958286E-5,0.0
354.711,456.6819,98434791,1.0125,0.10638297,-1800.2814,1670.2637,-0.06425738,-0.08811593,-0.060744286,4.9149944E-4,-4.0958286E-5,0.0
344.04965,473.48462,98434807,1.0125,0.09574468,-1445.8489,1575.5835,-0.06425738,-0.08811593,-0.060744286,4.9149944E-4,-4.0958286E-5,0.0
337.81705,490.6012,98434824,1.0,0.09574468,-593.8309,1261.2517,-0.06425738,-0.08811593,-0.060744286,4.9149944E-4,-4.0958286E-5,0.0
337.17465,499.27356,98434841,0.9875,0.10638297,286.46396,647.8598,-0.06425738,-0.08811593,-0.060744286,1.5005995E-5,0.0,0.0
340.99503,510.10498,98434857,1.0,0.10638297,523.4121,455.03387,-0.06425738,-0.08811593,-0.060744286,1.5005995E-5,0.0,0.0
347.80435,518.52026,98434874,1.0125,0.09574468,625.80554,348.47217,-0.06425738,-0.08811593,-0.060744286,1.5005995E-5,0.0,0.0
362.75296,528.8097,98434891,1.075,0.11702127,928.00574,362.2641,-0.06425738,-0.08811593,-0.060744286,1.5005995E-5,0.0,0.0
382.81747,534.66016,98434908,1.0875,0.10638297,1287.3934,480.8464,-0.06425738,-0.08811593,-0.060744286,-3.355443E-6,0.0,0.0
400.10724,533.838,98434924,1.0625,0.12765957,1468.3118,159.06711,-0.06425738,-0.08811593,-0.060744286,-3.355443E-6,0.0,0.0
416.16354,528.1466,98434941,1.0500001,0.14893617,1353.5988,-294.55832,-0.06425738,-0.08811593,-0.060744286,-3.355443E-6,0.0,0.0
427.75726,519.88635,98434958,1.025,0.12765957,982.5199,-697.99286,-0.06425738,-0.08811593,-0.060744286,-3.355443E-6,0.0,0.0
436.11502,510.5005,98434974,1.0,0.10638297,543.97253,-878.44885,-0.06425738,-0.08811593,-0.060744286,0.0,0.0,0.0
443.79636,498.7174,98434991,0.9875,0.09574468,289.0622,-881.34424,-0.06425738,-0.08811593,-0.060744286,0.0,0.0,0.0
455.77728,472.50696,98435008,0.9875,0.12765957,350.04938,-1206.9032,-0.06425738,-0.08811593,-0.060744286,0.0,0.0,0.0
462.1031,451.57996,98435024,1.0,0.10638297,477.49158,-1625.3313,-0.06425738,-0.08811593,-0.060744286,0.0,0.0,0.0
465.12054,433.20483,98435041,1.025,0.08510638,362.41458,-1650.275,-0.06425738,-0.08811593,-0.060744286,0.0,0.0,0.0
464.9909,416.54834,98435058,1.025,0.12765957,35.747383,-1285.0515,-0.06425738,-0.08811593,-0.060744286,0.0,0.0,0.0
462.68823,405.88928,98435075,1.075,0.12765957,-294.12552,-736.5233,-0.06425738,-0.08811593,-0.060744286,0.0,0.0,0.0
461.00336,403.41284,98435091,1.1,0.12765957,-367.22888,-205.45421,-0.06425738,-0.08811593,-0.060744286,0.0,0.0,0.0
458.91406,401.5559,98435108,1.2125,0.12765957,-278.9658,119.72884,-0.06425738,-0.08811593,-0.060744286,9.678568E-5,0.0,0.0
456.8421,401.47986,98435125,1.325,0.12765957,-195.26608,337.2443,-0.06425738,-0.08811593,-0.060744286,9.678568E-5,0.0,0.0
455.2588,403.3828,98435141,1.4,0.12765957,-121.22885,324.88446,-0.06425738,-0.08811593,-0.060744286,9.678568E-5,0.0,0.0
453.75208,408.1156,98435158,1.3625001,0.12765957,-94.32342,321.7802,-0.06425738,-0.08811593,-0.060744286,9.678568E-5,0.0,0.0
453.33026,413.7257,98435175,1.2,0.12765957,-56.737263,413.4899,-0.06425738,-0.08811593,-0.060744286,3.355443E-6,0.0,0.0
454.1363,422.0432,98435192,1.0500001,0.09574468,23.122686,517.8851,-0.06425738,-0.08811593,-0.060744286,3.355443E-6,0.0,0.0
457.1396,435.98657,98435208,1.0125,0.09574468,137.46994,770.4507,-0.06425738,-0.08811593,-0.060744286,3.355443E-6,0.0,0.0
463.94043,451.8014,98435225,1.0375,0.12765957,355.67426,1031.7194,-0.06425738,-0.08811593,-0.060744286,3.355443E-6,0.0,0.0
473.36493,470.85632,98435242,1.025,0.11702127,602.0762,1316.5769,-0.06425738,-0.08811593,-0.060744286,0.0,0.0,0.0
481.21545,482.7798,98435258,1.0500001,0.10638297,704.60455,1199.1924,-0.06425738,-0.08811593,-0.060744286,0.0,0.0,0.0
493.2699,496.8009,98435275,1.0625,0.10638297,725.72736,823.729,-0.06425738,-0.08811593,-0.060744286,0.0,0.0,0.0
509.65924,508.07092,98435292,1.0625,0.10638297,898.27106,678.28796,-0.06425738,-0.08811593,-0.060744286,0.0,0.0,0.0
526.39014,514.1162,98435309,1.0625,0.14893617,1102.2825,428.37726,0.052594066,0.04950714,-0.032595634,3.613921E-5,0.0,0.0
545.486,515.20825,98435325,1.0500001,0.12765957,1287.8801,158.88318,0.052594066,0.04950714,-0.032595634,3.613921E-5,0.0,0.0
561.6113,510.65332,98435342,1.0625,0.11702127,1225.6666,-287.86465,0.052594066,0.04950714,-0.032595634,3.613921E-5,0.0,0.0
575.5865,500.2849,98435359,1.0125,0.12765957,999.73914,-744.998,0.052594066,0.04950714,-0.032595634,3.613921E-5,0.0,0.0
587.6604,485.83362,98435375,1.0,0.12765957,761.1788,-1044.6116,0.052594066,0.04950714,-0.032595634,-6.0023962E-5,0.0,0.0
603.4927,453.6538,98435392,0.9875,0.12765957,693.7499,-1643.5033,0.052594066,0.04950714,-0.032595634,-6.0023962E-5,0.0,0.0
613.90405,423.72986,98435409,0.9875,0.12765957,669.50446,-2209.3484,0.052594066,0.04950714,-0.032595634,-6.0023962E-5,0.0,0.0
621.6375,388.88806,98435426,0.95,0.08510638,594.75104,-2599.5815,0.052594066,0.04950714,-0.032595634,1.710946E-5,0.0,0.0
626.0398,353.4696,98435442,0.975,0.12765957,343.3097,-2588.7397,0.052594066,0.04950714,-0.032595634,2.4196437E-5,0.0,0.0
627.88196,322.2516,98435459,0.9875,0.08510638,-8.655824,-2164.275,0.052594066,0.04950714,-0.032595634,2.4196437E-5,0.0,0.0
628.7732,289.8429,98435476,0.975,0.12765957,-154.69876,-1954.1097,0.052594066,0.04950714,-0.032595634,2.4196437E-5,0.0,0.0
627.39746,264.39673,98435492,0.9875,0.08510638,-203.67519,-1646.8098,0.052594066,0.04950714,-0.032595634,2.4196437E-5,0.0,0.0
623.49536,241.83594,98435509,1.0,0.12765957,-280.9446,-1402.9502,0.052594066,0.04950714,-0.032595634,8.388603E-5,0.0,0.0
619.398,227.71191,98435526,1.0125,0.08510638,-349.78128,-938.20087,0.052594066,0.04950714,-0.032595634,8.388603E-5,0.0,0.0
616.26666,221.09485,98435542,1.0875,0.08510638,-348.55154,-359.92154,0.052594066,0.04950714,-0.032595634,8.388603E-5,0.0,0.0
613.6247,218.35718,98435559,1.1750001,0.10638297,-250.82655,80.91965,0.052594066,0.04950714,-0.032595634,2.496814E-4,0.0,0.0
611.0021,217.5597,98435576,1.2625,0.12765957,-154.79332,346.94528,0.052594066,0.04950714,-0.032595634,2.496814E-4,0.0,0.0
607.68896,221.90137,98435593,1.35,0.14893617,-131.14343,456.2811,0.052594066,0.04950714,-0.032595634,2.496814E-4,0.0,0.0
604.7003,228.70898,98435609,1.325,0.14893617,-165.67497,563.54865,0.052594066,0.04950714,-0.032595634,2.496814E-4,0.0,0.0
604.481,233.19702,98435626,1.15,0.12765957,-131.36665,567.4701,0.052594066,0.04950714,-0.032595634,2.496814E-4,0.0,0.0
604.29626,251.53882,98435643,0.96250004,0.10638297,-5.332261,803.33246,0.052594066,0.04950714,-0.032595634,0.0,0.0,0.0
602.92456,280.76904,98435660,0.975,0.12765957,35.46187,1521.2993,0.052594066,0.04950714,-0.032595634,0.0,0.0,0.0
600.2825,317.89697,98435676,0.96250004,0.10638297,-58.358932,2372.1162,0.052594066,0.04950714,-0.032595634,0.0,0.0,0.0
599.1582,355.93848,98435693,0.975,0.12765957,-127.425606,2896.5205,0.052594066,0.04950714,-0.032595634,0.0,0.0,0.0
597.487,391.11548,98435710,1.0,0.10638297,-134.45026,2784.8662,0.052594066,0.04950714,-0.032595634,-2.02052E-4,0.0,0.0
595.78394,426.46423,98435726,0.975,0.11702127,-108.2221,2397.9917,0.052594066,0.04950714,-0.032595634,-2.02052E-4,0.0,0.0
594.78876,451.17957,98435743,0.96250004,0.12765957,-69.12335,1914.4788,0.052594066,0.04950714,-0.032595634,-2.02052E-4,0.0,0.0
594.2844,469.49475,98435760,1.0,0.11702127,-49.60462,1219.0928,0.052594066,0.04950714,-0.032595634,0.0,0.0,0.0
594.2844,477.43835,98435777,1.025,0.11702127,1.7939234,508.87396,0.052594066,0.04950714,-0.032595634,0.0,0.0,0.0
594.2844,481.9071,98435793,1.2,0.12765957,30.01842,-67.7816,0.052594066,0.04950714,-0.032595634,0.0,0.0,0.0
594.2844,484.44116,98435810,1.4375,0.14893617,29.817245,-341.39813,0.052594066,0.04950714,-0.032595634,0.0,0.0,0.0
595.7354,481.53125,98435827,1.45,0.15957446,54.62633,-428.58786,0.090075254,0.28760576,0.021924019,-6.752693E-5,0.0,0.0
601.4551,457.51282,98435843,1.125,0.12765957,228.56294,-981.8784,0.090075254,0.28760576,0.021924019,-6.752693E-5,0.0,0.0
606.7391,440.54138,98435860,1.0125,0.08510638,386.35638,-1575.0011,0.090075254,0.28760576,0.021924019,-6.752693E-5,0.0,0.0
613.5854,428.10132,98435877,0.9875,0.12765957,497.13168,-1556.9458,0.090075254,0.28760576,0.021924019,-6.752693E-5,0.0,0.0
624.2078,412.5923,98435894,1.0125,0.14893617,616.35815,-1151.6821,0.090075254,0.28760576,0.021924019,4.7453127E-6,0.0,0.0
635.69135,401.6709,98435910,1.025,0.12765957,719.8364,-660.59814,0.090075254,0.28760576,0.021924019,4.7453127E-6,0.0,0.0
648.45996,397.16772,98435927,1.0375,0.12765957,874.4207,-371.29266,0.090075254,0.28760576,0.021924019,4.7453127E-6,0.0,0.0
658.0535,398.73132,98435944,1.0500001,0.11702127,822.5627,-41.864506,0.090075254,0.28760576,0.021924019,4.7453127E-6,0.0,0.0
663.3155,402.4159,98435960,1.15,0.11702127,536.3042,420.9563,0.090075254,0.28760576,0.021924019,-2.0836096E-4,0.0,0.0
665.93164,407.1139,98435977,1.1750001,0.11702127,189.88327,617.2774,0.090075254,0.28760576,0.021924019,-2.0836096E-4,0.0,0.0
667.39734,414.0027,98435994,1.1750001,0.11702127,-58.35636,602.1125,0.090075254,0.28760576,0.021924019,-2.0836096E-4,0.0,0.0
666.58813,419.28198,98436010,1.1625,0.12765957,-181.11926,510.0976,0.090075254,0.28760576,0.021924019,-2.0836096E-4,0.0,0.0
663.12573,423.55774,98436027,1.15,0.12765957,-267.28876,395.72647,0.090075254,0.28760576,0.021924019,3.8436917E-4,0.0,0.0
660.6011,425.36487,98436044,1.0625,0.10638297,-293.65903,229.80174,0.090075254,0.28760576,0.021924019,3.8436917E-4,0.0,0.0
655.43945,430.8766,98436061,0.975,0.11702127,-350.12686,144.34198,0.090075254,0.28760576,0.021924019,3.8436917E-4,0.0,0.0
642.7086,440.4851,98436077,0.96250004,0.12765957,-580.03723,363.61038,0.090075254,0.28760576,0.021924019,3.8436917E-4,0.0,0.0
629.4705,447.5055,98436094,0.975,0.10638297,-892.1042,568.2499,0.090075254,0.28760576,0.021924019,3.6294447E-4,0.0,0.0
618.4915,452.5332,98436111,1.0,0.11702127,-1013.32935,551.2862,0.090075254,0.28760576,0.021924019,3.6294447E-4,0.0,0.0
612.1378,455.51892,98436127,1.0500001,0.11702127,-749.1622,286.8097,0.090075254,0.28760576,0.021924019,3.6294447E-4,0.0,0.0
609.3831,455.67847,98436144,1.075,0.12765957,-282.62762,5.3501515,0.090075254,0.28760576,0.021924019,3.6294447E-4,0.0,0.0
608.27734,455.67847,98436161,1.1125001,0.12765957,79.457436,-135.73457,0.090075254,0.28760576,0.021924019,0.0,0.0,0.0
608.27985,455.67847,98436178,1.075,0.11702127,191.9368,-134.49069,0.090075254,0.28760576,0.021924019,0.0,0.0,0.0
610.55164,456.7284,98436194,0.9375,0.10638297,232.92061,-66.24978,0.090075254,0.28760576,0.021924019,0.0,0.0,0.0
622.77924,466.08984,98436211,0.96250004,0.10638297,491.0312,243.87483,0.090075254,0.28760576,0.021924019,0.0,0.0,0.0
642.25073,479.1682,98436228,0.9875,0.10638297,1038.1364,704.2046,0.090075254,0.28760576,0.021924019,-9.925527E-5,1.9851053E-5,0.0
671.0193,490.38086,98436244,0.9875,0.10638297,1746.5082,986.31775,0.090075254,0.28760576,0.021924019,-9.925527E-5,1.9851053E-5,0.0
703.1351,496.97607,98436261,0.975,0.12765957,2323.5662,855.734,0.090075254,0.28760576,0.021924019,-9.925527E-5,1.9851053E-5,0.0
739.91425,496.83704,98436278,0.975,0.12765957,2537.3413,298.01447,0.090075254,0.28760576,0.021924019,-9.925527E-5,1.9851053E-5,0.0
774.75757,488.71948,98436295,0.95,0.10638297,2547.5742,-421.85443,0.090075254,0.28760576,0.021924019,-1.342177E-5,0.0,0.0
806.47815,473.20325,98436311,0.925,0.12765957,2263.0894,-1037.9774,0.090075254,0.28760576,0.021924019,-1.342177E-5,0.0,0.0
831.21735,456.6001,98436328,0.9375,0.11702127,1780.5875,-1414.2509,0.090075254,0.28760576,0.021924019,-1.342177E-5,0.0,0.0
852.75525,439.6366,98436345,0.9375,0.12765957,1282.0027,-1494.3486,0.090075254,0.28760576,0.021924019,-1.342177E-5,0.0,0.0
863.63715,424.6869,98436361,0.95,0.12765957,734.71655,-1269.2242,-0.031939805,0.062084675,-0.014460564,3.355443E-6,0.0,0.0
871.326,404.50708,98436378,0.975,0.12765957,275.121,-1149.7793,-0.031939805,0.062084675,-0.014460564,3.355443E-6,0.0,0.0
870.62463,393.75195,98436395,1.0125,0.09574468,-211.55092,-923.7613,-0.031939805,0.062084675,-0.014460564,3.355443E-6,0.0,0.0
867.7509,387.75732,98436412,1.0500001,0.09574468,-520.0744,-566.66235,-0.031939805,0.062084675,-0.014460564,3.355443E-6,0.0,0.0
862.02856,384.33862,98436428,1.0875,0.11702127,-654.483,-153.04489,-0.031939805,0.062084675,-0.014460564,0.0,0.0,0.0
853.7722,384.02686,98436445,1.1,0.12765957,-717.60706,190.46837,-0.031939805,0.062084675,-0.014460564,0.0,0.0,0.0
845.0685,386.31653,98436462,1.0625,0.10638297,-685.83417,298.7769,-0.031939805,0.062084675,-0.014460564,0.0,0.0,0.0
838.56665,390.0111,98436478,1.025,0.10638297,-619.01245,365.69376,-0.031939805,0.062084675,-0.014460564,0.0,0.0,0.0
832.1954,394.12683,98436495,0.975,0.11702127,-467.90363,391.5824,-0.031939805,0.062084675,-0.014460564,1.08728695E-4,-2.1745738E-5,0.0
824.63684,402.77197,98436512,0.95,0.12765957,-374.75903,488.20703,-0.031939805,0.062084675,-0.014460564,1.08728695E-4,-2.1745738E-5,0.0
815.6068,419.87183,98436529,0.95,0.12765957,-437.84604,809.96344,-0.031939805,0.062084675,-0.014460564,1.08728695E-4,-2.1745738E-5,0.0
810.53674,436.76135,98436545,0.9125,0.11702127,-453.06644,1191.8413,-0.031939805,0.062084675,-0.014460564,1.08728695E-4,-2.1745738E-5,0.0
808.2418,456.78162,98436562,0.9125,0.14893617,-304.22693,1427.132,-0.031939805,0.062084675,-0.014460564,-3.355443E-6,0.0,0.0
809.25714,478.27087,98436579,0.8875,0.09574468,19.045942,1508.9304,-0.031939805,0.062084675,-0.014460564,-3.355443E-6,0.0,0.0
812.9654,492.8916,98436595,0.9125,0.12765957,304.42914,1267.0057,-0.031939805,0.062084675,-0.014460564,-3.355443E-6,0.0,0.0
815.90576,499.55908,98436612,0.96250004,0.12765957,414.44562,765.8749,-0.031939805,0.062084675,-0.014460564,-3.355443E-6,0.0,0.0
822.5382,507.26733,98436629,1.025,0.10638297,445.6634,307.7325,-0.031939805,0.062084675,-0.014460564,-8.55473E-5,0.0,0.0
834.58984,512.5427,98436645,1.075,0.10638297,628.3492,27.248348,-0.031939805,0.062084675,-0.014460564,-8.55473E-5,0.0,0.0
846.9747,510.51733,98436662,1.1,0.14893617,834.0348,-143.61874,-0.031939805,0.062084675,-0.014460564,-8.55473E-5,0.0,0.0
855.72943,502.25793,98436679,1.0125,0.12765957,902.2318,-424.5595,-0.031939805,0.062084675,-0.014460564,-8.55473E-5,0.0,0.0
860.2435,486.85522,98436696,0.9875,0.11702127,576.0485,-963.1907,-0.031939805,0.062084675,-0.014460564,-0.0,0.0,0.0
861.391,466.02515,98436712,0.96250004,0.14893617,96.021355,-1456.7235,-0.031939805,0.062084675,-0.014460564,-0.0,0.0,0.0
859.6042,448.0702,98436729,0.9875,0.09574468,-242.95981,-1606.5441,-0.031939805,0.062084675,-0.014460564,-0.0,0.0,0.0
856.1049,434.0194,98436746,0.9875,0.09574468,-400.9854,-1327.4093,-0.031939805,0.062084675,-0.014460564,-0.0,0.0,0.0
852.44604,420.90247,98436762,1.0125,0.12765957,-405.86758,-919.5555,-0.031939805,0.062084675,-0.014460564,1.3505387E-4,0.0,0.0
849.6985,413.9115,98436779,1.0500001,0.14893617,-343.39792,-487.652,-0.031939805,0.062084675,-0.014460564,1.3505387E-4,0.0,0.0
848.65765,411.1753,98436796,1.1375,0.12765957,-183.96815,-126.01414,-0.031939805,0.062084675,-0.014460564,1.3505387E-4,0.0,0.0
847.6163,411.25342,98436813,1.2375001,0.12765957,-54.798103,123.18042,-0.031939805,0.062084675,-0.014460564,1.3505387E-4,0.0,0.0
847.819,415.63965,98436829,1.2625,0.14893617,35.866066,397.62927,-0.031939805,0.062084675,-0.014460564,4.2443335E-5,0.0,0.0
848.5133,422.13452,98436846,1.1375,0.11702127,81.00111,576.08545,-0.031939805,0.062084675,-0.014460564,4.2443335E-5,0.0,0.0
851.9169,435.81958,98436863,0.975,0.10638297,150.25429,780.2314,-0.031939805,0.062084675,-0.014460564,4.2443335E-5,0.0,0.0
860.3951,458.21924,98436879,0.9875,0.12765957,400.5409,1273.647,-0.031939805,0.062084675,-0.014460564,4.2443335E-5,0.0,0.0
868.8606,475.91516,98436896,0.9875,0.10638297,644.57855,1587.3892,0.0064481497,0.033667803,0.036431313,-5.533931E-5,0.0,0.0
878.124,487.9917,98436913,0.9875,0.09574468,731.00726,1320.3865,0.0064481497,0.033667803,0.036431313,-5.533931E-5,0.0,0.0
891.54724,499.6338,98436930,0.9875,0.10638297,807.2192,831.7339,0.0064481497,0.033667803,0.036431313,-5.533931E-5,0.0,0.0
906.456,505.91406,98436946,0.9875,0.14893617,903.1351,325.761,0.0064481497,0.033667803,0.036431313,-5.533931E-5,0.0,0.0
923.4439,506.45215,98436963,1.0,0.12765957,1062.2126,-0.036157526,0.0064481497,0.033667803,0.036431313,1.2079586E-4,0.0,0.0
937.015,498.48254,98436980,0.95,0.10638297,1144.2571,-378.31888,0.0064481497,0.033667803,0.036431313,1.2079586E-4,0.0,0.0
947.94147,482.78687,98436996,0.9375,0.12765957,853.1192,-1023.5192,0.0064481497,0.033667803,0.036431313,1.2079586E-4,0.0,0.0
963.91003,450.55798,98437013,0.925,0.11702127,780.75,-1870.7959,0.0064481497,0.033667803,0.036431313,1.2079586E-4,0.0,0.0
975.916,415.22046,98437030,0.925,0.14893617,717.39606,-2492.2397,0.0064481497,0.033667803,0.036431313,0.0,0.0,0.0
982.3856,381.57507,98437047,0.95,0.09574468,557.5118,-2744.0679,0.0064481497,0.033667803,0.036431313,0.0,0.0,0.0
988.3915,343.5044,98437063,0.95,0.10638297,369.17822,-2718.8464,0.0064481497,0.033667803,0.036431313,0.0,0.0,0.0
992.5596,306.36755,98437080,0.9375,0.12765957,126.03262,-2488.8523,0.0064481497,0.033667803,0.036431313,0.0,0.0,0.0
994.6946,274.66418,98437097,0.95,0.08510638,38.98388,-2203.9805,0.0064481497,0.033667803,0.036431313,0.0,0.0,0.0
995.6537,242.70825,98437113,0.9375,0.12765957,-9.097438,-1935.326,0.0064481497,0.033667803,0.036431313,0.0,0.0,0.0
995.33826,221.49292,98437130,0.96250004,0.08510638,-82.51126,-1485.0955,0.0064481497,0.033667803,0.036431313,0.0,0.0,0.0
993.93823,202.948,98437147,0.96250004,0.12765957,-152.635,-1003.8094,0.0064481497,0.033667803,0.036431313,0.0,0.0,0.0
993.15454,193.73132,98437163,1.0,0.12765957,-160.93074,-509.52625,0.0064481497,0.033667803,0.036431313,0.0,0.0,0.0
992.1859,190.90454,98437180,1.0875,0.12765957,-121.41666,-39.06532,0.0064481497,0.033667803,0.036431313,0.0,0.0,0.0
992.1549,191.81238,98437197,1.275,0.12765957,-51.31899,341.71423,0.0064481497,0.033667803,0.036431313,0.0,0.0,0.0
992.1549,199.33813,98437214,1.2625,0.14893617,4.6305785,664.651,0.0064481497,0.033667803,0.036431313,0.0,0.0,0.0
992.1549,208.80017,98437230,1.0375,0.10638297,26.223627,863.2954,0.0064481497,0.033667803,0.036431313,-0.0,0.0,0.0
995.0377,237.41736,98437247,0.96250004,0.10638297,96.09957,1398.284,0.0064481497,0.033667803,0.036431313,-0.0,0.0,0.0
998.13586,276.90723,98437264,0.96250004,0.09574468,196.90146,2344.2734,0.0064481497,0.033667803,0.036431313,-0.0,0.0,0.0
1003.2886,322.60095,98437280,0.9375,0.08510638,318.51358,3183.4229,0.0064481497,0.033667803,0.036431313,-0.0,0.0,0.0
1007.6345,364.88806,98437297,0.95,0.09574468,366.84305,3352.3916,0.0064481497,0.033667803,0.036431313,7.66628E-5,0.0,0.0
1013.6433,400.8661,98437314,0.95,0.12765957,356.75333,2794.2312,0.0064481497,0.033667803,0.036431313,7.66628E-5,0.0,0.0
1021.53613,431.48462,98437331,0.9375,0.09574468,437.15887,2092.4368,0.0064481497,0.033667803,0.036431313,7.66628E-5,0.0,0.0
1029.831,453.9596,98437347,0.95,0.14893617,530.1153,1419.1204,0.0064481497,0.033667803,0.036431313,7.66628E-5,0.0,0.0
1035.2146,464.08044,98437364,0.95,0.10638297,516.2406,670.89435,0.0064481497,0.033667803,0.036431313,1.342177E-5,0.0,0.0
1045.2852,475.28784,98437381,0.9375,0.08510638,482.59042,115.6083,0.0064481497,0.033667803,0.036431313,1.342177E-5,0.0,0.0
1055.1002,481.43152,98437397,0.925,0.09574468,558.0734,-31.251144,0.0064481497,0.033667803,0.036431313,1.342177E-5,0.0,0.0
1064.8641,481.44507,98437414,0.55,0.13829787,664.3484,-128.75304,0.0064481497,0.033667803,0.036431313,1.342177E-5,0.0,0.0
1064.8641,481.44507,98437421,0.55,0.13829787,664.3484,-128.75304,0.0064481497,0.033667803,0.036431313,1.342177E-5,0.0,0.0
932.1744,332.1765,98437590,1.25,0.14893617,0.0,0.0,-0.026841491,0.05893421,-0.050854683,9.034802E-5,0.0,0.0
932.1744,332.1765,98437615,1.3875,0.14893617,0.121521026,0.043078333,-0.026841491,0.05893421,-0.050854683,9.034802E-5,0.0,0.0
932.1744,332.1765,98437631,1.2375001,0.12765957,0.018786866,0.0076726726,-0.026841491,0.05893421,-0.050854683,-3.0198984E-5,0.0,0.0
932.1744,332.1765,98437648,0.9875,0.10638297,-0.009556301,-0.0040252474,-0.026841491,0.05893421,-0.050854683,-3.0198984E-5,0.0,0.0
974.00073,345.5652,98437665,0.975,0.12765957,1739.0133,562.21594,-0.026841491,0.05893421,-0.050854683,-3.0198984E-5,0.0,0.0
1008.5044,352.94763,98437682,0.9375,0.12765957,2530.3054,700.41046,-0.026841491,0.05893421,-0.050854683,-3.0198984E-5,0.0,0.0
1052.1848,356.07727,98437698,0.8875,0.10638297,3331.3384,609.5736,-0.026841491,0.05893421,-0.050854683,-5.5339362E-5,0.0,0.0
1090.1229,359.7202,98437711,0.38750002,0.12765957,3610.0588,479.40607,-0.026841491,0.05893421,-0.050854683,-5.5339362E-5,0.0,0.0
1090.1229,359.7202,98437718,0.38750002,0.12765957,3610.0588,479.40607,-0.026841491,0.05893421,-0.050854683,-5.5339362E-5,0.0,0.0
1139.6068,351.72363,98437856,1.0500001,0.14893617,0.0,0.0,-0.026841491,0.05893421,-0.050854683,-1.5005995E-5,0.0,0.0
1139.6068,351.72363,98437882,1.1125001,0.14893617,0.14658746,0.043883227,-0.026841491,0.05893421,-0.050854683,-1.5005995E-5,0.0,0.0
1139.6068,351.72363,98437899,1.0,0.12765957,0.029776359,0.00963195,-0.026841491,0.05893421,-0.050854683,8.388603E-5,0.0,0.0
1121.581,367.3053,98437915,0.8625,0.08510638,-922.9669,786.72296,-0.026841491,0.05893421,-0.050854683,8.388603E-5,0.0,0.0
1110.6702,379.7428,98437932,0.8125,0.09574468,-1161.4796,1118.1232,-0.026841491,0.05893421,-0.050854683,8.388603E-5,0.0,0.0
1101.2612,398.64844,98437949,0.77500004,0.12765957,-1076.4939,1316.3966,-0.026841491,0.05893421,-0.050854683,8.388603E-5,0.0,0.0
1095.822,418.28662,98437966,0.75,0.08510638,-731.3157,1499.4684,0.026526809,-0.064852715,-0.07268429,5.8696245E-5,0.0,0.0
1093.6218,433.45007,98437982,0.7625,0.08510638,-157.31311,1320.2863,0.026526809,-0.064852715,-0.07268429,5.8696245E-5,0.0,0.0
1094.5248,446.1057,98437999,0.7875,0.12765957,218.4046,943.4302,0.026526809,-0.064852715,-0.07268429,5.8696245E-5,0.0,0.0
1099.093,459.17505,98438016,0.83750004,0.10638297,360.89993,734.47095,0.026526809,-0.064852715,-0.07268429,5.8696245E-5,0.0,0.0
1103.1163,465.44922,98438032,0.8625,0.09574468,492.00726,427.31873,0.026526809,-0.064852715,-0.07268429,-8.55473E-5,0.0,0.0
1111.89,472.22192,98438049,0.9125,0.10638297,565.17694,266.48676,0.026526809,-0.064852715,-0.07268429,-8.55473E-5,0.0,0.0
1122.4235,475.2256,98438066,0.95,0.11702127,686.9694,136.47037,0.026526809,-0.064852715,-0.07268429,-8.55473E-5,0.0,0.0
1135.5759,474.068,98438083,0.95,0.12765957,845.7467,-108.72967,0.026526809,-0.064852715,-0.07268429,-8.55473E-5,0.0,0.0
1143.9415,466.42163,98438099,0.9125,0.12765957,837.9332,-399.65897,0.026526809,-0.064852715,-0.07268429,-1.0610839E-5,0.0,0.0
1150.6979,453.85583,98438116,0.95,0.10638297,569.35016,-789.6727,0.026526809,-0.064852715,-0.07268429,-1.0610839E-5,0.0,0.0
1156.1555,432.00195,98438133,0.925,0.08510638,310.93076,-1348.9812,0.026526809,-0.064852715,-0.07268429,-1.0610839E-5,0.0,0.0
1156.2843,411.2744,98438149,0.9375,0.12765957,33.832726,-1658.1677,0.026526809,-0.064852715,-0.07268429,-1.0610839E-5,0.0,0.0
1152.8225,394.00928,98438166,0.96250004,0.09574468,-225.9567,-1584.8806,0.026526809,-0.064852715,-0.07268429,2.0410349E-5,0.0,0.0
1147.6241,381.2644,98438183,0.975,0.09574468,-467.195,-1159.3544,0.026526809,-0.064852715,-0.07268429,2.0410349E-5,0.0,0.0
1144.3491,375.25793,98438200,1.0,0.11702127,-529.75586,-510.01205,0.026526809,-0.064852715,-0.07268429,2.0410349E-5,0.0,0.0
1140.6768,370.46533,98438216,1.025,0.11702127,-386.74942,-86.815414,0.026526809,-0.064852715,-0.07268429,2.0410349E-5,0.0,0.0
1136.053,369.49365,98438233,1.075,0.12765957,-272.40308,133.11714,0.026526809,-0.064852715,-0.07268429,3.183252E-5,0.0,0.0
1133.4866,370.49084,98438250,1.1,0.12765957,-194.83826,245.34927,0.026526809,-0.064852715,-0.07268429,3.183252E-5,0.0,0.0
1131.5096,374.29138,98438266,1.1,0.12765957,-146.99066,334.42624,0.026526809,-0.064852715,-0.07268429,3.183252E-5,0.0,0.0
1132.1093,378.37878,98438283,1.1,0.12765957,-24.111956,413.1425,0.026526809,-0.064852715,-0.07268429,3.183252E-5,0.0,0.0
1132.7875,378.37878,98438300,1.0500001,0.11702127,103.20167,302.6949,0.026526809,-0.064852715,-0.07268429,0.0,0.0,0.0
1137.0787,382.2119,98438317,0.925,0.11702127,224.93083,184.6686,0.026526809,-0.064852715,-0.07268429,0.0,0.0,0.0
1152.2794,390.45203,98438333,0.9375,0.10638297,623.29144,266.459,0.026526809,-0.064852715,-0.07268429,0.0,0.0,0.0
1176.0795,398.6333,98438350,0.90000004,0.12765957,1313.721,534.0525,0.026526809,-0.064852715,-0.07268429,0.0,0.0,0.0
1201.4194,401.47986,98438367,0.925,0.12765957,1935.7386,565.32556,0.026526809,-0.064852715,-0.07268429,-3.6294656E-5,0.0,0.0
1219.0236,400.13293,98438383,0.925,0.11702127,1885.6132,190.86377,0.026526809,-0.064852715,-0.07268429,-3.6294656E-5,0.0,0.0
1235.3062,393.28894,98438400,0.925,0.12765957,1330.797,-354.02347,0.026526809,-0.064852715,-0.07268429,-3.6294656E-5,0.0,0.0
1244.3337,385.77002,98438417,0.90000004,0.12765957,683.7129,-721.8163,0.026526809,-0.064852715,-0.07268429,-3.6294656E-5,0.0,0.0
1247.5836,376.5525,98438433,0.96250004,0.12765957,124.53865,-777.2509,0.026526809,-0.064852715,-0.07268429,0.0,0.0,0.0
1247.0297,368.30518,98438450,1.0,0.12765957,-214.26703,-724.5706,0.026526809,-0.064852715,-0.07268429,0.0,0.0,0.0
1244.3369,360.9381,98438467,1.0375,0.14893617,-440.77985,-587.8887,0.026526809,-0.064852715,-0.07268429,0.0,0.0,0.0
1240.9755,357.5177,98438484,1.075,0.14893617,-497.72717,-360.15143,0.026526809,-0.064852715,-0.07268429,0.0,0.0,0.0
1235.9521,353.94604,98438500,1.1125001,0.12765957,-455.88547,-178.63556,0.0052214265,0.076117754,0.0058526993,1.5724091E-4,0.0,0.0
1233.1735,353.5006,98438517,1.1625,0.12765957,-371.00333,2.5803459,0.0052214265,0.076117754,0.0058526993,1.5724091E-4,0.0,0.0
1231.3322,353.5006,98438534,1.225,0.12765957,-205.19278,93.16888,0.0052214265,0.076117754,0.0058526993,1.5724091E-4,0.0,0.0
1230.5773,356.29382,98438550,1.25,0.14893617,-59.25307,180.8327,0.0052214265,0.076117754,0.0058526993,1.5724091E-4,0.0,0.0
1231.7211,360.5487,98438567,1.1625,0.12765957,84.998795,308.81442,0.0052214265,0.076117754,0.0058526993,3.0011981E-5,0.0,0.0
1233.8062,368.05383,98438584,0.95,0.10638297,174.7539,445.5151,0.0052214265,0.076117754,0.0058526993,3.0011981E-5,0.0,0.0
1238.5938,384.66602,98438601,0.85,0.11702127,285.74643,802.44867,0.0052214265,0.076117754,0.0058526993,3.0011981E-5,0.0,0.0
1244.7732,412.42896,98438617,0.8875,0.12765957,418.89603,1462.7281,0.0052214265,0.076117754,0.0058526993,3.0011981E-5,0.0,0.0
1248.0504,434.1665,98438634,0.875,0.09574468,427.93683,1919.0792,0.0052214265,0.076117754,0.0058526993,-3.355443E-6,0.0,0.0
1249.5964,454.48767,98438651,0.85,0.12765957,242.43443,1755.2825,0.0052214265,0.076117754,0.0058526993,-3.355443E-6,0.0,0.0
1246.7985,476.562,98438667,0.85,0.09574468,-43.173683,1472.5228,0.0052214265,0.076117754,0.0058526993,-3.355443E-6,0.0,0.0
1240.9252,491.86743,98438684,0.8625,0.10638297,-372.72882,1063.3723,0.0052214265,0.076117754,0.0058526993,-3.355443E-6,0.0,0.0
1233.5454,501.0288,98438701,0.85,0.10638297,-575.81024,653.3231,0.0052214265,0.076117754,0.0058526993,4.7453127E-6,0.0,0.0
1221.4951,514.90063,98438718,0.8625,0.09574468,-781.1938,543.7764,0.0052214265,0.076117754,0.0058526993,4.7453127E-6,0.0,0.0
1211.0344,523.53,98438734,0.8875,0.10638297,-851.7228,398.18433,0.0052214265,0.076117754,0.0058526993,4.7453127E-6,0.0,0.0
1202.2045,527.2291,98438751,0.8875,0.12765957,-751.3055,316.7694,0.0052214265,0.076117754,0.0058526993,4.7453127E-6,0.0,0.0
1180.7284,524.31775,98438768,0.8,0.12765957,-828.4098,-18.263414,0.0052214265,0.076117754,0.0058526993,1.8981249E-5,0.0,0.0
1172.0963,522.3163,98438771,0.3,0.10638297,-1013.1547,-123.871284,0.0052214265,0.076117754,0.0058526993,1.8981249E-5,0.0,0.0
1172.0963,522.3163,98438778,0.3,0.10638297,-1013.1547,-123.871284,0.0052214265,0.076117754,0.0058526993,1.8981249E-5,0.0,0.0
