x,y,timestamp,pressure,fingerarea,velocityx,velocityy,accelx,accely,accelz,gyrox,gyroy,gyroz
208.90985,225.55615,13987772,0.95,0.11702127,0.0,0.0,-0.031068921,0.09074211,0.0068101883,1.3505387E-4,6.752693E-5,0.0
208.90985,225.55615,13987800,0.9875,0.11702127,-0.012948342,-0.015689595,-0.031068921,0.09074211,0.0068101883,1.3505387E-4,6.752693E-5,0.0
208.90985,225.55615,13987817,0.9125,0.12765957,0.012423957,0.013859807,-0.031068921,0.09074211,0.0068101883,-2.9181453E-4,-2.9181453E-4,0.0
199.81354,257.57507,13987833,0.95,0.08510638,-459.9129,1606.5831,-0.031068921,0.09074211,0.0068101883,-2.9181453E-4,-2.9181453E-4,0.0
192.94324,280.8042,13987850,0.95,0.10638297,-616.9661,2145.974,-0.031068921,0.09074211,0.0068101883,-2.9181453E-4,-2.9181453E-4,0.0
186.18307,308.82483,13987867,0.96250004,0.09574468,-638.5471,2330.2163,-0.031068921,0.09074211,0.0068101883,-2.9181453E-4,-2.9181453E-4,0.0
176.07114,341.83533,13987883,0.925,0.09574468,-664.2684,2436.8416,-0.031068921,0.09074211,0.0068101883,-1.5724091E-4,-1.3103409E-4,0.0
164.18167,376.6902,13987900,0.9125,0.08510638,-683.5199,2223.5552,-0.031068921,0.09074211,0.0068101883,-1.5724091E-4,-1.3103409E-4,0.0
153.20053,411.00488,13987917,0.90000004,0.09574468,-738.56323,2188.8818,-0.031068921,0.09074211,0.0068101883,-1.5724091E-4,-1.3103409E-4,0.0
140.1921,444.32373,13987934,0.8625,0.12765957,-842.47546,2247.583,-0.031068921,0.09074211,0.0068101883,-1.5724091E-4,-1.3103409E-4,0.0
126.20593,478.3241,13987950,0.8625,0.08510638,-881.86035,2115.1284,-0.031068921,0.09074211,0.0068101883,9.034802E-5,3.613921E-5,0.0
114.783585,503.58325,13987967,0.875,0.12765957,-810.75134,1788.5016,-0.031068921,0.09074211,0.0068101883,9.034802E-5,3.613921E-5,0.0
107.91226,515.78455,13987984,0.9125,0.09574468,-631.0764,1159.8599,-0.031068921,0.09074211,0.0068101883,9.034802E-5,3.613921E-5,0.0
100.93892,524.734,13988000,0.9375,0.09574468,-389.8274,426.7702,-0.031068921,0.09074211,0.0068101883,9.034802E-5,3.613921E-5,0.0
94.689255,530.31836,13988017,1.0125,0.08510638,-228.6615,-140.2226,-0.031068921,0.09074211,0.0068101883,6.4160486E-5,1.2832097E-5,0.0
89.84329,532.5808,13988034,1.1,0.10638297,-217.16602,-237.34068,-0.031068921,0.09074211,0.0068101883,6.4160486E-5,1.2832097E-5,0.0
85.95108,532.3867,13988051,1.1875,0.10638297,-204.29066,-217.18121,-0.031068921,0.09074211,0.0068101883,6.4160486E-5,1.2832097E-5,0.0
83.22687,529.02637,13988067,1.225,0.10638297,-146.88733,-282.9553,-0.031068921,0.09074211,0.0068101883,6.4160486E-5,1.2832097E-5,0.0
79.40196,520.77014,13988084,1.1875,0.10638297,-100.18168,-505.58597,-0.031068921,0.09074211,0.0068101883,-6.710883E-5,-5.0331622E-5,0.0
75.5923,507.8706,13988101,1.125,0.10638297,-166.5425,-792.3057,-0.031068921,0.09074211,0.0068101883,-6.710883E-5,-5.0331622E-5,0.0
75.41576,479.359,13988117,1.0,0.08510638,-132.37527,-1290.1909,-0.031068921,0.09074211,0.0068101883,-6.710883E-5,-5.0331622E-5,0.0
83.19989,435.1477,13988134,0.8625,0.08510638,173.66298,-2416.1187,-0.031068921,0.09074211,0.0068101883,-6.710883E-5,-5.0331622E-5,0.0
93.44595,407.30835,13988151,1.0625,0.12765957,607.8591,-2860.0125,-0.031068921,0.09074211,0.0068101883,-2.0509741E-4,0.0,0.0
97.314926,400.8246,13988167,1.1750001,0.12765957,747.26514,-2022.8336,-0.031068921,0.09074211,0.0068101883,-2.0509741E-4,0.0,0.0
101.843475,394.72876,13988184,1.1625,0.12765957,586.9744,-689.6859,-0.031068921,0.09074211,0.0068101883,-2.0509741E-4,0.0,0.0
106.18869,392.2638,13988201,1.1375,0.10638297,307.88882,449.63263,-0.031068921,0.09074211,0.0068101883,-2.0509741E-4,0.0,0.0
110.26912,394.21814,13988217,1.0625,0.10638297,119.86304,738.98987,-0.031068921,0.09074211,0.0068101883,6.0932216E-4,4.569916E-4,0.0
116.9393,401.03503,13988234,1.0,0.08510638,285.28455,481.0531,-0.031068921,0.09074211,0.0068101883,6.0932216E-4,4.569916E-4,0.0
126.34215,414.63928,13988251,0.975,0.09574468,478.87424,820.5257,-0.031068921,0.09074211,0.0068101883,6.0932216E-4,4.569916E-4,0.0
139.90123,439.04712,13988268,0.9375,0.10638297,786.68964,1466.7516,-0.031068921,0.09074211,0.0068101883,6.0932216E-4,4.569916E-4,0.0
151.32695,459.63416,13988284,0.925,0.11702127,877.0886,1685.3411,-0.08085513,0.024593592,0.12544823,-5.533931E-5,-2.2135724E-4,0.0
162.24791,480.89795,13988301,0.96250004,0.08510638,852.27374,1717.0209,-0.08085513,0.024593592,0.12544823,-5.533931E-5,-2.2135724E-4,0.0
168.01335,490.6117,13988318,0.9375,0.09574468,583.7578,1213.5706,-0.08085513,0.024593592,0.12544823,-5.533931E-5,-2.2135724E-4,0.0
175.80489,501.72644,13988334,0.96250004,0.08510638,348.9116,600.6604,-0.08085513,0.024593592,0.12544823,-5.533931E-5,-2.2135724E-4,0.0
184.66986,511.01465,13988351,0.96250004,0.10638297,354.48657,333.50232,-0.08085513,0.024593592,0.12544823,1.5852452E-4,1.3210376E-4,0.0
195.18018,519.2571,13988368,0.975,0.11702127,482.77585,248.77074,-0.08085513,0.024593592,0.12544823,1.5852452E-4,1.3210376E-4,0.0
206.00757,523.3976,13988384,0.975,0.10638297,688.57416,284.7707,-0.08085513,0.024593592,0.12544823,1.5852452E-4,1.3210376E-4,0.0
218.18726,526.15784,13988401,1.0,0.08510638,783.0191,160.12903,-0.08085513,0.024593592,0.12544823,1.5852452E-4,1.3210376E-4,0.0
230.77533,525.2217,13988418,1.025,0.08510638,802.8291,-81.36744,-0.08085513,0.024593592,0.12544823,4.501798E-5,2.250899E-5,0.0
242.86917,521.5182,13988435,1.0375,0.12765957,808.91656,-299.99228,-0.08085513,0.024593592,0.12544823,4.501798E-5,2.250899E-5,0.0
257.33075,516.5652,13988451,1.0625,0.14893617,830.8791,-425.39893,-0.08085513,0.024593592,0.12544823,4.501798E-5,2.250899E-5,0.0
271.802,510.40344,13988468,1.0625,0.10638297,889.5994,-506.5927,-0.08085513,0.024593592,0.12544823,4.501798E-5,2.250899E-5,0.0
285.13214,502.53198,13988485,1.0625,0.10638297,884.3761,-541.2572,-0.08085513,0.024593592,0.12544823,-2.5886932E-4,-1.6179332E-4,0.0
298.43054,490.0564,13988501,1.075,0.12765957,840.74493,-681.3968,-0.08085513,0.024593592,0.12544823,-2.5886932E-4,-1.6179332E-4,0.0
313.0978,473.29395,13988518,1.0625,0.12765957,817.2243,-949.47815,-0.08085513,0.024593592,0.12544823,-2.5886932E-4,-1.6179332E-4,0.0
325.85245,458.1267,13988535,1.075,0.10638297,792.38904,-1154.489,-0.08085513,0.024593592,0.12544823,-2.5886932E-4,-1.6179332E-4,0.0
338.33746,443.27258,13988552,1.0625,0.09574468,777.33,-1165.3474,-0.08085513,0.024593592,0.12544823,-2.7220995E-5,-1.814733E-5,0.0
350.77103,427.6084,13988568,1.0500001,0.12765957,737.7581,-1029.856,-0.08085513,0.024593592,0.12544823,-2.7220995E-5,-1.814733E-5,0.0
361.16782,413.80286,13988585,1.0500001,0.14893617,651.3052,-885.45496,-0.08085513,0.024593592,0.12544823,-2.7220995E-5,-1.814733E-5,0.0
373.663,403.97827,13988602,1.0375,0.12765957,643.548,-696.82513,-0.08085513,0.024593592,0.12544823,-2.7220995E-5,-1.814733E-5,0.0
383.36786,395.84106,13988618,1.0375,0.10638297,620.04266,-503.15042,-0.08085513,0.024593592,0.12544823,-5.5339362E-5,1.38348405E-5,0.0
391.85175,389.81726,13988635,1.025,0.10638297,536.7862,-294.2056,-0.08085513,0.024593592,0.12544823,-5.5339362E-5,1.38348405E-5,0.0
398.6341,384.78845,13988652,1.0500001,0.10638297,433.6037,-182.18065,-0.08085513,0.024593592,0.12544823,-5.5339362E-5,1.38348405E-5,0.0
402.39465,382.3346,13988669,1.075,0.10638297,239.24748,-112.5957,-0.08085513,0.024593592,0.12544823,-5.5339362E-5,1.38348405E-5,0.0
404.14874,381.0443,13988685,1.1125001,0.10638297,63.672153,-14.781744,-0.08085513,0.024593592,0.12544823,0.0,1.1254497E-5,0.0
404.34622,381.0443,13988702,1.2,0.10638297,-94.16662,80.93906,-0.08085513,0.024593592,0.12544823,0.0,1.1254497E-5,0.0
402.69354,382.41052,13988719,1.3125,0.10638297,-191.33223,141.57199,-0.08085513,0.024593592,0.12544823,0.0,1.1254497E-5,0.0
396.03275,388.50073,13988735,1.325,0.12765957,-332.48135,285.19864,-0.08085513,0.024593592,0.12544823,0.0,1.1254497E-5,0.0
383.23987,397.6803,13988752,1.1375,0.12765957,-664.3972,535.81836,-0.08085513,0.024593592,0.12544823,9.0035894E-5,-1.1254487E-4,0.0
358.9555,413.29724,13988769,1.025,0.09574468,-1292.99,899.38605,-0.08085513,0.024593592,0.12544823,9.0035894E-5,-1.1254487E-4,0.0
331.01358,431.8048,13988786,1.0375,0.11702127,-1918.739,1254.2155,-0.08085513,0.024593592,0.12544823,9.0035894E-5,-1.1254487E-4,0.0
309.27652,446.43848,13988802,1.075,0.12765957,-2010.4553,1297.0361,-0.08085513,0.024593592,0.12544823,9.0035894E-5,-1.1254487E-4,0.0
290.00635,463.01038,13988819,1.0625,0.10638297,-1672.9568,1199.0798,0.31131583,-0.08432531,0.14835835,0.0,-1.709958E-4,0.0
274.6684,478.3684,13988836,1.0500001,0.11702127,-1130.2467,1034.6422,0.31131583,-0.08432531,0.14835835,0.0,-1.709958E-4,0.0
265.12695,492.21155,13988852,1.0375,0.12765957,-571.5714,844.5778,0.31131583,-0.08432531,0.14835835,0.0,-1.709958E-4,0.0
258.13995,506.33704,13988869,1.0500001,0.12765957,-300.861,829.7972,0.31131583,-0.08432531,0.14835835,0.0,-1.709958E-4,0.0
256.3944,515.5066,13988886,1.025,0.11702127,16.61436,647.1348,0.31131583,-0.08432531,0.14835835,-1.5005995E-5,7.5029975E-6,0.0
257.55457,522.2999,13988903,0.975,0.09574468,249.99248,417.26538,0.31131583,-0.08432531,0.14835835,-1.5005995E-5,7.5029975E-6,0.0
260.86478,527.1781,13988919,0.925,0.09574468,395.47195,202.02617,0.31131583,-0.08432531,0.14835835,-1.5005995E-5,7.5029975E-6,0.0
270.61734,533.171,13988936,0.9125,0.08510638,592.9694,104.43276,0.31131583,-0.08432531,0.14835835,-1.5005995E-5,7.5029975E-6,0.0
288.9241,535.6438,13988953,0.96250004,0.08510638,969.8728,138.41495,0.31131583,-0.08432531,0.14835835,-1.099259E-4,7.328394E-5,0.0
317.06003,526.00073,13988969,0.975,0.12765957,1610.539,-173.49825,0.31131583,-0.08432531,0.14835835,-1.099259E-4,7.328394E-5,0.0
341.46472,511.2494,13988986,1.0,0.10638297,2033.1943,-848.087,0.31131583,-0.08432531,0.14835835,-1.099259E-4,7.328394E-5,0.0
360.46362,495.51196,13989003,1.0,0.11702127,1838.0509,-1307.9832,0.31131583,-0.08432531,0.14835835,-1.099259E-4,7.328394E-5,0.0
376.27628,476.8374,13989019,1.025,0.10638297,1286.6914,-1515.0386,0.31131583,-0.08432531,0.14835835,-5.9553164E-5,-1.9851053E-5,0.0
385.4445,459.71484,13989036,1.0500001,0.09574468,626.12036,-1372.9774,0.31131583,-0.08432531,0.14835835,-5.9553164E-5,-1.9851053E-5,0.0
396.61948,435.57117,13989053,1.0500001,0.09574468,303.17606,-1348.3704,0.31131583,-0.08432531,0.14835835,-5.9553164E-5,-1.9851053E-5,0.0
402.01004,417.4922,13989070,1.025,0.10638297,246.8362,-1358.6929,0.31131583,-0.08432531,0.14835835,-5.9553164E-5,-1.9851053E-5,0.0
403.60715,406.735,13989086,1.0375,0.10638297,67.0773,-1036.1049,0.31131583,-0.08432531,0.14835835,0.0,-3.2030857E-5,0.0
403.8464,401.2948,13989103,1.0625,0.10638297,-101.225006,-473.57138,0.31131583,-0.08432531,0.14835835,0.0,-3.2030857E-5,0.0
403.8464,399.09998,13989120,1.1375,0.10638297,-236.07025,97.099266,0.31131583,-0.08432531,0.14835835,0.0,-3.2030857E-5,0.0
403.8464,398.81433,13989136,1.225,0.10638297,-194.40288,353.1723,0.31131583,-0.08432531,0.14835835,0.0,-3.2030857E-5,0.0
402.53818,401.85828,13989153,1.3375,0.12765957,-96.232956,355.84573,0.31131583,-0.08432531,0.14835835,-1.2733E-4,0.0,0.0
399.49078,412.52234,13989170,1.3000001,0.12765957,-137.71701,543.6406,0.31131583,-0.08432531,0.14835835,-1.2733E-4,0.0,0.0
396.85077,423.68115,13989187,1.15,0.09574468,-217.22818,844.9905,0.31131583,-0.08432531,0.14835835,-1.2733E-4,0.0,0.0
394.82553,437.1892,13989203,0.925,0.09574468,-216.38132,1028.2511,0.31131583,-0.08432531,0.14835835,-1.2733E-4,0.0,0.0
393.7693,461.08936,13989220,0.8875,0.09574468,-139.64412,1339.6986,0.31131583,-0.08432531,0.14835835,1.8981249E-5,0.0,0.0
394.3495,483.4065,13989237,0.8875,0.08510638,-2.1149719,1544.9397,0.31131583,-0.08432531,0.14835835,1.8981249E-5,0.0,0.0
396.66232,500.8341,13989253,0.8625,0.10638297,130.97447,1528.5352,0.31131583,-0.08432531,0.14835835,1.8981249E-5,0.0,0.0
401.8568,518.4381,13989270,0.825,0.08510638,279.39777,1333.5035,0.31131583,-0.08432531,0.14835835,1.8981249E-5,0.0,0.0
407.04395,532.86865,13989287,0.825,0.08510638,414.6321,870.84564,0.31131583,-0.08432531,0.14835835,5.5595255E-4,7.942179E-5,0.0
411.2406,538.9098,13989304,0.83750004,0.08510638,412.1929,481.52255,0.31131583,-0.08432531,0.14835835,5.5595255E-4,7.942179E-5,0.0
418.37247,543.8761,13989320,0.875,0.11702127,406.7322,137.88695,0.31131583,-0.08432531,0.14835835,5.5595255E-4,7.942179E-5,0.0
427.5446,544.7843,13989337,0.975,0.10638297,489.56345,-118.4792,0.31131583,-0.08432531,0.14835835,5.5595255E-4,7.942179E-5,0.0
437.8195,538.4236,13989354,1.1,0.10638297,637.8823,-400.69693,-0.2949474,0.13253975,-0.20131302,8.7176915E-5,1.7435385E-5,0.0
447.15076,527.33997,13989370,1.0875,0.10638297,692.08826,-708.7118,-0.2949474,0.13253975,-0.20131302,8.7176915E-5,1.7435385E-5,0.0
458.1104,511.99902,13989387,1.0500001,0.12765957,719.0394,-1099.1155,-0.2949474,0.13253975,-0.20131302,8.7176915E-5,1.7435385E-5,0.0
473.14008,481.68726,13989404,0.95,0.12765957,783.0015,-1668.7122,-0.2949474,0.13253975,-0.20131302,8.7176915E-5,1.7435385E-5,0.0
485.07556,449.6455,13989421,0.96250004,0.09574468,867.2554,-2228.582,-0.2949474,0.13253975,-0.20131302,-1.7913124E-4,-1.7913124E-4,0.0
500.74902,405.33484,13989437,0.925,0.10638297,952.27545,-2791.4524,-0.2949474,0.13253975,-0.20131302,-1.7913124E-4,-1.7913124E-4,0.0
511.18835,371.92932,13989454,0.8875,0.09574468,856.78577,-2851.8145,-0.2949474,0.13253975,-0.20131302,-1.7913124E-4,-1.7913124E-4,0.0
520.8576,336.44385,13989471,0.90000004,0.08510638,677.2531,-2617.7021,-0.2949474,0.13253975,-0.20131302,-1.7913124E-4,-1.7913124E-4,0.0
529.9918,299.29224,13989487,0.8875,0.12765957,492.02686,-2244.5186,-0.2949474,0.13253975,-0.20131302,-1.6601803E-4,0.0,0.0
538.5785,269.01733,13989504,0.90000004,0.09574468,402.27582,-1921.2456,-0.2949474,0.13253975,-0.20131302,-1.6601803E-4,0.0,0.0
549.0431,236.23975,13989521,0.9125,0.10638297,499.2293,-1860.7545,-0.2949474,0.13253975,-0.20131302,-1.6601803E-4,0.0,0.0
555.7661,213.2539,13989538,0.8875,0.08510638,497.89636,-1529.3613,-0.2949474,0.13253975,-0.20131302,-1.6601803E-4,0.0,0.0
560.01013,191.40979,13989554,0.8875,0.10638297,365.2158,-1250.231,-0.2949474,0.13253975,-0.20131302,-9.034802E-5,0.0,0.0
561.5845,179.40088,13989571,0.8875,0.08510638,109.769424,-777.73285,-0.2949474,0.13253975,-0.20131302,-9.034802E-5,0.0,0.0
561.795,175.04846,13989588,0.9375,0.08510638,-106.7135,-234.09276,-0.2949474,0.13253975,-0.20131302,-9.034802E-5,0.0,0.0
560.34,174.02295,13989604,1.0500001,0.09574468,-200.45886,224.65388,-0.2949474,0.13253975,-0.20131302,-9.034802E-5,0.0,0.0
556.74554,175.82275,13989621,1.225,0.12765957,-272.8464,483.59354,-0.2949474,0.13253975,-0.20131302,0.0,-5.0331633E-5,0.0
551.5261,180.53271,13989638,1.2125,0.12765957,-364.48663,553.471,-0.2949474,0.13253975,-0.20131302,0.0,-5.0331633E-5,0.0
546.25714,188.12244,13989655,1.0500001,0.11702127,-430.82794,595.8901,-0.2949474,0.13253975,-0.20131302,0.0,-5.0331633E-5,0.0
534.4091,208.48755,13989671,0.96250004,0.09574468,-574.77344,921.3015,-0.2949474,0.13253975,-0.20131302,0.0,-5.0331633E-5,0.0
523.69257,233.55164,13989688,0.925,0.12765957,-749.95685,1536.4706,-0.2949474,0.13253975,-0.20131302,9.1892536E-5,-3.6757014E-5,0.0
514.54346,266.77637,13989705,0.9125,0.08510638,-802.38525,2161.9797,-0.2949474,0.13253975,-0.20131302,9.1892536E-5,-3.6757014E-5,0.0
505.8009,305.15356,13989721,0.8875,0.09574468,-701.6262,2678.213,-0.2949474,0.13253975,-0.20131302,9.1892536E-5,-3.6757014E-5,0.0
499.8073,349.48035,13989738,0.90000004,0.12765957,-443.59232,2938.87,-0.2949474,0.13253975,-0.20131302,9.1892536E-5,-3.6757014E-5,0.0
496.29095,392.432,13989755,0.875,0.10638297,-178.74306,2898.6914,-0.2949474,0.13253975,-0.20131302,3.849629E-5,1.2832097E-5,0.0
494.17706,434.21484,13989771,0.875,0.08510638,-59.61377,2875.125,-0.2949474,0.13253975,-0.20131302,3.849629E-5,1.2832097E-5,0.0
494.31696,466.35925,13989788,0.8625,0.10638297,88.61409,2377.2842,-0.2949474,0.13253975,-0.20131302,3.849629E-5,1.2832097E-5,0.0
496.1922,490.4098,13989805,0.8625,0.08510638,188.12097,1696.0627,-0.2949474,0.13253975,-0.20131302,3.849629E-5,1.2832097E-5,0.0
498.2931,507.0315,13989822,0.83750004,0.10638297,249.72318,921.7899,-0.2949474,0.13253975,-0.20131302,-3.183252E-5,0.0,0.0
500.39648,519.1968,13989838,0.83750004,0.08510638,239.69868,382.73853,-0.2949474,0.13253975,-0.20131302,-3.183252E-5,0.0,0.0
502.48096,526.4625,13989855,0.8,0.08510638,189.23674,127.92934,-0.2949474,0.13253975,-0.20131302,-3.183252E-5,0.0,0.0
504.55914,529.8606,13989872,0.85,0.08510638,150.60667,-52.37526,-0.2949474,0.13253975,-0.20131302,-3.183252E-5,0.0,0.0
504.31366,529.4243,13989888,1.0500001,0.09574468,59.12174,-207.99081,0.23604214,-0.12596798,0.1589489,2.0341264E-4,2.9058947E-5,0.0
508.16742,526.2715,13989905,1.225,0.12765957,74.942924,-355.22134,0.23604214,-0.12596798,0.1589489,2.0341264E-4,2.9058947E-5,0.0
515.6354,513.4524,13989922,1.2125,0.12765957,291.1801,-638.8031,0.23604214,-0.12596798,0.1589489,2.0341264E-4,2.9058947E-5,0.0
521.893,490.35864,13989939,1.025,0.10638297,514.4668,-1328.0647,0.23604214,-0.12596798,0.1589489,2.0341264E-4,2.9058947E-5,0.0
526.6677,466.6195,13989955,0.96250004,0.14893617,516.4709,-1833.7769,0.23604214,-0.12596798,0.1589489,4.0265313E-5,0.0,0.0
533.5846,443.8247,13989972,0.925,0.09574468,407.4854,-1962.461,0.23604214,-0.12596798,0.1589489,4.0265313E-5,0.0,0.0
543.7766,416.86755,13989989,0.925,0.12765957,430.5916,-1760.2736,0.23604214,-0.12596798,0.1589489,4.0265313E-5,0.0,0.0
551.9538,398.69055,13990005,0.975,0.09574468,592.7196,-1484.3754,0.23604214,-0.12596798,0.1589489,4.0265313E-5,0.0,0.0
559.8041,387.0304,13990022,0.96250004,0.08510638,635.03644,-1038.0565,0.23604214,-0.12596798,0.1589489,-9.161011E-4,-1.0178901E-4,0.0
568.32544,379.2423,13990039,1.025,0.12765957,539.5224,-434.6232,0.23604214,-0.12596798,0.1589489,-9.161011E-4,-1.0178901E-4,0.0
573.0042,376.50708,13990056,1.075,0.12765957,371.6418,31.238306,0.23604214,-0.12596798,0.1589489,-9.161011E-4,-1.0178901E-4,0.0
574.9715,376.60168,13990072,1.1625,0.12765957,167.21808,311.05554,0.23604214,-0.12596798,0.1589489,-9.161011E-4,-1.0178901E-4,0.0
576.51483,380.75452,13990089,1.2625,0.12765957,20.95006,388.01755,0.23604214,-0.12596798,0.1589489,-0.0014471132,-7.2355666E-5,0.0
574.9072,390.74426,13990106,1.2625,0.12765957,-147.7008,653.43475,0.23604214,-0.12596798,0.1589489,-0.0014471132,-7.2355666E-5,0.0
570.5712,400.09534,13990122,1.075,0.10638297,-285.54187,812.4363,0.23604214,-0.12596798,0.1589489,-0.0014471132,-7.2355666E-5,0.0
561.26086,414.49158,13990139,0.875,0.08510638,-494.94388,934.95764,0.23604214,-0.12596798,0.1589489,-0.0014471132,-7.2355666E-5,0.0
540.5008,443.8452,13990156,0.85,0.12765957,-1053.7703,1454.5259,0.23604214,-0.12596798,0.1589489,0.0021798206,-1.5570146E-4,0.0
516.54614,476.7693,13990173,0.8875,0.08510638,-1635.77,2113.0024,0.23604214,-0.12596798,0.1589489,0.0021798206,-1.5570146E-4,0.0
496.40887,500.05908,13990189,0.8875,0.12765957,-1820.0813,2292.519,0.23604214,-0.12596798,0.1589489,0.0021798206,-1.5570146E-4,0.0
483.90405,512.9866,13990206,0.925,0.11702127,-1362.8948,1535.8876,0.23604214,-0.12596798,0.1589489,0.0021798206,-1.5570146E-4,0.0
476.56757,521.99,13990223,0.95,0.08510638,-677.0975,595.8708,0.23604214,-0.12596798,0.1589489,4.8124435E-4,0.0,0.0
473.39526,526.6317,13990239,1.0,0.08510638,-24.26356,-113.804054,0.23604214,-0.12596798,0.1589489,4.8124435E-4,0.0,0.0
472.8239,528.5698,13990256,1.0500001,0.11702127,252.84396,-252.22997,0.23604214,-0.12596798,0.1589489,4.8124435E-4,0.0,0.0
474.5072,528.53577,13990273,1.0,0.11702127,332.80408,-235.29323,0.23604214,-0.12596798,0.1589489,4.8124435E-4,0.0,0.0
487.4513,528.53577,13990290,0.925,0.09574468,608.5209,-207.3761,0.23604214,-0.12596798,0.1589489,-0.004523539,-2.741539E-4,0.0
513.58264,526.4795,13990306,0.925,0.10638297,1301.665,-199.46573,0.23604214,-0.12596798,0.1589489,-0.004523539,-2.741539E-4,0.0
547.1318,524.9818,13990323,0.90000004,0.10638297,2132.5588,-204.35269,0.23604214,-0.12596798,0.1589489,-0.004523539,-2.741539E-4,0.0
567.62286,522.8146,13990340,0.95,0.10638297,2336.0671,-178.03496,0.23604214,-0.12596798,0.1589489,-0.004523539,-2.741539E-4,0.0
595.4987,519.65576,13990356,0.95,0.12765957,1981.3048,-182.37704,0.23604214,-0.12596798,0.1589489,-3.734553E-4,1.697524E-4,0.0
616.5966,514.66943,13990373,0.925,0.09574468,1461.1827,-249.19402,0.23604214,-0.12596798,0.1589489,-3.734553E-4,1.697524E-4,0.0
640.9344,510.51355,13990390,0.95,0.14893617,1242.8464,-328.1367,0.23604214,-0.12596798,0.1589489,-3.734553E-4,1.697524E-4,0.0
658.86426,506.15784,13990406,0.96250004,0.10638297,1182.2513,-337.38916,0.23604214,-0.12596798,0.1589489,-3.734553E-4,1.697524E-4,0.0
673.431,499.94104,13990423,0.9375,0.10638297,893.365,-332.51797,-0.059166193,-0.13277435,0.27915955,2.903567E-4,7.258917E-5,0.0
687.05426,492.48987,13990440,0.925,0.12765957,659.82733,-398.69855,-0.059166193,-0.13277435,0.27915955,2.903567E-4,7.258917E-5,0.0
698.6943,483.2776,13990457,0.9125,0.12765957,542.3993,-530.0107,-0.059166193,-0.13277435,0.27915955,2.903567E-4,7.258917E-5,0.0
705.96564,473.12634,13990473,0.9125,0.11702127,401.68982,-680.9062,-0.059166193,-0.13277435,0.27915955,2.903567E-4,7.258917E-5,0.0
710.40967,461.37646,13990490,0.925,0.12765957,268.23788,-740.8845,-0.059166193,-0.13277435,0.27915955,2.195923E-4,7.3197436E-5,0.0
711.24634,453.0929,13990507,0.925,0.10638297,0.39253944,-704.51807,-0.059166193,-0.13277435,0.27915955,2.195923E-4,7.3197436E-5,0.0
710.0716,449.14783,13990523,0.9875,0.09574468,-216.95018,-479.39874,-0.059166193,-0.13277435,0.27915955,2.195923E-4,7.3197436E-5,0.0
704.54645,446.79346,13990540,1.0625,0.11702127,-386.86063,-170.6654,-0.059166193,-0.13277435,0.27915955,2.195923E-4,7.3197436E-5,0.0
694.89496,448.44336,13990557,1.1,0.12765957,-621.5588,168.19409,-0.059166193,-0.13277435,0.27915955,-3.0840808E-4,-3.0840808E-4,0.0
684.1862,452.14905,13990574,1.0500001,0.11702127,-830.9243,385.4059,-0.059166193,-0.13277435,0.27915955,-3.0840808E-4,-3.0840808E-4,0.0
673.1194,458.37317,13990590,0.975,0.10638297,-886.5832,472.33813,-0.059166193,-0.13277435,0.27915955,-3.0840808E-4,-3.0840808E-4,0.0
657.39795,473.1886,13990607,0.9375,0.11702127,-940.3501,754.19904,-0.059166193,-0.13277435,0.27915955,-3.0840808E-4,-3.0840808E-4,0.0
643.57874,491.20325,13990624,0.8875,0.12765957,-961.1098,1144.6222,-0.059166193,-0.13277435,0.27915955,-3.3195938E-5,-6.6391876E-5,0.0
627.6498,520.4131,13990640,0.875,0.09574468,-1033.591,1710.151,-0.059166193,-0.13277435,0.27915955,-3.3195938E-5,-6.6391876E-5,0.0
621.45013,542.78735,13990657,0.83750004,0.08510638,-799.2926,1943.7922,-0.059166193,-0.13277435,0.27915955,-3.3195938E-5,-6.6391876E-5,0.0
619.7655,558.0077,13990674,0.8,0.10638297,-240.14224,1514.1589,-0.059166193,-0.13277435,0.27915955,-3.3195938E-5,-6.6391876E-5,0.0
621.37354,568.95337,13990691,0.8,0.09574468,227.1144,903.5816,-0.059166193,-0.13277435,0.27915955,2.8372693E-4,3.4047232E-4,0.0
624.5271,573.26,13990707,0.825,0.08510638,482.12668,239.70819,-0.059166193,-0.13277435,0.27915955,2.8372693E-4,3.4047232E-4,0.0
636.4583,578.984,13990724,0.825,0.11702127,711.203,-69.94193,-0.059166193,-0.13277435,0.27915955,2.8372693E-4,3.4047232E-4,0.0
656.8414,580.069,13990741,0.875,0.10638297,1111.0793,-126.94764,-0.059166193,-0.13277435,0.27915955,2.8372693E-4,3.4047232E-4,0.0
672.81726,572.1511,13990757,0.8875,0.10638297,1410.8624,-366.07986,-0.059166193,-0.13277435,0.27915955,8.641068E-5,2.8803559E-5,0.0
692.0661,560.64624,13990774,0.925,0.12765957,1494.7314,-749.3821,-0.059166193,-0.13277435,0.27915955,8.641068E-5,2.8803559E-5,0.0
702.4227,548.6631,13990791,0.9125,0.08510638,1113.4033,-1071.7333,-0.059166193,-0.13277435,0.27915955,8.641068E-5,2.8803559E-5,0.0
712.33594,526.51904,13990808,0.8875,0.12765957,581.59674,-1314.4327,-0.059166193,-0.13277435,0.27915955,8.641068E-5,2.8803559E-5,0.0
719.45825,502.89502,13990824,0.875,0.08510638,291.1268,-1552.3497,-0.059166193,-0.13277435,0.27915955,-0.0011194753,1.8657923E-4,0.0
724.42523,478.31824,13990841,0.875,0.09574468,122.82897,-1693.5742,-0.059166193,-0.13277435,0.27915955,-0.0011194753,1.8657923E-4,0.0
728.0339,451.4818,13990858,0.8875,0.09574468,90.81586,-1856.086,-0.059166193,-0.13277435,0.27915955,-0.0011194753,1.8657923E-4,0.0
728.2408,433.99792,13990874,0.90000004,0.08510638,12.484701,-1517.9724,-0.059166193,-0.13277435,0.27915955,-0.0011194753,1.8657923E-4,0.0
727.72864,421.8058,13990891,0.925,0.10638297,-142.06052,-932.7174,-0.059166193,-0.13277435,0.27915955,-4.3742775E-4,-7.7764934E-4,0.0
727.18427,416.38232,13990908,1.0,0.10638297,-167.13153,-367.09985,-0.059166193,-0.13277435,0.27915955,-4.3742775E-4,-7.7764934E-4,0.0
726.1459,415.69592,13990925,1.1,0.10638297,-158.92458,153.32164,-0.059166193,-0.13277435,0.27915955,-4.3742775E-4,-7.7764934E-4,0.0
724.4511,417.98987,13990941,1.2375001,0.12765957,-125.89752,390.9258,-0.059166193,-0.13277435,0.27915955,-4.3742775E-4,-7.7764934E-4,0.0
720.6558,432.69556,13990958,1.1125001,0.10638297,-181.53036,816.40985,0.42466703,-0.5142195,0.19132805,-3.6862455E-4,8.191657E-5,0.0
720.03326,447.29724,13990975,0.825,0.10638297,-179.30194,1111.3582,0.42466703,-0.5142195,0.19132805,-3.6862455E-4,8.191657E-5,0.0
719.2437,480.61157,13990991,0.8,0.08510638,-99.00606,1855.0519,0.42466703,-0.5142195,0.19132805,-3.6862455E-4,8.191657E-5,0.0
719.0157,509.45557,13991008,0.7875,0.10638297,-5.4412,2353.9045,0.42466703,-0.5142195,0.19132805,-3.6862455E-4,8.191657E-5,0.0
720.74536,528.8423,13991025,0.7875,0.08510638,101.01529,2096.92,0.42466703,-0.5142195,0.19132805,-5.634717E-5,2.8173585E-4,0.0
724.1953,542.183,13991041,0.8125,0.08510638,190.3435,1281.5997,0.42466703,-0.5142195,0.19132805,-5.634717E-5,2.8173585E-4,0.0
727.98303,551.1787,13991058,0.8125,0.10638297,295.39795,368.02448,0.42466703,-0.5142195,0.19132805,-5.634717E-5,2.8173585E-4,0.0
734.773,558.3312,13991075,0.8,0.10638297,397.94086,-0.39141637,0.42466703,-0.5142195,0.19132805,-5.634717E-5,2.8173585E-4,0.0
745.9718,563.968,13991092,0.83750004,0.12765957,588.36975,18.065144,0.42466703,-0.5142195,0.19132805,9.1656717E-4,3.7741E-4,0.0
763.6354,566.7866,13991108,0.8875,0.10638297,975.4294,61.40274,0.42466703,-0.5142195,0.19132805,9.1656717E-4,3.7741E-4,0.0
779.1673,563.83655,13991125,0.90000004,0.10638297,1215.6125,-118.2505,0.42466703,-0.5142195,0.19132805,9.1656717E-4,3.7741E-4,0.0
795.6875,553.9563,13991142,0.95,0.12765957,1248.2728,-494.48187,0.42466703,-0.5142195,0.19132805,9.1656717E-4,3.7741E-4,0.0
810.78577,539.28174,13991158,0.95,0.10638297,1128.3184,-977.0252,0.42466703,-0.5142195,0.19132805,-9.807338E-4,-1.9614676E-4,0.0
821.74963,519.834,13991175,0.8875,0.10638297,821.4444,-1327.9469,0.42466703,-0.5142195,0.19132805,-9.807338E-4,-1.9614676E-4,0.0
834.8913,492.55127,13991192,0.8625,0.08510638,651.79767,-1700.8638,0.42466703,-0.5142195,0.19132805,-9.807338E-4,-1.9614676E-4,0.0
850.85254,446.30847,13991209,0.83750004,0.08510638,759.99316,-2550.4749,0.42466703,-0.5142195,0.19132805,-9.807338E-4,-1.9614676E-4,0.0
862.8289,402.20618,13991225,0.825,0.14893617,813.6788,-3200.1387,0.42466703,-0.5142195,0.19132805,-5.4208576E-5,-4.336686E-4,0.0
871.4529,362.7224,13991242,0.83750004,0.11702127,720.31934,-3211.4172,0.42466703,-0.5142195,0.19132805,-5.4208576E-5,-4.336686E-4,0.0
876.55066,326.04395,13991259,0.8625,0.08510638,355.09738,-2667.2908,0.42466703,-0.5142195,0.19132805,-5.4208576E-5,-4.336686E-4,0.0
882.21094,284.72852,13991275,0.8625,0.09574468,134.70282,-2302.1711,0.42466703,-0.5142195,0.19132805,-5.4208576E-5,-4.336686E-4,0.0
888.83185,241.31323,13991292,0.8625,0.10638297,164.38925,-2301.4639,0.42466703,-0.5142195,0.19132805,3.412444E-4,1.8958021E-4,0.0
894.0912,210.00012,13991309,0.8625,0.08510638,244.43367,-2307.947,0.42466703,-0.5142195,0.19132805,3.412444E-4,1.8958021E-4,0.0
899.3317,181.30273,13991326,0.85,0.08510638,323.33255,-1946.9539,0.42466703,-0.5142195,0.19132805,3.412444E-4,1.8958021E-4,0.0
901.83167,167.77539,13991342,0.875,0.08510638,249.31459,-1131.5206,0.42466703,-0.5142195,0.19132805,3.412444E-4,1.8958021E-4,0.0
903.18384,162.32056,13991359,0.9125,0.10638297,93.157585,-210.4309,0.42466703,-0.5142195,0.19132805,-9.1892536E-5,-1.8378507E-5,0.0
903.18384,160.69543,13991376,1.025,0.10638297,-46.451687,411.79013,0.42466703,-0.5142195,0.19132805,-9.1892536E-5,-1.8378507E-5,0.0
902.9942,162.25806,13991392,1.125,0.12765957,-112.46894,614.81616,0.42466703,-0.5142195,0.19132805,-9.1892536E-5,-1.8378507E-5,0.0
900.99835,171.13086,13991409,1.1375,0.12765957,-134.16273,641.1942,0.42466703,-0.5142195,0.19132805,-9.1892536E-5,-1.8378507E-5,0.0
896.94086,182.89392,13991426,0.925,0.10638297,-225.15303,873.29065,0.42466703,-0.5142195,0.19132805,-2.9895382E-4,-2.9895382E-4,0.0
889.9212,210.90869,13991443,0.7875,0.08510638,-381.3111,1426.344,0.42466703,-0.5142195,0.19132805,-2.9895382E-4,-2.9895382E-4,0.0
879.9945,248.6449,13991459,0.8,0.10638297,-618.17676,2300.3254,0.42466703,-0.5142195,0.19132805,-2.9895382E-4,-2.9895382E-4,0.0
870.28625,292.37366,13991476,0.8,0.12765957,-750.36115,2974.471,0.42466703,-0.5142195,0.19132805,-2.9895382E-4,-2.9895382E-4,0.0
861.63196,340.63806,13991493,0.8,0.09574468,-740.4901,3473.6282,-0.020266354,-0.21137547,0.11306286,-3.7753693E-4,-3.432154E-5,0.0
857.2536,384.46423,13991509,0.8,0.09574468,-518.2341,3420.9805,-0.020266354,-0.21137547,0.11306286,-3.7753693E-4,-3.432154E-5,0.0
858.2291,428.6527,13991526,0.77500004,0.09574468,-78.09634,2983.362,-0.020266354,-0.21137547,0.11306286,-3.7753693E-4,-3.432154E-5,0.0
861.89386,468.2622,13991543,0.7875,0.09574468,289.26685,2574.6216,-0.020266354,-0.21137547,0.11306286,-3.7753693E-4,-3.432154E-5,0.0
867.2378,497.18164,13991560,0.75,0.12765957,528.2572,1955.9843,-0.020266354,-0.21137547,0.11306286,-2.880795E-4,9.6026495E-5,0.0
875.23944,522.20776,13991576,0.7375,0.08510638,647.3541,1449.6455,-0.020266354,-0.21137547,0.11306286,-2.880795E-4,9.6026495E-5,0.0
880.88336,534.2084,13991593,0.7375,0.07446808,604.1235,801.7656,-0.020266354,-0.21137547,0.11306286,-2.880795E-4,9.6026495E-5,0.0
893.81506,549.6411,13991610,0.7375,0.10638297,655.8701,360.23273,-0.020266354,-0.21137547,0.11306286,-2.880795E-4,9.6026495E-5,0.0
911.2649,561.7755,13991626,0.7,0.12765957,914.50116,282.3849,-0.020266354,-0.21137547,0.11306286,-2.7796523E-5,0.0,0.0
927.67584,565.8529,13991630,0.3125,0.10638297,1172.1349,333.1986,-0.020266354,-0.21137547,0.11306286,-2.7796523E-5,0.0,0.0
927.67584,565.8529,13991638,0.3125,0.10638297,1172.1349,333.1986,-0.020266354,-0.21137547,0.11306286,-2.7796523E-5,0.0,0.0
755.7318,394.37183,13991807,1.0875,0.12765957,0.0,0.0,-0.020266354,-0.21137547,0.11306286,5.351256E-4,4.4593802E-5,0.0
755.7318,394.37183,13991827,1.1625,0.12765957,0.22845432,0.1178138,-0.020266354,-0.21137547,0.11306286,-2.5664174E-4,0.0,0.0
764.85126,393.93372,13991843,0.95,0.12765957,639.3777,-30.718086,-0.020266354,-0.21137547,0.11306286,-2.5664174E-4,0.0,0.0
802.0615,394.4829,13991860,0.8625,0.12765957,2466.3904,-8.311317,-0.020266354,-0.21137547,0.11306286,-2.5664174E-4,0.0,0.0
844.5932,395.83655,13991877,0.875,0.08510638,3352.9436,81.271904,-0.020266354,-0.21137547,0.11306286,-2.5664174E-4,0.0,0.0
888.3177,396.1488,13991894,0.85,0.08510638,3711.7646,84.9735,-0.020266354,-0.21137547,0.11306286,-1.660858E-4,0.0,0.0
936.1514,396.1488,13991910,0.77500004,0.10638297,3593.6287,49.416073,-0.020266354,-0.21137547,0.11306286,-1.660858E-4,0.0,0.0
982.96375,396.0658,13991927,0.6625,0.12765957,3195.737,-7.904458,-0.020266354,-0.21137547,0.11306286,-1.660858E-4,0.0,0.0
985.1571,396.1488,13991928,0.3125,0.10638297,3160.147,-6.6914344,-0.020266354,-0.21137547,0.11306286,-1.660858E-4,0.0,0.0
985.1571,396.1488,13991936,0.3125,0.10638297,3160.147,-6.6914344,-0.020266354,-0.21137547,0.11306286,-1.660858E-4,0.0,0.0
1020.14575,424.58093,13992064,1.0500001,0.11702127,0.0,0.0,0.3917869,-0.2811005,-0.17354965,0.0,-2.7796523E-5,0.0
1020.14575,424.58093,13992094,1.1,0.12765957,-0.053279135,-0.02205987,0.3917869,-0.2811005,-0.17354965,-5.687433E-4,4.3749482E-5,0.0
1020.14575,424.58093,13992111,1.025,0.10638297,-0.07300441,-0.032252982,0.3917869,-0.2811005,-0.17354965,-5.687433E-4,4.3749482E-5,0.0
1020.14575,424.58093,13992128,0.925,0.09574468,-0.06345735,-0.027512023,0.3917869,-0.2811005,-0.17354965,-5.687433E-4,4.3749482E-5,0.0
1004.7954,444.15735,13992144,0.8125,0.10638297,-528.5559,669.2283,0.3917869,-0.2811005,-0.17354965,-5.687433E-4,4.3749482E-5,0.0
991.1476,467.24255,13992161,0.77500004,0.08510638,-915.7465,1321.9607,0.3917869,-0.2811005,-0.17354965,1.8993093E-4,1.1870682E-4,0.0
982.8341,485.7904,13992178,0.77500004,0.09574468,-1035.6497,1743.7732,0.3917869,-0.2811005,-0.17354965,1.8993093E-4,1.1870682E-4,0.0
978.3441,504.4497,13992194,0.75,0.12765957,-736.1322,1696.7367,0.3917869,-0.2811005,-0.17354965,1.8993093E-4,1.1870682E-4,0.0
979.28186,524.5006,13992211,0.7375,0.09574468,-126.9078,1400.296,0.3917869,-0.2811005,-0.17354965,1.8993093E-4,1.1870682E-4,0.0
982.18665,540.8136,13992228,0.71250004,0.08510638,366.40665,1053.6554,0.3917869,-0.2811005,-0.17354965,8.4752974E-4,2.5425895E-4,0.0
986.8225,555.28784,13992245,0.725,0.10638297,521.44885,895.5448,0.3917869,-0.2811005,-0.17354965,8.4752974E-4,2.5425895E-4,0.0
991.77637,564.35693,13992261,0.7625,0.08510638,499.63287,634.821,0.3917869,-0.2811005,-0.17354965,8.4752974E-4,2.5425895E-4,0.0
1000.10986,573.0951,13992278,0.8,0.09574468,511.0423,359.9111,0.3917869,-0.2811005,-0.17354965,8.4752974E-4,2.5425895E-4,0.0
1014.4912,577.9414,13992295,0.85,0.11702127,734.268,212.36179,0.3917869,-0.2811005,-0.17354965,0.0,1.814733E-5,0.0
1034.0228,575.8462,13992311,0.8875,0.12765957,1134.3336,-61.401955,0.3917869,-0.2811005,-0.17354965,0.0,1.814733E-5,0.0
1048.7418,568.5311,13992328,0.925,0.09574468,1336.0923,-468.22638,0.3917869,-0.2811005,-0.17354965,0.0,1.814733E-5,0.0
1057.6074,558.7914,13992345,0.95,0.10638297,1055.6583,-793.55414,0.3917869,-0.2811005,-0.17354965,0.0,1.814733E-5,0.0
1063.4934,542.51843,13992361,0.9375,0.10638297,502.78592,-1115.6819,0.3917869,-0.2811005,-0.17354965,7.924817E-4,0.0010086132,0.0
1064.6312,522.147,13992378,0.8625,0.10638297,-24.739637,-1354.7183,0.3917869,-0.2811005,-0.17354965,7.924817E-4,0.0010086132,0.0
1064.0839,499.0885,13992395,0.875,0.08510638,-271.06207,-1585.49,0.3917869,-0.2811005,-0.17354965,7.924817E-4,0.0010086132,0.0
1058.1122,469.35657,13992412,0.9125,0.11702127,-431.79245,-1888.9271,0.3917869,-0.2811005,-0.17354965,7.924817E-4,0.0010086132,0.0
1050.6505,450.7621,13992428,0.925,0.08510638,-602.5521,-1742.3898,0.3917869,-0.2811005,-0.17354965,0.0029696168,-0.00210747,0.0
1044.3246,442.46094,13992445,0.975,0.09574468,-636.3603,-1072.6395,0.3917869,-0.2811005,-0.17354965,0.0029696168,-0.00210747,0.0
1033.8336,432.92676,13992462,1.0,0.11702127,-684.1017,-439.943,0.3917869,-0.2811005,-0.17354965,0.0029696168,-0.00210747,0.0
1025.0579,427.32947,13992478,1.025,0.12765957,-660.5703,3.242584,0.3917869,-0.2811005,-0.17354965,0.0029696168,-0.00210747,0.0
1019.82764,425.46936,13992495,1.0625,0.12765957,-533.3974,38.378273,0.3917869,-0.2811005,-0.17354965,5.412412E-4,8.505219E-4,0.0
1017.3248,425.46936,13992512,1.1125001,0.12765957,-273.44318,102.13163,0.3917869,-0.2811005,-0.17354965,5.412412E-4,8.505219E-4,0.0
1016.1471,427.61597,13992529,1.15,0.12765957,30.278135,277.97623,0.3917869,-0.2811005,-0.17354965,5.412412E-4,8.505219E-4,0.0
1017.0303,430.5935,13992545,1.1875,0.12765957,181.5088,352.0718,0.3917869,-0.2811005,-0.17354965,5.412412E-4,8.505219E-4,0.0
1020.798,433.21887,13992562,1.125,0.12765957,265.3036,303.334,-0.17457044,0.07911968,0.36516094,-5.204383E-4,-1.3010958E-4,0.0
1035.1355,437.77368,13992579,0.95,0.10638297,570.49274,289.44702,-0.17457044,0.07911968,0.36516094,-5.204383E-4,-1.3010958E-4,0.0
1056.9819,439.68542,13992595,0.9125,0.10638297,1250.4008,245.4227,-0.17457044,0.07911968,0.36516094,-5.204383E-4,-1.3010958E-4,0.0
1085.3398,436.81665,13992612,0.9125,0.12765957,1876.3888,21.396542,-0.17457044,0.07911968,0.36516094,-5.204383E-4,-1.3010958E-4,0.0
1108.7772,429.03955,13992629,0.90000004,0.10638297,2092.6716,-330.8713,-0.17457044,0.07911968,0.36516094,1.5005995E-5,0.0,0.0
1143.482,413.30737,13992646,0.8875,0.12765957,2146.7275,-851.3269,-0.17457044,0.07911968,0.36516094,1.5005995E-5,0.0,0.0
1158.3472,404.17944,13992662,0.90000004,0.10638297,1699.1241,-1063.6183,-0.17457044,0.07911968,0.36516094,1.5005995E-5,0.0,0.0
1170.9888,394.28088,13992679,0.875,0.12765957,1070.5719,-954.95215,-0.17457044,0.07911968,0.36516094,1.5005995E-5,0.0,0.0
1178.496,385.66125,13992696,0.8625,0.11702127,343.6262,-619.8123,-0.17457044,0.07911968,0.36516094,-1.0324103E-4,-1.0324103E-4,0.0
1181.4517,378.5017,13992712,0.8875,0.11702127,-144.87405,-377.21478,-0.17457044,0.07911968,0.36516094,-1.0324103E-4,-1.0324103E-4,0.0
1182.5929,371.33643,13992729,0.9125,0.12765957,-265.484,-350.46692,-0.17457044,0.07911968,0.36516094,-1.0324103E-4,-1.0324103E-4,0.0
1181.7316,367.96277,13992746,0.95,0.12765957,-284.47897,-257.82993,-0.17457044,0.07911968,0.36516094,-1.0324103E-4,-1.0324103E-4,0.0
1178.5598,366.82825,13992763,1.0125,0.10638297,-325.89722,-79.57227,-0.17457044,0.07911968,0.36516094,-9.586561E-4,3.6871387E-4,0.0
1172.9677,367.60657,13992779,1.075,0.10638297,-391.88367,102.017746,-0.17457044,0.07911968,0.36516094,-9.586561E-4,3.6871387E-4,0.0
1167.1912,371.20447,13992796,1.075,0.10638297,-483.56436,290.05954,-0.17457044,0.07911968,0.36516094,-9.586561E-4,3.6871387E-4,0.0
1162.0046,378.54736,13992813,1.0625,0.10638297,-463.97928,461.77173,-0.17457044,0.07911968,0.36516094,-9.586561E-4,3.6871387E-4,0.0
1160.0382,385.92786,13992829,1.0,0.10638297,-311.19614,590.4902,-0.17457044,0.07911968,0.36516094,-9.870188E-4,-5.551981E-4,0.0
1161.3065,391.36865,13992846,0.8875,0.10638297,-33.684124,576.4741,-0.17457044,0.07911968,0.36516094,-9.870188E-4,-5.551981E-4,0.0
1168.218,404.35962,13992863,0.77500004,0.09574468,308.5726,613.84674,-0.17457044,0.07911968,0.36516094,-9.870188E-4,-5.551981E-4,0.0
1181.0894,424.79675,13992880,0.8,0.09574468,726.1884,945.1884,-0.17457044,0.07911968,0.36516094,-9.870188E-4,-5.551981E-4,0.0
1204.4575,454.00867,13992896,0.8,0.10638297,1327.5759,1612.0413,-0.17457044,0.07911968,0.36516094,-9.0369803E-4,2.5102723E-4,0.0
1224.2378,481.2356,13992913,0.77500004,0.08510638,1725.7933,2190.4233,-0.17457044,0.07911968,0.36516094,-9.0369803E-4,2.5102723E-4,0.0
1241.5271,506.96216,13992930,0.7625,0.12765957,1603.4287,2113.8691,-0.17457044,0.07911968,0.36516094,-9.0369803E-4,2.5102723E-4,0.0
1255.3615,538.71924,13992946,0.7625,0.08510638,1129.7014,1908.454,-0.17457044,0.07911968,0.36516094,-9.0369803E-4,2.5102723E-4,0.0
1253.993,558.7439,13992963,0.7375,0.12765957,311.31088,1503.4673,-0.17457044,0.07911968,0.36516094,7.2477316E-4,9.0596644E-5,0.0
1236.6381,585.53845,13992980,0.75,0.08510638,-732.66614,1325.5867,-0.17457044,0.07911968,0.36516094,7.2477316E-4,9.0596644E-5,0.0
1180.5424,633.5211,13992996,0.7875,0.12765957,-2512.1687,1940.6663,-0.17457044,0.07911968,0.36516094,7.2477316E-4,9.0596644E-5,0.0
1100.5471,685.5171,13993013,0.77500004,0.11702127,-4929.323,2967.9111,-0.17457044,0.07911968,0.36516094,7.2477316E-4,9.0596644E-5,0.0
1033.1415,721.34094,13993029,0.3,0.12765957,-4929.323,2967.9111,-0.17457044,0.07911968,0.36516094,0.0017976082,-8.170946E-4,0.0
