x,y,timestamp,pressure,fingerarea,velocityx,velocityy,accelx,accely,accelz,gyrox,gyroy,gyroz
274.38855,204.23206,14070902,1.1375,0.12765957,0.0,0.0,0.06086856,-0.17877758,-0.15698814,1.5005995E-5,0.0,0.0
274.38855,204.23206,14070933,1.3125,0.12765957,2.2971803E-4,1.1017099E-4,0.06086856,-0.17877758,-0.15698814,0.0,-1.5005995E-5,0.0
274.38855,204.23206,14070950,1.2625,0.12765957,0.006498549,0.0033538,0.06086856,-0.17877758,-0.15698814,0.0,-1.5005995E-5,0.0
274.38855,204.23206,14070966,0.96250004,0.08510638,-0.008256181,-0.006912576,0.06086856,-0.17877758,-0.15698814,0.0,-1.5005995E-5,0.0
267.55728,233.94812,14070983,0.96250004,0.12765957,-249.12479,1098.2852,0.06086856,-0.17877758,-0.15698814,0.0,-1.5005995E-5,0.0
261.95154,264.49292,14071000,0.96250004,0.09574468,-396.97025,1891.1443,0.06086856,-0.17877758,-0.15698814,3.1562755E-4,0.0,0.0
255.88351,295.29333,14071017,0.9375,0.12765957,-498.1417,2494.2395,0.06086856,-0.17877758,-0.15698814,3.1562755E-4,0.0,0.0
245.72723,328.93213,14071033,0.9375,0.08510638,-615.733,2697.849,0.06086856,-0.17877758,-0.15698814,3.1562755E-4,0.0,0.0
232.60925,368.36902,14071050,0.9125,0.08510638,-749.9866,2581.5742,0.06086856,-0.17877758,-0.15698814,3.1562755E-4,0.0,0.0
218.18643,402.2981,14071067,0.9375,0.12765957,-963.27576,2387.143,-0.15130508,0.024977803,-0.09359074,8.55473E-5,0.0,0.0
203.48071,430.8922,14071083,0.95,0.09574468,-1090.5767,2169.5664,-0.15130508,0.024977803,-0.09359074,8.55473E-5,0.0,0.0
188.59634,450.62756,14071100,1.0125,0.10638297,-1004.7748,1391.7839,-0.15130508,0.024977803,-0.09359074,8.55473E-5,0.0,0.0
172.5683,469.21936,14071117,1.0625,0.10638297,-991.4947,865.1748,-0.15130508,0.024977803,-0.09359074,8.55473E-5,0.0,0.0
156.99431,482.89197,14071134,1.0375,0.11702127,-951.72614,517.3045,-0.15130508,0.024977803,-0.09359074,-7.328394E-5,-1.8320985E-5,0.0
137.11821,492.59448,14071150,1.0125,0.09574468,-1054.1879,379.919,-0.15130508,0.024977803,-0.09359074,-7.328394E-5,-1.8320985E-5,0.0
119.64264,495.63855,14071167,1.0625,0.10638297,-1175.41,200.39119,-0.15130508,0.024977803,-0.09359074,-7.328394E-5,-1.8320985E-5,0.0
106.19742,492.92273,14071184,1.15,0.11702127,-1032.1842,-252.24423,-0.15130508,0.024977803,-0.09359074,-7.328394E-5,-1.8320985E-5,0.0
95.83647,485.40576,14071200,1.1750001,0.10638297,-767.8175,-625.2897,-0.15130508,0.024977803,-0.09359074,2.2935102E-4,0.0,0.0
89.920044,478.02832,14071217,1.15,0.12765957,-368.6729,-813.7346,-0.15130508,0.024977803,-0.09359074,2.2935102E-4,0.0,0.0
85.81398,463.7611,14071234,1.1,0.12765957,-87.179184,-970.7722,-0.15130508,0.024977803,-0.09359074,2.2935102E-4,0.0,0.0
86.9897,453.1903,14071251,1.0625,0.11702127,125.6056,-961.1773,-0.15130508,0.024977803,-0.09359074,2.2935102E-4,0.0,0.0
90.48474,446.12195,14071267,1.0375,0.09574468,335.1274,-705.6602,-0.15130508,0.024977803,-0.09359074,0.0,0.0,0.0
104.14728,437.3739,14071284,0.96250004,0.08510638,696.68634,-492.92322,-0.15130508,0.024977803,-0.09359074,0.0,0.0,0.0
126.812225,430.6266,14071301,1.0125,0.09574468,1326.1323,-339.62735,-0.15130508,0.024977803,-0.09359074,0.0,0.0,0.0
153.87071,428.1349,14071317,1.025,0.10638297,1902.3341,-231.0731,-0.15130508,0.024977803,-0.09359074,0.0,0.0,0.0
181.01488,427.24646,14071334,1.025,0.10638297,2173.5994,-56.87647,-0.15130508,0.024977803,-0.09359074,-4.721525E-5,4.721525E-5,0.0
211.18164,427.24646,14071351,1.0125,0.12765957,2133.7185,133.43936,-0.15130508,0.024977803,-0.09359074,-4.721525E-5,4.721525E-5,0.0
239.45428,424.7644,14071368,1.025,0.10638297,1925.5194,136.32312,-0.15130508,0.024977803,-0.09359074,-4.721525E-5,4.721525E-5,0.0
271.54492,418.443,14071384,1.0125,0.12765957,1912.8766,-138.99792,-0.15130508,0.024977803,-0.09359074,-4.721525E-5,4.721525E-5,0.0
301.35196,409.13074,14071401,0.9875,0.14893617,1901.4512,-504.43417,-0.15130508,0.024977803,-0.09359074,6.150627E-5,1.5376567E-5,0.0
331.7135,398.97473,14071418,0.9875,0.10638297,1888.3015,-742.07794,-0.15130508,0.024977803,-0.09359074,6.150627E-5,1.5376567E-5,0.0
357.91254,384.99548,14071434,1.0,0.11702127,1738.1608,-927.6768,-0.15130508,0.024977803,-0.09359074,6.150627E-5,1.5376567E-5,0.0
381.44974,371.51,14071451,0.96250004,0.10638297,1497.5654,-986.1639,-0.15130508,0.024977803,-0.09359074,6.150627E-5,1.5376567E-5,0.0
396.21054,361.95093,14071468,0.96250004,0.10638297,1068.8676,-862.4251,-0.15130508,0.024977803,-0.09359074,-5.7497124E-5,0.0,0.0
402.74942,356.2527,14071484,0.96250004,0.12765957,404.71918,-506.4837,-0.15130508,0.024977803,-0.09359074,-5.7497124E-5,0.0,0.0
404.34622,354.38916,14071501,1.1,0.12765957,-127.73602,-107.728745,-0.15130508,0.024977803,-0.09359074,-5.7497124E-5,0.0,0.0
404.04065,354.38916,14071518,1.1875,0.10638297,-448.53677,170.45268,-0.15130508,0.024977803,-0.09359074,-5.7497124E-5,0.0,0.0
401.76465,356.93555,14071535,1.1625,0.10638297,-455.92892,295.68634,-0.15130508,0.024977803,-0.09359074,9.1892536E-5,-3.6757014E-5,0.0
393.51425,364.2456,14071551,1.075,0.10638297,-511.5377,442.6104,-0.15130508,0.024977803,-0.09359074,9.1892536E-5,-3.6757014E-5,0.0
373.2118,382.1328,14071568,1.0125,0.11702127,-937.15643,857.17255,-0.15130508,0.024977803,-0.09359074,9.1892536E-5,-3.6757014E-5,0.0
347.7648,403.34558,14071585,1.0,0.11702127,-1619.4982,1400.8339,-0.15130508,0.024977803,-0.09359074,9.1892536E-5,-3.6757014E-5,0.0
329.43134,424.50183,14071601,1.025,0.10638297,-1804.8867,1646.5493,0.2869559,-0.07601774,0.17312813,-2.0752263E-5,-2.0752263E-5,0.0
315.89807,442.09814,14071618,1.0125,0.12765957,-1432.9501,1564.7786,0.2869559,-0.07601774,0.17312813,-2.0752263E-5,-2.0752263E-5,0.0
304.2541,465.8125,14071635,0.975,0.10638297,-841.7604,1454.4281,0.2869559,-0.07601774,0.17312813,-2.0752263E-5,-2.0752263E-5,0.0
301.37976,480.2478,14071652,0.96250004,0.08510638,-230.70242,1160.0979,0.2869559,-0.07601774,0.17312813,-2.0752263E-5,-2.0752263E-5,0.0
302.1816,489.62683,14071668,0.95,0.10638297,187.99586,773.31775,0.2869559,-0.07601774,0.17312813,0.0,1.0610839E-5,0.0
304.07523,495.12158,14071685,0.9875,0.12765957,426.0888,307.82605,0.2869559,-0.07601774,0.17312813,0.0,1.0610839E-5,0.0
307.27637,498.2666,14071702,1.0,0.12765957,464.87842,-100.95129,0.2869559,-0.07601774,0.17312813,0.0,1.0610839E-5,0.0
316.43555,501.96558,14071718,1.025,0.12765957,501.1663,-67.47728,0.2869559,-0.07601774,0.17312813,0.0,1.0610839E-5,0.0
333.29144,501.16333,14071735,1.025,0.08510638,868.987,-75.336845,0.2869559,-0.07601774,0.17312813,3.2908574E-5,1.0969525E-5,0.0
351.78757,489.19934,14071752,1.0125,0.10638297,1304.9945,-397.03577,0.2869559,-0.07601774,0.17312813,3.2908574E-5,1.0969525E-5,0.0
368.11377,470.3905,14071769,1.0,0.12765957,1450.0928,-1059.168,0.2869559,-0.07601774,0.17312813,3.2908574E-5,1.0969525E-5,0.0
381.80035,448.66504,14071785,1.0,0.10638297,1189.4567,-1645.1406,0.2869559,-0.07601774,0.17312813,3.2908574E-5,1.0969525E-5,0.0
397.06155,416.00366,14071802,1.0125,0.10638297,868.30334,-2056.4355,0.2869559,-0.07601774,0.17312813,-2.4159152E-4,-3.019894E-5,0.0
404.40765,394.15344,14071819,0.9875,0.08510638,586.6248,-2026.5139,0.2869559,-0.07601774,0.17312813,-2.4159152E-4,-3.019894E-5,0.0
407.98248,377.80896,14071835,1.0125,0.10638297,276.06302,-1564.9825,0.2869559,-0.07601774,0.17312813,-2.4159152E-4,-3.019894E-5,0.0
410.51367,364.88574,14071852,1.0125,0.12765957,9.940755,-943.473,0.2869559,-0.07601774,0.17312813,-2.4159152E-4,-3.019894E-5,0.0
411.34396,359.31763,14071869,1.0625,0.12765957,-170.26152,-276.05737,0.2869559,-0.07601774,0.17312813,-2.0410349E-5,0.0,0.0
411.34396,357.0547,14071886,1.1125001,0.12765957,-203.85318,151.5196,0.2869559,-0.07601774,0.17312813,-2.0410349E-5,0.0,0.0
411.14716,357.40454,14071902,1.2625,0.12765957,-109.24937,260.0183,0.2869559,-0.07601774,0.17312813,-2.0410349E-5,0.0,0.0
409.86957,362.29626,14071919,1.3000001,0.12765957,-107.30918,421.92783,0.2869559,-0.07601774,0.17312813,-2.0410349E-5,0.0,0.0
407.06174,371.39014,14071936,1.125,0.10638297,-157.83223,633.681,0.2869559,-0.07601774,0.17312813,-4.1504525E-5,0.0,0.0
403.73947,385.3584,14071952,0.975,0.09574468,-235.28436,905.73425,0.2869559,-0.07601774,0.17312813,-4.1504525E-5,0.0,0.0
402.64297,408.09558,14071969,0.975,0.10638297,-212.46042,1338.315,0.2869559,-0.07601774,0.17312813,-4.1504525E-5,0.0,0.0
402.3469,426.26416,14071986,0.96250004,0.08510638,-98.06648,1570.5128,0.2869559,-0.07601774,0.17312813,-4.1504525E-5,0.0,0.0
403.6907,439.74365,14072003,0.975,0.09574468,57.473648,1371.4536,0.2869559,-0.07601774,0.17312813,2.6780492E-4,0.0,0.0
407.69446,450.02625,14072019,0.9375,0.12765957,222.32999,862.5003,0.2869559,-0.07601774,0.17312813,2.6780492E-4,0.0,0.0
411.9018,455.74036,14072036,0.95,0.12765957,334.8417,301.20523,0.2869559,-0.07601774,0.17312813,2.6780492E-4,0.0,0.0
421.93283,462.2489,14072053,0.96250004,0.12765957,526.01056,92.099045,0.2869559,-0.07601774,0.17312813,2.6780492E-4,0.0,0.0
442.27618,462.6222,14072069,0.95,0.08510638,988.227,3.9738278,0.2869559,-0.07601774,0.17312813,-2.853502E-4,0.0,0.0
468.6516,451.635,14072086,0.9375,0.12765957,1569.882,-398.8579,0.2869559,-0.07601774,0.17312813,-2.853502E-4,0.0,0.0
493.3567,431.7837,14072103,0.95,0.09574468,1986.1097,-1093.5175,0.2869559,-0.07601774,0.17312813,-2.853502E-4,0.0,0.0
514.38,403.50623,14072120,0.9375,0.10638297,1909.3427,-1856.8168,0.2869559,-0.07601774,0.17312813,-2.853502E-4,0.0,0.0
534.7002,366.14832,14072136,0.96250004,0.12765957,1323.3273,-2469.4497,0.26156473,-0.18081415,0.22650242,-1.08095686E-4,0.0,0.0
550.49786,329.67725,14072153,0.95,0.08510638,983.44977,-2808.7644,0.26156473,-0.18081415,0.22650242,-1.08095686E-4,0.0,0.0
561.5372,297.4004,14072170,0.96250004,0.10638297,644.20105,-2595.7546,0.26156473,-0.18081415,0.22650242,-1.08095686E-4,0.0,0.0
568.9827,269.85645,14072186,0.95,0.08510638,398.24265,-2035.4484,0.26156473,-0.18081415,0.22650242,-1.08095686E-4,0.0,0.0
573.3597,239.599,14072203,0.95,0.12765957,95.73295,-1635.1359,0.26156473,-0.18081415,0.22650242,-5.3687072E-5,0.0,0.0
576.15576,219.64368,14072220,0.95,0.08510638,-78.955315,-1249.2086,0.26156473,-0.18081415,0.22650242,-5.3687072E-5,0.0,0.0
576.7901,201.07153,14072236,0.95,0.12765957,-72.42214,-1092.6893,0.26156473,-0.18081415,0.22650242,-5.3687072E-5,0.0,0.0
575.2466,187.11584,14072253,0.95,0.10638297,-172.41768,-761.07275,0.26156473,-0.18081415,0.22650242,-5.3687072E-5,0.0,0.0
573.1943,180.87244,14072270,0.96250004,0.10638297,-231.37213,-348.71075,0.26156473,-0.18081415,0.22650242,-5.3687072E-5,0.0,0.0
571.1001,179.1836,14072287,1.0375,0.09574468,-251.46826,19.17177,0.26156473,-0.18081415,0.22650242,-5.3687072E-5,0.0,0.0
567.9233,179.354,14072303,1.1625,0.10638297,-247.0641,285.44318,0.26156473,-0.18081415,0.22650242,-5.3687072E-5,0.0,0.0
564.0734,182.65991,14072320,1.1750001,0.10638297,-244.73424,463.70856,0.26156473,-0.18081415,0.22650242,-5.3687072E-5,0.0,0.0
557.5056,194.469,14072337,1.0375,0.12765957,-326.95465,656.28046,0.26156473,-0.18081415,0.22650242,4.556742E-4,0.0,0.0
550.2159,214.78687,14072353,0.96250004,0.10638297,-473.14456,1123.6815,0.26156473,-0.18081415,0.22650242,4.556742E-4,0.0,0.0
542.9976,244.16272,14072370,0.9375,0.12765957,-540.94745,1821.0571,0.26156473,-0.18081415,0.22650242,4.556742E-4,0.0,0.0
536.48883,276.65833,14072387,0.9375,0.09574468,-523.907,2395.3967,0.26156473,-0.18081415,0.22650242,4.556742E-4,0.0,0.0
531.4672,313.55212,14072404,0.96250004,0.11702127,-380.6519,2600.3108,0.26156473,-0.18081415,0.22650242,6.1871215E-5,0.0,0.0
527.42285,346.58447,14072420,0.95,0.12765957,-232.61496,2402.0957,0.26156473,-0.18081415,0.22650242,6.1871215E-5,0.0,0.0
524.5068,380.27722,14072437,0.975,0.09574468,-138.82121,2244.2131,0.26156473,-0.18081415,0.22650242,6.1871215E-5,0.0,0.0
523.8247,409.8706,14072454,0.96250004,0.12765957,-41.283573,1946.2002,0.26156473,-0.18081415,0.22650242,6.1871215E-5,0.0,0.0
522.8053,430.84314,14072470,0.96250004,0.08510638,13.456533,1477.9017,0.26156473,-0.18081415,0.22650242,1.6241205E-4,0.0,0.0
521.1459,447.20312,14072487,0.95,0.12765957,13.926069,962.9592,0.26156473,-0.18081415,0.22650242,1.6241205E-4,0.0,0.0
519.6087,463.1422,14072504,0.925,0.10638297,-40.26169,688.5494,0.26156473,-0.18081415,0.22650242,1.6241205E-4,0.0,0.0
517.0281,474.06055,14072521,0.9125,0.08510638,-131.11813,515.29395,0.26156473,-0.18081415,0.22650242,1.6241205E-4,0.0,0.0
514.9402,477.66016,14072537,0.96250004,0.08510638,-167.37833,234.71875,0.26156473,-0.18081415,0.22650242,8.388603E-5,0.0,0.0
513.1002,479.6681,14072554,1.1,0.10638297,-142.94359,-69.68419,0.26156473,-0.18081415,0.22650242,8.388603E-5,0.0,0.0
512.07587,478.8319,14072571,1.2625,0.12765957,-87.30769,-303.72278,0.26156473,-0.18081415,0.22650242,8.388603E-5,0.0,0.0
512.11053,465.81982,14072587,1.225,0.12765957,-16.766834,-595.4026,0.26156473,-0.18081415,0.22650242,8.388603E-5,0.0,0.0
514.6221,444.52014,14072604,1.0,0.08510638,94.88134,-1253.2743,0.26156473,-0.18081415,0.22650242,-2.0132639E-4,0.0,0.0
523.58563,419.88354,14072621,0.925,0.11702127,360.8754,-1807.8044,0.26156473,-0.18081415,0.22650242,-2.0132639E-4,0.0,0.0
535.5778,399.33728,14072637,0.9375,0.11702127,721.32916,-1947.2754,0.26156473,-0.18081415,0.22650242,-2.0132639E-4,0.0,0.0
554.9664,376.31836,14072654,0.9375,0.08510638,1158.7719,-1680.9232,0.26156473,-0.18081415,0.22650242,-2.0132639E-4,0.0,0.0
571.4494,358.2909,14072671,0.925,0.12765957,1397.2338,-1302.131,-0.1267482,-0.22465134,0.013201714,-4.4750716E-4,4.068247E-5,0.0
587.6641,348.87915,14072688,0.9125,0.12765957,1307.9097,-835.1663,-0.1267482,-0.22465134,0.013201714,-4.4750716E-4,4.068247E-5,0.0
595.7367,347.28113,14072704,0.96250004,0.11702127,892.4343,-214.68903,-0.1267482,-0.22465134,0.013201714,-4.4750716E-4,4.068247E-5,0.0
598.48883,348.16968,14072721,1.1,0.12765957,314.1148,302.09473,-0.1267482,-0.22465134,0.013201714,-4.4750716E-4,4.068247E-5,0.0
599.4213,350.4392,14072738,1.1875,0.12765957,-142.69545,568.58923,-0.1267482,-0.22465134,0.013201714,3.0815447E-4,4.4022065E-5,0.0
599.7826,357.4607,14072754,1.225,0.12765957,-307.42798,623.3271,-0.1267482,-0.22465134,0.013201714,3.0815447E-4,4.4022065E-5,0.0
597.6272,367.88293,14072771,1.15,0.11702127,-328.19308,714.3257,-0.1267482,-0.22465134,0.013201714,3.0815447E-4,4.4022065E-5,0.0
593.2403,378.45776,14072788,1.0125,0.11702127,-285.32315,814.1654,-0.1267482,-0.22465134,0.013201714,3.0815447E-4,4.4022065E-5,0.0
586.1991,387.15308,14072805,1.025,0.12765957,-429.96533,799.76776,-0.1267482,-0.22465134,0.013201714,4.4750716E-4,-4.068247E-5,0.0
573.9223,399.44055,14072821,1.0375,0.11702127,-700.0216,708.8342,-0.1267482,-0.22465134,0.013201714,4.4750716E-4,-4.068247E-5,0.0
561.63,410.51147,14072838,1.0500001,0.10638297,-902.23773,687.79517,-0.1267482,-0.22465134,0.013201714,4.4750716E-4,-4.068247E-5,0.0
551.1236,419.40527,14072855,1.0375,0.10638297,-928.6881,665.0659,-0.1267482,-0.22465134,0.013201714,4.4750716E-4,-4.068247E-5,0.0
545.10974,425.13953,14072871,1.0375,0.11702127,-669.33185,483.6718,-0.1267482,-0.22465134,0.013201714,9.059692E-5,0.0,0.0
541.33325,428.1162,14072888,1.0125,0.11702127,-288.34772,217.59995,-0.1267482,-0.22465134,0.013201714,9.059692E-5,0.0,0.0
539.2702,432.69153,14072905,1.0,0.09574468,-12.625458,69.941414,-0.1267482,-0.22465134,0.013201714,9.059692E-5,0.0,0.0
539.3023,434.48083,14072921,0.9375,0.09574468,123.831154,36.330498,-0.1267482,-0.22465134,0.013201714,9.059692E-5,0.0,0.0
543.9001,437.32422,14072938,0.90000004,0.08510638,259.58243,67.03617,-0.1267482,-0.22465134,0.013201714,-4.0958283E-4,0.0,0.0
562.2315,443.1338,14072955,0.925,0.09574468,755.9192,193.78362,-0.1267482,-0.22465134,0.013201714,-4.0958283E-4,0.0,0.0
598.4111,447.76782,14072972,0.9375,0.12765957,1756.086,292.1053,-0.1267482,-0.22465134,0.013201714,-4.0958283E-4,0.0,0.0
630.9436,440.896,14072988,0.8875,0.12765957,2624.644,53.62619,-0.1267482,-0.22465134,0.013201714,-4.0958283E-4,0.0,0.0
667.5691,428.88635,14073005,0.8875,0.08510638,2951.7573,-553.38116,-0.1267482,-0.22465134,0.013201714,-6.4160486E-5,0.0,0.0
705.47125,411.4198,14073022,0.875,0.12765957,2744.7385,-1219.7173,-0.1267482,-0.22465134,0.013201714,-6.4160486E-5,0.0,0.0
734.1439,395.70178,14073038,0.8875,0.10638297,2151.646,-1444.7418,-0.1267482,-0.22465134,0.013201714,-6.4160486E-5,0.0,0.0
759.71985,380.1621,14073055,0.875,0.10638297,1655.1136,-1312.2589,-0.1267482,-0.22465134,0.013201714,-6.4160486E-5,0.0,0.0
778.0575,368.01318,14073072,0.90000004,0.09574468,1094.3086,-967.09467,-0.1267482,-0.22465134,0.013201714,2.4196437E-5,0.0,0.0
787.4424,359.22852,14073089,0.90000004,0.12765957,572.5233,-620.0516,-0.1267482,-0.22465134,0.013201714,2.4196437E-5,0.0,0.0
790.70966,354.40833,14073105,0.925,0.12765957,20.206858,-303.67752,-0.1267482,-0.22465134,0.013201714,2.4196437E-5,0.0,0.0
790.72046,353.5006,14073122,1.15,0.12765957,-354.78784,2.678945,-0.1267482,-0.22465134,0.013201714,2.4196437E-5,0.0,0.0
790.15906,353.5006,14073139,1.15,0.12765957,-452.13556,184.94785,-0.1267482,-0.22465134,0.013201714,-1.8981249E-5,0.0,0.0
783.9352,356.56592,14073155,0.9875,0.10638297,-505.67807,312.6849,-0.1267482,-0.22465134,0.013201714,-1.8981249E-5,0.0,0.0
766.58325,367.6631,14073172,0.90000004,0.11702127,-815.40515,554.47534,-0.1267482,-0.22465134,0.013201714,-1.8981249E-5,0.0,0.0
736.48596,387.97607,14073189,0.9125,0.10638297,-1599.1266,1070.2368,-0.1267482,-0.22465134,0.013201714,-1.8981249E-5,0.0,0.0
715.83856,406.45154,14073206,0.925,0.12765957,-2075.672,1516.4095,0.018601418,-0.13172102,0.058561325,6.450501E-5,0.0,0.0
699.69696,423.89453,14073222,0.925,0.10638297,-1684.2786,1517.8013,0.018601418,-0.13172102,0.058561325,6.450501E-5,0.0,0.0
688.1566,438.47363,14073239,0.925,0.10638297,-916.129,1178.4194,0.018601418,-0.13172102,0.058561325,6.450501E-5,0.0,0.0
678.65643,456.67493,14073256,0.95,0.10638297,-325.42377,932.83746,0.018601418,-0.13172102,0.058561325,6.450501E-5,0.0,0.0
675.904,467.70715,14073272,0.9375,0.09574468,-89.035736,806.528,0.018601418,-0.13172102,0.058561325,1.7273163E-4,0.0,0.0
676.5499,475.37598,14073289,0.9125,0.08510638,143.21637,546.5983,0.018601418,-0.13172102,0.058561325,1.7273163E-4,0.0,0.0
679.1546,479.5774,14073306,0.925,0.08510638,377.91467,241.65091,0.018601418,-0.13172102,0.058561325,1.7273163E-4,0.0,0.0
685.7871,483.23657,14073323,0.9375,0.11702127,538.007,7.2468023,0.018601418,-0.13172102,0.058561325,1.7273163E-4,0.0,0.0
706.7318,483.1493,14073339,0.9375,0.09574468,992.4784,-116.55534,0.018601418,-0.13172102,0.058561325,2.0132657E-5,1.0066328E-5,0.0
727.8684,473.46936,14073356,0.925,0.10638297,1490.7233,-400.1948,0.018601418,-0.13172102,0.058561325,2.0132657E-5,1.0066328E-5,0.0
746.8741,457.33167,14073373,0.925,0.12765957,1691.1659,-924.5126,0.018601418,-0.13172102,0.058561325,2.0132657E-5,1.0066328E-5,0.0
765.16895,437.03333,14073389,0.9375,0.08510638,1565.9004,-1441.9778,0.018601418,-0.13172102,0.058561325,2.0132657E-5,1.0066328E-5,0.0
777.65686,416.36157,14073406,0.95,0.12765957,1074.2598,-1686.0265,0.018601418,-0.13172102,0.058561325,-3.0765057E-4,0.0,0.0
791.94104,386.6128,14073423,0.9375,0.08510638,660.10254,-1803.8654,0.018601418,-0.13172102,0.058561325,-3.0765057E-4,0.0,0.0
799.4026,366.13782,14073440,0.95,0.12765957,471.421,-1702.7013,0.018601418,-0.13172102,0.058561325,-3.0765057E-4,0.0,0.0
803.7973,349.51416,14073456,0.96250004,0.12765957,238.03221,-1387.595,0.018601418,-0.13172102,0.058561325,-3.0765057E-4,0.0,0.0
805.0525,341.93213,14073473,1.0125,0.09574468,4.126134,-742.9237,0.018601418,-0.13172102,0.058561325,-5.5437617E-4,0.0,0.0
804.85986,340.1731,14073490,1.1125001,0.11702127,-218.49144,24.447199,0.018601418,-0.13172102,0.058561325,-5.5437617E-4,0.0,0.0
804.32904,340.86084,14073506,1.3125,0.12765957,-257.56323,432.7424,0.018601418,-0.13172102,0.058561325,-5.5437617E-4,0.0,0.0
801.8729,344.43066,14073523,1.375,0.14893617,-222.87195,553.4722,0.018601418,-0.13172102,0.058561325,-5.5437617E-4,0.0,0.0
798.24615,350.78516,14073540,1.2625,0.12765957,-249.00616,580.96014,0.018601418,-0.13172102,0.058561325,-1.9054677E-4,-5.444193E-5,0.0
794.0369,361.09497,14073556,0.9875,0.10638297,-311.29324,681.9618,0.018601418,-0.13172102,0.058561325,-1.9054677E-4,-5.444193E-5,0.0
787.7284,380.72742,14073573,0.96250004,0.09574468,-395.7561,1057.6578,0.018601418,-0.13172102,0.058561325,-1.9054677E-4,-5.444193E-5,0.0
783.1857,403.04358,14073590,0.95,0.10638297,-402.9568,1443.5312,0.018601418,-0.13172102,0.058561325,-1.9054677E-4,-5.444193E-5,0.0
782.0405,421.93396,14073607,0.96250004,0.08510638,-253.08438,1584.0426,0.018601418,-0.13172102,0.058561325,0.0018728597,0.0,0.0
783.63086,434.75293,14073623,0.925,0.09574468,-16.549307,1343.1863,0.018601418,-0.13172102,0.058561325,0.0018728597,0.0,0.0
786.1939,443.1897,14073640,0.925,0.10638297,259.80026,702.90247,0.018601418,-0.13172102,0.058561325,0.0018728597,0.0,0.0
791.1141,449.60498,14073657,0.96250004,0.12765957,379.40897,238.22194,0.018601418,-0.13172102,0.058561325,0.0018728597,0.0,0.0
801.458,456.40503,14073673,0.9875,0.12765957,553.0454,68.711105,0.018601418,-0.13172102,0.058561325,3.601427E-4,0.0,0.0
817.4577,458.344,14073690,1.0,0.10638297,902.8796,46.57799,0.018601418,-0.13172102,0.058561325,3.601427E-4,0.0,0.0
833.74634,453.41028,14073707,1.0125,0.10638297,1189.8723,-151.74457,0.018601418,-0.13172102,0.058561325,3.601427E-4,0.0,0.0
848.65375,440.87036,14073724,0.9875,0.11702127,1257.5326,-628.76666,0.018601418,-0.13172102,0.058561325,3.601427E-4,0.0,0.0
858.329,426.12585,14073740,0.9875,0.12765957,956.9291,-1133.6799,-0.04111886,0.006623149,0.07884884,-6.289579E-4,-7.8619734E-5,0.0
870.2902,399.43555,14073757,0.95,0.08510638,663.6875,-1673.83,-0.04111886,0.006623149,0.07884884,-6.289579E-4,-7.8619734E-5,0.0
879.1308,376.31982,14073774,0.925,0.10638297,480.6561,-1862.3826,-0.04111886,0.006623149,0.07884884,-6.289579E-4,-7.8619734E-5,0.0
888.4345,346.57312,14073790,0.96250004,0.10638297,440.45435,-1975.5901,-0.04111886,0.006623149,0.07884884,-6.289579E-4,-7.8619734E-5,0.0
896.77765,321.91614,14073807,0.96250004,0.10638297,450.42432,-1871.7045,-0.04111886,0.006623149,0.07884884,-0.0032065818,-2.1377213E-4,0.0
903.54236,293.66846,14073824,0.9375,0.12765957,394.68875,-1709.3966,-0.04111886,0.006623149,0.07884884,-0.0032065818,-2.1377213E-4,0.0
909.04785,274.01172,14073841,0.925,0.09574468,323.06738,-1465.1575,-0.04111886,0.006623149,0.07884884,-0.0032065818,-2.1377213E-4,0.0
917.0482,249.95361,14073857,0.8875,0.12765957,335.74423,-1282.682,-0.04111886,0.006623149,0.07884884,-0.0032065818,-2.1377213E-4,0.0
924.34717,229.10071,14073874,0.90000004,0.09574468,425.25003,-1298.2784,-0.04111886,0.006623149,0.07884884,-1.8041533E-4,-7.732085E-5,0.0
929.67267,213.83423,14073891,0.8875,0.08510638,419.64764,-1068.7063,-0.04111886,0.006623149,0.07884884,-1.8041533E-4,-7.732085E-5,0.0
932.3427,206.89307,14073907,0.90000004,0.12765957,270.1614,-606.24896,-0.04111886,0.006623149,0.07884884,-1.8041533E-4,-7.732085E-5,0.0
935.26337,202.05237,14073924,0.9125,0.12765957,85.29573,-74.68631,-0.04111886,0.006623149,0.07884884,-1.8041533E-4,-7.732085E-5,0.0
937.0783,201.56665,14073941,0.9875,0.10638297,3.015884,270.86682,-0.04111886,0.006623149,0.07884884,6.506011E-4,4.6471505E-5,0.0
937.6726,206.69006,14073958,1.125,0.12765957,-0.9716475,417.11334,-0.04111886,0.006623149,0.07884884,6.506011E-4,4.6471505E-5,0.0
936.6564,217.76514,14073974,0.9375,0.09574468,-57.76738,725.07526,-0.04111886,0.006623149,0.07884884,6.506011E-4,4.6471505E-5,0.0
936.1731,245.24219,14073991,0.90000004,0.09574468,-102.54737,1387.7098,-0.04111886,0.006623149,0.07884884,6.506011E-4,4.6471505E-5,0.0
933.6153,279.74768,14074008,0.9125,0.12765957,-175.18423,2257.2139,-0.04111886,0.006623149,0.07884884,-1.660858E-4,2.3726541E-5,0.0
930.2279,321.21533,14074024,0.9375,0.08510638,-216.10258,2924.7732,-0.04111886,0.006623149,0.07884884,-1.660858E-4,2.3726541E-5,0.0
929.2806,358.55176,14074041,0.95,0.12765957,-177.54646,2994.0193,-0.04111886,0.006623149,0.07884884,-1.660858E-4,2.3726541E-5,0.0
929.36566,387.00635,14074058,0.9875,0.10638297,-95.55714,2525.7334,-0.04111886,0.006623149,0.07884884,-1.660858E-4,2.3726541E-5,0.0
931.13434,415.19348,14074074,0.96250004,0.10638297,83.73647,1726.3931,-0.04111886,0.006623149,0.07884884,2.730917E-4,9.103057E-5,0.0
934.39075,434.66223,14074091,0.9375,0.09574468,221.79778,1259.8779,-0.04111886,0.006623149,0.07884884,2.730917E-4,9.103057E-5,0.0
938.6771,448.4065,14074108,0.95,0.10638297,317.19327,740.70215,-0.04111886,0.006623149,0.07884884,2.730917E-4,9.103057E-5,0.0
942.6728,459.23584,14074125,0.9125,0.10638297,358.68616,350.59134,-0.04111886,0.006623149,0.07884884,2.730917E-4,9.103057E-5,0.0
947.0138,466.29675,14074141,0.90000004,0.09574468,310.212,114.86821,-0.04111886,0.006623149,0.07884884,9.79951E-4,0.0,0.0
953.19653,473.03003,14074158,0.8625,0.08510638,330.17896,89.69604,-0.04111886,0.006623149,0.07884884,9.79951E-4,0.0,0.0
971.4602,476.11414,14074175,0.7375,0.09574468,647.4713,116.25417,-0.04111886,0.006623149,0.07884884,9.79951E-4,0.0,0.0
971.6615,476.11414,14074175,0.4375,0.10638297,722.705,114.63355,-0.04111886,0.006623149,0.07884884,9.79951E-4,0.0,0.0
971.6615,476.11414,14074184,0.4375,0.10638297,722.705,114.63355,-0.04111886,0.006623149,0.07884884,9.79951E-4,0.0,0.0
829.20795,312.62952,14074344,1.1875,0.12765957,0.0,0.0,0.9191049,-0.62670153,0.45507908,0.0,1.0376131E-5,0.0
829.20795,312.62952,14074375,1.3125,0.12765957,-0.039057642,-0.012270637,0.9191049,-0.62670153,0.45507908,0.0,1.0376131E-5,0.0
829.20795,312.62952,14074392,1.1625,0.10638297,0.056922253,0.0236459,0.9191049,-0.62670153,0.45507908,0.0,1.0376131E-5,0.0
867.38916,314.5243,14074409,0.9125,0.10638297,1839.356,83.19217,0.9191049,-0.62670153,0.45507908,-3.8551007E-4,-1.5420403E-4,0.0
905.401,318.22168,14074425,0.8625,0.12765957,2814.2363,209.80826,0.9191049,-0.62670153,0.45507908,-3.8551007E-4,-1.5420403E-4,0.0
949.36896,321.02942,14074442,0.8,0.09574468,3396.361,250.01787,0.9191049,-0.62670153,0.45507908,-3.8551007E-4,-1.5420403E-4,0.0
994.1405,325.67798,14074459,0.7,0.07446808,3691.7856,319.02942,0.9191049,-0.62670153,0.45507908,-3.8551007E-4,-1.5420403E-4,0.0
1036.6404,325.95703,14074472,0.1875,0.07446808,3519.317,285.09445,0.9191049,-0.62670153,0.45507908,5.476656E-4,-2.28194E-4,0.0
1036.6404,325.95703,14074480,0.1875,0.07446808,3519.317,285.09445,0.9191049,-0.62670153,0.45507908,5.476656E-4,-2.28194E-4,0.0
1022.6449,367.71667,14074625,0.96250004,0.11702127,0.0,0.0,0.9191049,-0.62670153,0.45507908,0.0,0.0,0.0
1022.6449,367.71667,14074643,1.0125,0.11702127,2.4360788,0.87266576,0.9191049,-0.62670153,0.45507908,0.0,0.0,0.0
1022.6449,367.71667,14074659,0.9875,0.10638297,-0.04946555,-0.017790765,0.9191049,-0.62670153,0.45507908,0.0,0.0,0.0
1022.6449,367.71667,14074676,0.9375,0.09574468,-0.024408048,-0.007190079,0.9191049,-0.62670153,0.45507908,3.849629E-5,1.2832097E-5,0.0
1005.31824,386.8181,14074693,0.90000004,0.10638297,-736.9542,802.1541,0.9191049,-0.62670153,0.45507908,3.849629E-5,1.2832097E-5,0.0
994.61316,404.57642,14074709,0.8625,0.10638297,-1048.2646,1316.7516,0.9191049,-0.62670153,0.45507908,3.849629E-5,1.2832097E-5,0.0
986.57166,424.88318,14074726,0.83750004,0.08510638,-1053.7643,1761.282,0.9191049,-0.62670153,0.45507908,3.849629E-5,1.2832097E-5,0.0
984.84155,437.72046,14074743,0.8,0.10638297,-584.5143,1523.9471,0.9191049,-0.62670153,0.45507908,0.0,0.0,0.0
987.2063,452.39,14074760,0.7875,0.12765957,157.61427,938.1648,0.9191049,-0.62670153,0.45507908,0.0,0.0,0.0
991.3257,463.97803,14074776,0.8125,0.09574468,584.8282,589.9185,0.9191049,-0.62670153,0.45507908,0.0,0.0,0.0
999.7743,472.66846,14074793,0.825,0.08510638,647.01965,450.36475,0.9191049,-0.62670153,0.45507908,0.0,0.0,0.0
1012.9746,477.73157,14074810,0.8875,0.08510638,817.01935,344.68942,-0.61671615,0.38663876,-0.29193687,4.4497894E-4,0.0,0.0
1030.2461,477.87878,14074826,0.9125,0.10638297,1121.19,25.414658,-0.61671615,0.38663876,-0.29193687,4.4497894E-4,0.0,0.0
1042.0371,470.38977,14074843,0.9375,0.10638297,1155.2336,-417.00232,-0.61671615,0.38663876,-0.29193687,4.4497894E-4,0.0,0.0
1049.0557,460.26453,14074860,0.95,0.10638297,839.32074,-778.278,-0.61671615,0.38663876,-0.29193687,4.4497894E-4,0.0,0.0
1055.1392,442.84375,14074877,0.875,0.08510638,371.369,-1139.6188,-0.61671615,0.38663876,-0.29193687,-5.5338943E-4,0.0,0.0
1056.134,428.19617,14074893,0.90000004,0.09574468,-1.4612637,-1293.8297,-0.61671615,0.38663876,-0.29193687,-5.5338943E-4,0.0,0.0
1052.3326,416.22217,14074910,0.9375,0.12765957,-281.9107,-1163.538,-0.61671615,0.38663876,-0.29193687,-5.5338943E-4,0.0,0.0
1048.4172,407.30957,14074927,0.96250004,0.12765957,-428.72275,-784.4843,-0.61671615,0.38663876,-0.29193687,-5.5338943E-4,0.0,0.0
1043.4636,400.38452,14074943,0.95,0.11702127,-506.53085,-398.42593,-0.61671615,0.38663876,-0.29193687,-1.5916218E-4,1.1937164E-4,0.0
1038.0498,394.45337,14074960,0.96250004,0.09574468,-485.81332,-164.19283,-0.61671615,0.38663876,-0.29193687,-1.5916218E-4,1.1937164E-4,0.0
1032.8588,391.07263,14074977,0.975,0.11702127,-381.28366,-120.41755,-0.61671615,0.38663876,-0.29193687,-1.5916218E-4,1.1937164E-4,0.0
1028.9744,391.5099,14074994,0.9875,0.11702127,-316.69653,14.087863,-0.61671615,0.38663876,-0.29193687,-1.5916218E-4,1.1937164E-4,0.0
1027.2244,392.59485,14075010,1.0625,0.12765957,-194.21912,169.4871,-0.61671615,0.38663876,-0.29193687,-5.8847415E-4,-1.3580173E-4,0.0
1026.1438,395.20007,14075027,1.15,0.14893617,-41.458084,299.8737,-0.61671615,0.38663876,-0.29193687,-5.8847415E-4,-1.3580173E-4,0.0
1026.1438,397.042,14075044,1.2125,0.14893617,57.13114,268.56772,-0.61671615,0.38663876,-0.29193687,-5.8847415E-4,-1.3580173E-4,0.0
1027.7429,397.03735,14075060,1.1375,0.12765957,132.82205,137.1945,-0.61671615,0.38663876,-0.29193687,-5.8847415E-4,-1.3580173E-4,0.0
1033.759,398.9712,14075077,0.975,0.12765957,281.2825,66.42773,-0.61671615,0.38663876,-0.29193687,0.0011108549,2.9622798E-4,0.0
1047.0038,400.82825,14075094,0.90000004,0.10638297,629.2371,71.54389,-0.61671615,0.38663876,-0.29193687,0.0011108549,2.9622798E-4,0.0
1061.2614,400.5913,14075111,0.9125,0.12765957,989.2568,44.193855,-0.61671615,0.38663876,-0.29193687,0.0011108549,2.9622798E-4,0.0
1081.5482,397.71375,14075127,0.8625,0.12765957,1322.4272,-50.3402,-0.61671615,0.38663876,-0.29193687,0.0011108549,2.9622798E-4,0.0
1096.3285,393.05957,14075144,0.8875,0.10638297,1362.0638,-281.15094,-0.61671615,0.38663876,-0.29193687,7.8458904E-4,1.5691781E-4,0.0
1107.2787,386.1095,14075161,0.875,0.09574468,998.4518,-470.24387,-0.61671615,0.38663876,-0.29193687,7.8458904E-4,1.5691781E-4,0.0
1115.5538,378.74707,14075177,0.9125,0.10638297,569.93445,-569.8217,-0.61671615,0.38663876,-0.29193687,7.8458904E-4,1.5691781E-4,0.0
1120.559,372.00928,14075194,0.925,0.12765957,174.41093,-563.322,-0.61671615,0.38663876,-0.29193687,7.8458904E-4,1.5691781E-4,0.0
1123.215,365.33923,14075211,0.9375,0.12765957,-24.05312,-469.1102,-0.61671615,0.38663876,-0.29193687,-0.0012661157,0.0,0.0
1124.1119,358.30188,14075227,0.95,0.14893617,-70.45438,-428.56583,-0.61671615,0.38663876,-0.29193687,-0.0012661157,0.0,0.0
1123.612,354.47363,14075244,0.95,0.12765957,-168.6728,-325.11636,-0.61671615,0.38663876,-0.29193687,-0.0012661157,0.0,0.0
1122.5984,352.58728,14075261,1.0625,0.12765957,-173.14424,-164.13255,-0.61671615,0.38663876,-0.29193687,-0.0012661157,0.0,0.0
1121.5698,352.61218,14075278,1.15,0.12765957,-160.84041,15.190808,-0.61671615,0.38663876,-0.29193687,-4.7571427E-4,-4.757143E-5,0.0
1120.5198,352.61218,14075294,1.1375,0.12765957,-126.19833,136.16208,-0.61671615,0.38663876,-0.29193687,-4.7571427E-4,-4.757143E-5,0.0
1120.613,355.74487,14075311,1.025,0.12765957,-54.906605,207.23236,-0.61671615,0.38663876,-0.29193687,-4.7571427E-4,-4.757143E-5,0.0
1120.613,361.86853,14075328,0.8625,0.08510638,-2.7182784,333.70227,-0.61671615,0.38663876,-0.29193687,-4.7571427E-4,-4.757143E-5,0.0
1127.1147,380.8009,14075344,0.83750004,0.08510638,189.78703,787.69165,0.17862713,-0.19468892,0.1664505,5.0443152E-5,0.0,0.0
1135.632,408.2495,14075361,0.85,0.12765957,510.06296,1597.3993,0.17862713,-0.19468892,0.1664505,5.0443152E-5,0.0,0.0
1140.1956,433.52454,14075378,0.83750004,0.09574468,604.306,2100.1887,0.17862713,-0.19468892,0.1664505,5.0443152E-5,0.0,0.0
1140.4407,459.2223,14075395,0.83750004,0.12765957,365.14438,2088.1277,0.17862713,-0.19468892,0.1664505,5.0443152E-5,0.0,0.0
1134.5035,483.3883,14075411,0.83750004,0.09574468,-168.1109,1771.392,0.17862713,-0.19468892,0.1664505,3.9351126E-4,1.6864768E-4,0.0
1125.488,497.17688,14075428,0.85,0.12765957,-648.67847,1144.5997,0.17862713,-0.19468892,0.1664505,3.9351126E-4,1.6864768E-4,0.0
1106.6725,520.178,14075445,0.8625,0.09574468,-1116.219,936.4828,0.17862713,-0.19468892,0.1664505,3.9351126E-4,1.6864768E-4,0.0
1083.4312,540.7483,14075461,0.85,0.11702127,-1542.9353,1045.5104,0.17862713,-0.19468892,0.1664505,3.9351126E-4,1.6864768E-4,0.0
1064.6693,550.97644,14075478,0.8,0.10638297,-1668.1473,901.03125,0.17862713,-0.19468892,0.1664505,4.8485727E-4,0.0,0.0
1046.6371,558.7449,14075486,0.6375,0.12765957,-1806.4426,868.7429,0.17862713,-0.19468892,0.1664505,4.8485727E-4,0.0,0.0
1046.6371,558.7449,14075493,0.6375,0.12765957,-1806.4426,868.7429,0.17862713,-0.19468892,0.1664505,4.8485727E-4,0.0,0.0
