x,y,timestamp,pressure,fingerarea,velocityx,velocityy,accelx,accely,accelz,gyrox,gyroy,gyroz
254.39505,249.54578,14031145,1.325,0.12765957,0.0,0.0,-0.108834684,0.124732256,-0.1291523,0.0,0.0,0.0
254.39505,249.54578,14031163,1.4375,0.14893617,-0.061621618,-0.057050817,-0.108834684,0.124732256,-0.1291523,0.0,0.0,0.0
254.39505,249.54578,14031179,1.4,0.12765957,0.0012809859,8.7898184E-4,-0.108834684,0.124732256,-0.1291523,0.0,0.0,0.0
254.39505,249.54578,14031196,1.1625,0.11702127,0.0033375286,0.0045676734,-0.108834684,0.124732256,-0.1291523,0.0,0.0,0.0
249.70123,271.95007,14031213,0.90000004,0.08510638,-193.23608,925.6679,-0.108834684,0.124732256,-0.1291523,0.0,0.0,0.0
244.22662,300.90247,14031229,0.925,0.10638297,-362.14053,1839.0172,-0.108834684,0.124732256,-0.1291523,0.0,0.0,0.0
237.17111,327.33875,14031246,0.925,0.08510638,-526.1747,2411.2078,-0.108834684,0.124732256,-0.1291523,7.170575E-4,-5.121839E-5,0.0
227.84464,359.8097,14031263,0.9125,0.09574468,-632.85455,2515.365,-0.108834684,0.124732256,-0.1291523,7.170575E-4,-5.121839E-5,0.0
213.90277,395.2732,14031280,0.90000004,0.11702127,-780.9783,2323.3262,-0.108834684,0.124732256,-0.1291523,7.170575E-4,-5.121839E-5,0.0
197.3465,430.6986,14031296,0.9125,0.09574468,-1016.11523,2227.2117,-0.108834684,0.124732256,-0.1291523,7.170575E-4,-5.121839E-5,0.0
181.20459,457.9209,14031313,0.925,0.12765957,-1209.6005,2170.4343,-0.108834684,0.124732256,-0.1291523,3.183252E-5,-1.0610839E-5,0.0
163.13939,480.92285,14031330,0.9375,0.09574468,-1215.6836,1591.5908,-0.108834684,0.124732256,-0.1291523,3.183252E-5,-1.0610839E-5,0.0
147.1788,496.28406,14031346,1.0125,0.12765957,-1117.8888,955.00433,-0.108834684,0.124732256,-0.1291523,3.183252E-5,-1.0610839E-5,0.0
133.81227,503.26758,14031363,1.125,0.10638297,-927.2034,331.73743,-0.108834684,0.124732256,-0.1291523,3.183252E-5,-1.0610839E-5,0.0
123.31865,505.65564,14031380,1.1625,0.12765957,-714.0561,-112.914734,-0.108834684,0.124732256,-0.1291523,-1.289118E-4,-4.2970598E-5,0.0
115.12195,502.09973,14031397,1.1625,0.12765957,-471.9305,-459.8156,-0.108834684,0.124732256,-0.1291523,-1.289118E-4,-4.2970598E-5,0.0
109.00383,495.08887,14031413,1.1375,0.12765957,-257.29733,-741.13354,-0.108834684,0.124732256,-0.1291523,-1.289118E-4,-4.2970598E-5,0.0
102.482956,485.95593,14031430,1.1750001,0.12765957,-222.83583,-800.7976,-0.108834684,0.124732256,-0.1291523,-1.289118E-4,-4.2970598E-5,0.0
95.04378,470.8463,14031447,1.2625,0.14893617,-301.91864,-991.8883,-0.108834684,0.124732256,-0.1291523,1.5203965E-4,0.0,0.0
92.63161,461.42822,14031463,1.3000001,0.14893617,-278.72916,-983.7619,-0.108834684,0.124732256,-0.1291523,1.5203965E-4,0.0,0.0
93.159485,454.6693,14031480,1.325,0.12765957,-66.108406,-713.6711,-0.108834684,0.124732256,-0.1291523,1.5203965E-4,0.0,0.0
94.73775,450.71936,14031497,1.3125,0.12765957,196.58359,-322.21762,-0.108834684,0.124732256,-0.1291523,1.5203965E-4,0.0,0.0
99.56711,447.79407,14031513,1.2375001,0.12765957,380.8809,-21.485119,-0.108834684,0.124732256,-0.1291523,-3.8110412E-4,7.622082E-5,0.0
108.729004,445.943,14031530,1.0875,0.10638297,558.1471,70.65295,-0.108834684,0.124732256,-0.1291523,-3.8110412E-4,7.622082E-5,0.0
126.82402,443.17065,14031547,1.0375,0.12765957,943.358,-18.470087,-0.108834684,0.124732256,-0.1291523,-3.8110412E-4,7.622082E-5,0.0
159.8606,436.60315,14031564,1.0500001,0.10638297,1727.6074,-194.22156,-0.108834684,0.124732256,-0.1291523,-3.8110412E-4,7.622082E-5,0.0
189.15671,430.10474,14031580,1.075,0.14893617,2295.8657,-387.68683,-0.07106775,0.14778566,0.06467819,3.338622E-5,3.338622E-5,0.0
222.43903,420.98596,14031597,1.0500001,0.09574468,2482.672,-565.1495,-0.07106775,0.14778566,0.06467819,3.338622E-5,3.338622E-5,0.0
255.78088,409.8474,14031614,1.0500001,0.14893617,2361.2683,-704.888,-0.07106775,0.14778566,0.06467819,3.338622E-5,3.338622E-5,0.0
282.73587,402.64648,14031630,1.0625,0.09574468,2026.4587,-683.7017,-0.07106775,0.14778566,0.06467819,3.338622E-5,3.338622E-5,0.0
309.3705,394.37378,14031647,1.0500001,0.12765957,1689.9965,-574.7405,-0.07106775,0.14778566,0.06467819,3.183252E-5,0.0,0.0
329.44214,385.74048,14031664,1.0625,0.10638297,1338.7781,-481.8205,-0.07106775,0.14778566,0.06467819,3.183252E-5,0.0,0.0
341.94736,376.97424,14031681,1.0500001,0.10638297,808.67065,-471.55646,-0.07106775,0.14778566,0.06467819,3.183252E-5,0.0,0.0
347.0983,371.7444,14031697,1.0500001,0.10638297,230.64555,-434.3899,-0.07106775,0.14778566,0.06467819,3.183252E-5,0.0,0.0
347.86462,368.83386,14031714,1.1125001,0.10638297,-238.2239,-250.22177,-0.07106775,0.14778566,0.06467819,-1.0129043E-4,0.0,0.0
347.42474,367.71667,14031731,1.225,0.10638297,-481.9944,-30.648764,-0.07106775,0.14778566,0.06467819,-1.0129043E-4,0.0,0.0
341.00955,371.18616,14031747,1.2375001,0.10638297,-543.0261,205.94621,-0.07106775,0.14778566,0.06467819,-1.0129043E-4,0.0,0.0
329.06152,379.47852,14031764,1.0375,0.12765957,-755.2038,494.30283,-0.07106775,0.14778566,0.06467819,-1.0129043E-4,0.0,0.0
311.1429,391.62537,14031781,0.9875,0.12765957,-1111.454,798.3418,-0.07106775,0.14778566,0.06467819,-5.2841515E-5,-7.9262274E-5,0.0
290.74326,406.745,14031798,1.025,0.10638297,-1465.0,1070.8641,-0.07106775,0.14778566,0.06467819,-5.2841515E-5,-7.9262274E-5,0.0
276.62598,421.708,14031814,1.0125,0.11702127,-1403.0898,1159.1685,-0.07106775,0.14778566,0.06467819,-5.2841515E-5,-7.9262274E-5,0.0
266.13712,435.9596,14031831,0.95,0.12765957,-1036.8971,1116.304,-0.07106775,0.14778566,0.06467819,-5.2841515E-5,-7.9262274E-5,0.0
252.67307,464.58923,14031848,0.9375,0.10638297,-648.22723,1386.0549,-0.07106775,0.14778566,0.06467819,2.360763E-5,3.5411445E-5,0.0
247.63068,485.07764,14031864,0.8875,0.08510638,-365.57425,1601.577,-0.07106775,0.14778566,0.06467819,2.360763E-5,3.5411445E-5,0.0
246.6918,499.84436,14031881,0.875,0.12765957,-84.223976,1372.0527,-0.07106775,0.14778566,0.06467819,2.360763E-5,3.5411445E-5,0.0
248.88477,511.32947,14031898,0.875,0.12765957,276.54797,828.5762,-0.07106775,0.14778566,0.06467819,2.360763E-5,3.5411445E-5,0.0
253.20386,517.3822,14031915,0.875,0.11702127,512.62775,274.5747,-0.07106775,0.14778566,0.06467819,1.0610839E-5,0.0,0.0
263.7382,521.9746,14031931,0.925,0.10638297,665.0974,-4.0412035,-0.07106775,0.14778566,0.06467819,1.0610839E-5,0.0,0.0
281.311,519.9525,14031948,0.975,0.08510638,980.3964,-153.71245,-0.07106775,0.14778566,0.06467819,1.0610839E-5,0.0,0.0
303.52887,510.91504,14031965,0.9875,0.12765957,1423.1566,-527.3851,-0.07106775,0.14778566,0.06467819,1.0610839E-5,0.0,0.0
326.14774,495.89648,14031981,1.0625,0.10638297,1695.6858,-960.0849,-0.07106775,0.14778566,0.06467819,0.0,0.0,0.0
341.80618,474.6006,14031998,1.1,0.11702127,1519.7277,-1442.5027,-0.07106775,0.14778566,0.06467819,0.0,0.0,0.0
353.77594,455.1726,14032015,1.0625,0.11702127,1025.8728,-1652.8992,-0.07106775,0.14778566,0.06467819,0.0,0.0,0.0
366.0655,426.46033,14032031,1.0500001,0.12765957,604.38324,-1763.682,-0.07106775,0.14778566,0.06467819,0.0,0.0,0.0
372.83157,405.9961,14032048,1.0625,0.12765957,333.77292,-1712.8229,-0.07106775,0.14778566,0.06467819,4.7453127E-6,-4.7453127E-6,0.0
374.56387,396.07825,14032065,1.075,0.11702127,136.85602,-1141.0763,-0.07106775,0.14778566,0.06467819,4.7453127E-6,-4.7453127E-6,0.0
375.35565,386.74695,14032082,1.1,0.11702127,-86.20183,-564.607,-0.07106775,0.14778566,0.06467819,4.7453127E-6,-4.7453127E-6,0.0
375.05737,379.4536,14032098,1.1125001,0.12765957,-248.29187,-107.24613,-0.07106775,0.14778566,0.06467819,4.7453127E-6,-4.7453127E-6,0.0
374.02625,376.90405,14032115,1.1625,0.12765957,-260.0246,87.76516,0.039145768,0.022228718,-0.14825726,-7.2283285E-5,-2.8913317E-5,0.0
372.97537,376.60168,14032132,1.275,0.12765957,-165.89423,107.73625,0.039145768,0.022228718,-0.14825726,-7.2283285E-5,-2.8913317E-5,0.0
370.1978,381.1765,14032149,1.3625001,0.12765957,-156.17632,297.2784,0.039145768,0.022228718,-0.14825726,-7.2283285E-5,-2.8913317E-5,0.0
365.53394,390.5066,14032165,1.25,0.12765957,-248.31606,627.18195,0.039145768,0.022228718,-0.14825726,-7.2283285E-5,-2.8913317E-5,0.0
361.86447,401.4662,14032182,1.0375,0.12765957,-310.9154,837.9957,0.039145768,0.022228718,-0.14825726,-3.183252E-5,0.0,0.0
358.729,423.01074,14032199,0.8875,0.08510638,-294.70758,1204.6578,0.039145768,0.022228718,-0.14825726,-3.183252E-5,0.0,0.0
356.16754,442.30103,14032215,0.8875,0.12765957,-213.58372,1463.9198,0.039145768,0.022228718,-0.14825726,-3.183252E-5,0.0,0.0
356.9861,462.33264,14032232,0.8875,0.10638297,-42.478962,1538.2136,0.039145768,0.022228718,-0.14825726,-3.183252E-5,0.0,0.0
358.7185,476.87756,14032249,0.875,0.08510638,113.91718,1314.0842,0.039145768,0.022228718,-0.14825726,2.9895417E-4,3.321713E-5,0.0
363.6506,486.94202,14032266,0.875,0.09574468,294.4881,854.5971,0.039145768,0.022228718,-0.14825726,2.9895417E-4,3.321713E-5,0.0
371.89227,494.63403,14032282,0.9375,0.12765957,503.4364,355.4985,0.039145768,0.022228718,-0.14825726,2.9895417E-4,3.321713E-5,0.0
383.8951,500.1836,14032299,0.975,0.10638297,746.7356,142.96844,0.039145768,0.022228718,-0.14825726,2.9895417E-4,3.321713E-5,0.0
399.2993,501.3308,14032316,1.0125,0.10638297,1007.4769,10.439215,0.039145768,0.022228718,-0.14825726,1.3531157E-4,1.9330222E-5,0.0
419.46802,493.9602,14032332,1.025,0.12765957,1250.5736,-322.82715,0.039145768,0.022228718,-0.14825726,1.3531157E-4,1.9330222E-5,0.0
441.1694,478.15076,14032349,1.0625,0.11702127,1500.1377,-895.1384,0.039145768,0.022228718,-0.14825726,1.3531157E-4,1.9330222E-5,0.0
459.73907,459.91284,14032366,1.0875,0.12765957,1465.1112,-1418.1542,0.039145768,0.022228718,-0.14825726,1.3531157E-4,1.9330222E-5,0.0
474.0822,441.94873,14032382,1.0625,0.12765957,1201.1771,-1580.7806,0.039145768,0.022228718,-0.14825726,-7.258929E-5,0.0,0.0
498.7724,398.00537,14032399,1.025,0.12765957,1075.958,-2031.1881,0.039145768,0.022228718,-0.14825726,-7.258929E-5,0.0,0.0
519.1697,352.27673,14032416,1.025,0.12765957,1203.8557,-2860.8206,0.039145768,0.022228718,-0.14825726,-7.258929E-5,0.0,0.0
538.1847,307.8518,14032433,1.0625,0.14893617,1295.8318,-3333.9355,0.039145768,0.022228718,-0.14825726,-7.258929E-5,0.0,0.0
546.91614,278.67346,14032449,1.075,0.12765957,999.29193,-3028.687,0.039145768,0.022228718,-0.14825726,-2.277747E-4,-5.6943674E-5,0.0
554.13245,241.83704,14032466,1.1125001,0.10638297,489.08243,-2398.1196,0.039145768,0.022228718,-0.14825726,-2.277747E-4,-5.6943674E-5,0.0
555.93536,223.24634,14032483,1.1125001,0.10638297,-53.148556,-1334.1245,0.039145768,0.022228718,-0.14825726,-2.277747E-4,-5.6943674E-5,0.0
556.0936,200.81592,14032499,1.1375,0.11702127,-268.38077,-909.5124,0.039145768,0.022228718,-0.14825726,-2.277747E-4,-5.6943674E-5,0.0
554.2649,192.15063,14032516,1.1375,0.10638297,-330.59238,-477.73077,0.039145768,0.022228718,-0.14825726,-4.6129706E-5,-1.15324265E-5,0.0
551.6364,189.49988,14032533,1.1875,0.12765957,-330.71295,34.639668,0.039145768,0.022228718,-0.14825726,-4.6129706E-5,-1.15324265E-5,0.0
546.5663,188.85522,14032550,1.2375001,0.14893617,-352.21274,289.73694,0.039145768,0.022228718,-0.14825726,-4.6129706E-5,-1.15324265E-5,0.0
540.8864,191.71777,14032566,1.2375001,0.12765957,-405.8536,559.5925,0.039145768,0.022228718,-0.14825726,-4.6129706E-5,-1.15324265E-5,0.0
534.64166,199.43738,14032583,1.1625,0.12765957,-444.1189,594.83765,0.039145768,0.022228718,-0.14825726,8.55473E-5,-1.710946E-5,0.0
525.6177,214.34167,14032600,1.0500001,0.10638297,-522.2406,818.67303,0.039145768,0.022228718,-0.14825726,8.55473E-5,-1.710946E-5,0.0
515.9004,231.51953,14032616,0.9375,0.12765957,-624.71265,1209.9072,0.039145768,0.022228718,-0.14825726,8.55473E-5,-1.710946E-5,0.0
505.43793,258.70972,14032633,0.925,0.08510638,-708.1405,1657.2959,0.039145768,0.022228718,-0.14825726,8.55473E-5,-1.710946E-5,0.0
496.98615,286.96265,14032650,0.8875,0.12765957,-668.189,1977.3866,0.15131658,-0.006217003,-0.0066051483,4.0974712E-4,0.0,0.0
491.36176,321.41162,14032666,0.9125,0.09574468,-479.61835,2186.0605,0.15131658,-0.006217003,-0.0066051483,4.0974712E-4,0.0,0.0
484.96063,356.22168,14032683,0.8875,0.11702127,-320.44632,2335.4043,0.15131658,-0.006217003,-0.0066051483,4.0974712E-4,0.0,0.0
479.07928,390.76514,14032700,0.875,0.11702127,-270.02893,2421.9658,0.15131658,-0.006217003,-0.0066051483,4.0974712E-4,0.0,0.0
471.85785,429.3258,14032717,0.90000004,0.09574468,-324.4529,2498.9055,0.15131658,-0.006217003,-0.0066051483,6.7523867E-4,5.194144E-5,0.0
462.5119,466.46094,14032733,0.925,0.10638297,-491.33917,2437.0022,0.15131658,-0.006217003,-0.0066051483,6.7523867E-4,5.194144E-5,0.0
454.41046,494.48645,14032750,0.925,0.10638297,-572.6507,2043.8123,0.15131658,-0.006217003,-0.0066051483,6.7523867E-4,5.194144E-5,0.0
447.93958,514.82605,14032767,0.925,0.10638297,-521.5093,1384.8534,0.15131658,-0.006217003,-0.0066051483,6.7523867E-4,5.194144E-5,0.0
443.33188,527.42883,14032783,0.95,0.08510638,-357.32062,686.9856,0.15131658,-0.006217003,-0.0066051483,8.659371E-5,-2.8864572E-5,0.0
440.48727,533.5952,14032800,0.975,0.08510638,-157.34161,110.65745,0.15131658,-0.006217003,-0.0066051483,8.659371E-5,-2.8864572E-5,0.0
439.36356,534.7554,14032817,1.0500001,0.08510638,-7.5473356,-287.55942,0.15131658,-0.006217003,-0.0066051483,8.659371E-5,-2.8864572E-5,0.0
438.36975,533.9282,14032834,1.225,0.10638297,48.224922,-425.56512,0.15131658,-0.006217003,-0.0066051483,8.659371E-5,-2.8864572E-5,0.0
439.3546,525.7648,14032850,1.3875,0.12765957,94.77169,-608.58026,0.15131658,-0.006217003,-0.0066051483,-3.082166E-4,-3.0821662E-5,0.0
443.6633,510.3352,14032867,1.25,0.10638297,222.24947,-949.207,0.15131658,-0.006217003,-0.0066051483,-3.082166E-4,-3.0821662E-5,0.0
447.32776,492.79138,14032884,1.1,0.09574468,314.02188,-1287.4672,0.15131658,-0.006217003,-0.0066051483,-3.082166E-4,-3.0821662E-5,0.0
454.68066,472.51343,14032900,1.025,0.11702127,441.44373,-1504.3917,0.15131658,-0.006217003,-0.0066051483,-3.082166E-4,-3.0821662E-5,0.0
465.42084,458.88306,14032917,1.0125,0.12765957,591.20795,-1334.2999,0.15131658,-0.006217003,-0.0066051483,-2.6094858E-4,6.5237145E-5,0.0
484.86774,439.87463,14032934,1.0125,0.12765957,988.9518,-1189.057,0.15131658,-0.006217003,-0.0066051483,-2.6094858E-4,6.5237145E-5,0.0
502.748,423.307,14032951,1.025,0.11702127,1397.2278,-1068.1521,0.15131658,-0.006217003,-0.0066051483,-2.6094858E-4,6.5237145E-5,0.0
517.62573,412.54688,14032967,1.025,0.12765957,1367.2651,-878.12604,0.15131658,-0.006217003,-0.0066051483,-2.6094858E-4,6.5237145E-5,0.0
528.4794,407.9613,14032984,1.0500001,0.14893617,963.96844,-453.21167,0.15131658,-0.006217003,-0.0066051483,-9.6026495E-5,3.2008833E-5,0.0
533.432,406.8108,14033001,1.1,0.14893617,355.48126,99.106346,0.15131658,-0.006217003,-0.0066051483,-9.6026495E-5,3.2008833E-5,0.0
534.8038,406.8108,14033017,1.2,0.14893617,-22.747545,323.61926,0.15131658,-0.006217003,-0.0066051483,-9.6026495E-5,3.2008833E-5,0.0
534.8038,409.35693,14033034,1.4,0.14893617,-253.62358,365.1357,0.15131658,-0.006217003,-0.0066051483,-9.6026495E-5,3.2008833E-5,0.0
531.7814,419.32263,14033051,1.3125,0.12765957,-355.6712,523.739,0.15131658,-0.006217003,-0.0066051483,6.89229E-4,-4.3076812E-5,0.0
525.4406,431.45117,14033067,1.1,0.12765957,-463.57278,811.3181,0.15131658,-0.006217003,-0.0066051483,6.89229E-4,-4.3076812E-5,0.0
517.9751,438.73193,14033084,0.96250004,0.10638297,-551.0171,859.48627,0.15131658,-0.006217003,-0.0066051483,6.89229E-4,-4.3076812E-5,0.0
505.14514,452.0769,14033101,0.95,0.12765957,-764.8533,868.4257,0.15131658,-0.006217003,-0.0066051483,6.89229E-4,-4.3076812E-5,0.0
496.00262,463.1582,14033118,1.0125,0.11702127,-825.13367,763.2509,0.15131658,-0.006217003,-0.0066051483,3.0349547E-4,-6.744344E-5,0.0
491.05487,469.47363,14033134,0.9875,0.09574468,-639.3594,572.25745,0.15131658,-0.006217003,-0.0066051483,3.0349547E-4,-6.744344E-5,0.0
488.3189,477.88123,14033151,0.9375,0.09574468,-278.51157,497.24286,0.15131658,-0.006217003,-0.0066051483,3.0349547E-4,-6.744344E-5,0.0
489.67786,484.36987,14033168,0.8625,0.08510638,117.55517,325.3544,0.15131658,-0.006217003,-0.0066051483,3.0349547E-4,-6.744344E-5,0.0
493.95618,490.00952,14033184,0.825,0.08510638,356.38535,280.70563,-0.4309467,0.28302646,-0.18928432,-4.1504525E-5,1.0376131E-5,0.0
507.47314,498.23694,14033201,0.83750004,0.10638297,715.09827,352.21323,-0.4309467,0.28302646,-0.18928432,-4.1504525E-5,1.0376131E-5,0.0
536.24695,502.57764,14033218,0.875,0.12765957,1426.5148,341.37555,-0.4309467,0.28302646,-0.18928432,-4.1504525E-5,1.0376131E-5,0.0
563.27026,498.23438,14033235,0.925,0.08510638,2065.3865,80.36688,-0.4309467,0.28302646,-0.18928432,-4.1504525E-5,1.0376131E-5,0.0
602.5311,482.68933,14033251,0.95,0.12765957,2637.352,-599.07214,-0.4309467,0.28302646,-0.18928432,-8.019528E-4,0.0,0.0
632.4472,467.7976,14033268,0.9875,0.14893617,2569.0925,-1254.1891,-0.4309467,0.28302646,-0.18928432,-8.019528E-4,0.0,0.0
658.53656,456.00146,14033285,1.0,0.08510638,2082.7463,-1356.7411,-0.4309467,0.28302646,-0.18928432,-8.019528E-4,0.0,0.0
678.819,444.74792,14033301,0.975,0.12765957,1417.2255,-1030.0297,-0.4309467,0.28302646,-0.18928432,-8.019528E-4,0.0,0.0
694.87134,433.83032,14033318,0.96250004,0.12765957,868.4568,-670.1082,-0.4309467,0.28302646,-0.18928432,-4.5017958E-5,9.0035915E-5,0.0
703.8736,423.66467,14033335,0.96250004,0.12765957,413.10953,-518.4318,-0.4309467,0.28302646,-0.18928432,-4.5017958E-5,9.0035915E-5,0.0
705.9637,418.9889,14033352,1.025,0.12765957,66.01165,-412.85333,-0.4309467,0.28302646,-0.18928432,-4.5017958E-5,9.0035915E-5,0.0
705.4987,415.25256,14033368,1.1375,0.12765957,-258.42004,-224.43887,-0.4309467,0.28302646,-0.18928432,-4.5017958E-5,9.0035915E-5,0.0
700.6476,415.32117,14033385,1.125,0.12765957,-531.23785,49.9869,-0.4309467,0.28302646,-0.18928432,6.7761015E-5,-2.7104408E-5,0.0
687.4798,420.70447,14033402,1.025,0.10638297,-822.90814,331.24286,-0.4309467,0.28302646,-0.18928432,6.7761015E-5,-2.7104408E-5,0.0
669.57153,430.7367,14033418,0.96250004,0.09574468,-1192.3005,635.26166,-0.4309467,0.28302646,-0.18928432,6.7761015E-5,-2.7104408E-5,0.0
648.3925,444.12756,14033435,0.975,0.12765957,-1527.2067,950.986,-0.4309467,0.28302646,-0.18928432,6.7761015E-5,-2.7104408E-5,0.0
630.6673,456.71362,14033452,1.0,0.10638297,-1583.1538,1084.9263,-0.4309467,0.28302646,-0.18928432,-6.6009285E-5,-1.1001546E-4,0.0
618.92914,468.81604,14033468,0.9875,0.09574468,-1219.0919,1017.5527,-0.4309467,0.28302646,-0.18928432,-6.6009285E-5,-1.1001546E-4,0.0
610.53375,483.75513,14033485,0.95,0.10638297,-619.20856,894.61475,-0.4309467,0.28302646,-0.18928432,-6.6009285E-5,-1.1001546E-4,0.0
607.65985,494.4182,14033502,0.925,0.12765957,-135.99606,797.5269,-0.4309467,0.28302646,-0.18928432,-6.6009285E-5,-1.1001546E-4,0.0
607.78,502.64124,14033519,0.8875,0.10638297,199.07942,621.7528,-0.4309467,0.28302646,-0.18928432,2.0341235E-4,4.068247E-5,0.0
611.2181,510.0293,14033535,0.8625,0.10638297,380.17136,440.5645,-0.4309467,0.28302646,-0.18928432,2.0341235E-4,4.068247E-5,0.0
614.4715,513.15906,14033552,0.8625,0.09574468,446.3101,196.86462,-0.4309467,0.28302646,-0.18928432,2.0341235E-4,4.068247E-5,0.0
621.95325,517.7593,14033569,0.8625,0.09574468,519.84045,79.72938,-0.4309467,0.28302646,-0.18928432,2.0341235E-4,4.068247E-5,0.0
634.9825,519.2101,14033585,0.8875,0.12765957,697.82196,78.59749,-0.4309467,0.28302646,-0.18928432,-1.4656763E-4,0.0,0.0
653.5391,514.01416,14033602,0.9375,0.10638297,1112.9052,-172.79228,-0.4309467,0.28302646,-0.18928432,-1.4656763E-4,0.0,0.0
670.2699,504.20508,14033619,0.96250004,0.08510638,1359.7823,-546.949,-0.4309467,0.28302646,-0.18928432,-1.4656763E-4,0.0,0.0
683.91327,490.28735,14033636,1.0500001,0.12765957,1250.015,-988.65314,-0.4309467,0.28302646,-0.18928432,-1.4656763E-4,0.0,0.0
692.06323,477.3391,14033652,1.0625,0.14893617,761.83575,-1135.6813,-0.4309467,0.28302646,-0.18928432,-1.825552E-4,0.0,0.0
698.0436,463.33838,14033669,1.0625,0.14893617,308.14282,-1077.3701,-0.4309467,0.28302646,-0.18928432,-1.825552E-4,0.0,0.0
700.7386,453.95105,14033686,1.0500001,0.12765957,24.141233,-857.5099,-0.4309467,0.28302646,-0.18928432,-1.825552E-4,0.0,0.0
700.74976,447.63538,14033703,1.025,0.11702127,-138.4946,-498.43008,-0.4309467,0.28302646,-0.18928432,-1.825552E-4,0.0,0.0
700.17206,444.87817,14033719,1.0875,0.11702127,-199.0844,-185.2954,0.22324264,-0.26157892,-0.26342678,-7.258917E-5,-2.5406212E-4,0.0
699.1389,443.04163,14033736,1.1375,0.11702127,-218.56854,52.406906,0.22324264,-0.26157892,-0.26342678,-7.258917E-5,-2.5406212E-4,0.0
698.1434,443.2395,14033753,1.2625,0.12765957,-178.12206,166.7528,0.22324264,-0.26157892,-0.26342678,-7.258917E-5,-2.5406212E-4,0.0
695.7567,448.11206,14033769,1.2875,0.14893617,-152.46204,277.28027,0.22324264,-0.26157892,-0.26342678,-7.258917E-5,-2.5406212E-4,0.0
693.18524,455.02795,14033786,1.1375,0.12765957,-165.82251,451.54324,0.22324264,-0.26157892,-0.26342678,-1.1870682E-4,0.0,0.0
691.22424,466.96277,14033803,0.9375,0.10638297,-179.12581,748.38324,0.22324264,-0.26157892,-0.26342678,-1.1870682E-4,0.0,0.0
690.2532,481.3457,14033820,0.825,0.08510638,-134.58807,1008.5976,0.22324264,-0.26157892,-0.26342678,-1.1870682E-4,0.0,0.0
691.405,493.4983,14033836,0.83750004,0.11702127,2.8210256,1038.4841,0.22324264,-0.26157892,-0.26342678,-1.1870682E-4,0.0,0.0
694.62445,503.1527,14033853,0.83750004,0.12765957,174.70802,832.648,0.22324264,-0.26157892,-0.26342678,0.0010722412,7.658866E-5,0.0
699.6068,508.4989,14033870,0.875,0.12765957,330.199,476.49734,0.22324264,-0.26157892,-0.26342678,0.0010722412,7.658866E-5,0.0
708.82214,511.58557,14033886,0.90000004,0.10638297,510.7626,152.93742,0.22324264,-0.26157892,-0.26342678,0.0010722412,7.658866E-5,0.0
722.381,510.74683,14033903,0.95,0.08510638,804.22864,-119.06946,0.22324264,-0.26157892,-0.26342678,0.0010722412,7.658866E-5,0.0
739.7099,506.06396,14033920,0.975,0.12765957,1102.2036,-349.90768,0.22324264,-0.26157892,-0.26342678,7.434677E-4,8.746679E-5,0.0
760.6392,492.91052,14033937,1.025,0.10638297,1412.8667,-722.2692,0.22324264,-0.26157892,-0.26342678,7.434677E-4,8.746679E-5,0.0
775.9789,474.77673,14033953,1.0500001,0.11702127,1378.4858,-1152.1465,0.22324264,-0.26157892,-0.26342678,7.434677E-4,8.746679E-5,0.0
787.82605,456.68298,14033970,0.96250004,0.10638297,1041.6088,-1432.7902,0.22324264,-0.26157892,-0.26342678,7.434677E-4,8.746679E-5,0.0
806.25946,421.6765,14033987,0.95,0.12765957,866.6894,-1873.2548,0.22324264,-0.26157892,-0.26342678,-9.68529E-4,0.0,0.0
817.36725,390.65332,14034003,0.96250004,0.09574468,734.12885,-2295.2593,0.22324264,-0.26157892,-0.26342678,-9.68529E-4,0.0,0.0
827.6414,354.93225,14034020,0.96250004,0.11702127,696.6271,-2494.8428,0.22324264,-0.26157892,-0.26342678,-9.68529E-4,0.0,0.0
833.5696,330.1194,14034037,0.96250004,0.08510638,430.2018,-2174.4778,0.22324264,-0.26157892,-0.26342678,-9.68529E-4,0.0,0.0
838.9353,302.10583,14034054,0.975,0.12765957,143.79836,-1616.9365,0.22324264,-0.26157892,-0.26342678,-6.266198E-4,-3.7597187E-4,0.0
843.16504,281.2578,14034070,0.925,0.08510638,66.23286,-1234.8849,0.22324264,-0.26157892,-0.26342678,-6.266198E-4,-3.7597187E-4,0.0
847.3722,261.07776,14034087,0.9375,0.12765957,121.72483,-1043.3822,0.22324264,-0.26157892,-0.26342678,-6.266198E-4,-3.7597187E-4,0.0
850.12286,244.70166,14034104,0.9375,0.12765957,129.227,-871.4088,0.22324264,-0.26157892,-0.26342678,-6.266198E-4,-3.7597187E-4,0.0
850.2011,238.84753,14034120,1.0,0.12765957,52.10739,-512.7431,0.22324264,-0.26157892,-0.26342678,-8.5941196E-5,0.0,0.0
850.2011,236.97144,14034137,1.0875,0.12765957,-49.517452,-34.030334,0.22324264,-0.26157892,-0.26342678,-8.5941196E-5,0.0,0.0
849.6275,237.10669,14034154,1.15,0.12765957,-114.13929,279.4126,0.22324264,-0.26157892,-0.26342678,-8.5941196E-5,0.0,0.0
847.93066,238.23608,14034170,1.2625,0.12765957,-147.45297,434.32742,0.22324264,-0.26157892,-0.26342678,-8.5941196E-5,0.0,0.0
844.0679,249.74414,14034187,1.1625,0.12765957,-203.80034,587.6154,0.22324264,-0.26157892,-0.26342678,1.3921031E-4,0.0,0.0
840.8468,264.2074,14034204,0.96250004,0.09574468,-266.81027,901.06445,0.22324264,-0.26157892,-0.26342678,1.3921031E-4,0.0,0.0
837.2248,284.2506,14034221,0.825,0.10638297,-284.17313,1334.7131,0.22324264,-0.26157892,-0.26342678,1.3921031E-4,0.0,0.0
833.026,312.8612,14034237,0.85,0.08510638,-279.52005,1813.9286,0.22324264,-0.26157892,-0.26342678,1.3921031E-4,0.0,0.0
830.5661,343.64124,14034254,0.83750004,0.10638297,-217.1589,2127.2893,-0.037405908,0.06273675,0.12525845,5.016974E-4,-2.508487E-4,0.0
830.74194,371.76135,14034271,0.8625,0.08510638,-86.67798,2102.483,-0.037405908,0.06273675,0.12525845,5.016974E-4,-2.508487E-4,0.0
832.4378,406.0614,14034287,0.85,0.10638297,93.31187,2106.0508,-0.037405908,0.06273675,0.12525845,5.016974E-4,-2.508487E-4,0.0
836.21765,433.0963,14034304,0.83750004,0.08510638,270.06216,1853.2335,-0.037405908,0.06273675,0.12525845,5.016974E-4,-2.508487E-4,0.0
841.5624,461.2693,14034321,0.825,0.10638297,392.95056,1786.2721,-0.037405908,0.06273675,0.12525845,7.01108E-4,-1.00158286E-4,0.0
846.2997,480.01404,14034338,0.7875,0.08510638,421.82437,1414.1554,-0.037405908,0.06273675,0.12525845,7.01108E-4,-1.00158286E-4,0.0
851.46436,493.6516,14034354,0.75,0.12765957,398.06912,875.3973,-0.037405908,0.06273675,0.12525845,7.01108E-4,-1.00158286E-4,0.0
857.8006,506.50452,14034371,0.71250004,0.12765957,396.36142,537.8478,-0.037405908,0.06273675,0.12525845,7.01108E-4,-1.00158286E-4,0.0
862.1972,512.5427,14034386,0.375,0.12765957,372.3491,301.92838,-0.037405908,0.06273675,0.12525845,-3.7946002E-4,-2.168343E-4,0.0
862.1972,512.5427,14034393,0.375,0.12765957,372.3491,301.92838,-0.037405908,0.06273675,0.12525845,-3.7946002E-4,-2.168343E-4,0.0
765.7286,365.9397,14034570,1.25,0.12765957,0.0,0.0,-0.037405908,0.06273675,0.12525845,2.5078375E-4,3.5826248E-5,0.0
765.7286,365.9397,14034588,1.325,0.14893617,0.465376,0.22211319,-0.037405908,0.06273675,0.12525845,2.55454E-4,8.515133E-5,0.0
765.7286,365.9397,14034605,1.25,0.12765957,-0.08634476,-0.0417479,-0.037405908,0.06273675,0.12525845,2.55454E-4,8.515133E-5,0.0
765.7286,365.9397,14034622,0.975,0.10638297,-0.0015450782,2.9352587E-4,-0.037405908,0.06273675,0.12525845,2.55454E-4,8.515133E-5,0.0
800.65283,367.21997,14034638,0.925,0.12765957,1521.9442,55.622005,-0.037405908,0.06273675,0.12525845,2.55454E-4,8.515133E-5,0.0
832.73755,369.92236,14034655,0.8875,0.08510638,2398.9211,136.4204,-0.037405908,0.06273675,0.12525845,-3.6660893E-4,4.0734324E-4,0.0
874.9462,369.85596,14034672,0.77500004,0.12765957,3127.4448,135.26895,-0.037405908,0.06273675,0.12525845,-3.6660893E-4,4.0734324E-4,0.0
908.1822,365.05115,14034683,0.425,0.13829787,3427.2742,9.87827,-0.037405908,0.06273675,0.12525845,-3.6660893E-4,4.0734324E-4,0.0
908.1822,365.05115,14034690,0.425,0.13829787,3427.2742,9.87827,-0.037405908,0.06273675,0.12525845,-3.6660893E-4,4.0734324E-4,0.0
931.17474,398.81433,14034836,1.1,0.12765957,0.0,0.0,0.3700753,-0.23781073,0.39620686,-0.0015449466,-2.3174199E-4,0.0
931.17474,398.81433,14034856,1.0875,0.12765957,0.10495309,0.03920898,0.3700753,-0.23781073,0.39620686,2.1401282E-4,0.0,0.0
931.17474,398.81433,14034872,0.95,0.12765957,-0.008900176,-0.0049189236,0.3700753,-0.23781073,0.39620686,2.1401282E-4,0.0,0.0
921.7711,409.59863,14034889,0.8625,0.11702127,-393.37115,451.1162,0.3700753,-0.23781073,0.39620686,2.1401282E-4,0.0,0.0
906.9275,427.97644,14034906,0.83750004,0.08510638,-1100.6791,1305.0482,0.3700753,-0.23781073,0.39620686,2.1401282E-4,0.0,0.0
897.41943,449.73425,14034922,0.8125,0.10638297,-1106.0773,1632.9489,0.3700753,-0.23781073,0.39620686,1.1545829E-4,-8.659372E-5,0.0
895.18646,466.76514,14034939,0.8,0.08510638,-713.0121,1678.9521,0.3700753,-0.23781073,0.39620686,1.1545829E-4,-8.659372E-5,0.0
898.035,481.79858,14034956,0.77500004,0.08510638,-67.63116,1346.3501,0.3700753,-0.23781073,0.39620686,1.1545829E-4,-8.659372E-5,0.0
904.20056,496.5901,14034973,0.7375,0.12765957,615.44916,852.86743,0.3700753,-0.23781073,0.39620686,1.1545829E-4,-8.659372E-5,0.0
912.6484,507.74048,14034989,0.75,0.11702127,755.9863,686.80426,0.3700753,-0.23781073,0.39620686,7.622082E-5,7.622082E-5,0.0
925.69135,518.6251,14035006,0.7875,0.09574468,927.31116,544.00555,0.3700753,-0.23781073,0.39620686,7.622082E-5,7.622082E-5,0.0
937.05206,522.76184,14035023,0.825,0.08510638,942.10516,363.99817,0.3700753,-0.23781073,0.39620686,7.622082E-5,7.622082E-5,0.0
948.7626,521.97815,14035039,0.8625,0.10638297,891.1126,15.115074,0.3700753,-0.23781073,0.39620686,7.622082E-5,7.622082E-5,0.0
965.5437,513.161,14035056,0.8875,0.12765957,935.63885,-466.08292,0.3700753,-0.23781073,0.39620686,-8.1313025E-5,-4.0656512E-5,0.0
978.19495,502.08862,14035073,0.975,0.10638297,923.4864,-951.7357,0.3700753,-0.23781073,0.39620686,-8.1313025E-5,-4.0656512E-5,0.0
984.6764,483.58203,14035090,1.0,0.12765957,700.02155,-1199.9307,0.3700753,-0.23781073,0.39620686,-8.1313025E-5,-4.0656512E-5,0.0
986.3474,464.05896,14035106,0.95,0.12765957,273.3498,-1505.8955,0.3700753,-0.23781073,0.39620686,-8.1313025E-5,-4.0656512E-5,0.0
984.1312,449.64636,14035123,0.96250004,0.11702127,-263.4366,-1384.8856,0.3700753,-0.23781073,0.39620686,-3.048833E-4,3.811041E-5,0.0
980.6102,437.3352,14035140,0.975,0.09574468,-521.5741,-1032.1002,0.3700753,-0.23781073,0.39620686,-3.048833E-4,3.811041E-5,0.0
975.5343,427.7782,14035156,1.0125,0.12765957,-540.14355,-618.8933,0.3700753,-0.23781073,0.39620686,-3.048833E-4,3.811041E-5,0.0
968.4291,419.5204,14035173,1.0500001,0.12765957,-555.9165,-272.5316,0.3700753,-0.23781073,0.39620686,-3.048833E-4,3.811041E-5,0.0
961.1338,413.89514,14035190,1.0625,0.10638297,-530.1681,-266.4369,0.3700753,-0.23781073,0.39620686,2.360763E-5,-3.5411445E-5,0.0
955.98004,411.17053,14035206,1.0875,0.10638297,-478.09677,-127.82754,0.3700753,-0.23781073,0.39620686,2.360763E-5,-3.5411445E-5,0.0
952.9258,411.25342,14035223,1.1,0.10638297,-316.0738,47.879456,0.3700753,-0.23781073,0.39620686,2.360763E-5,-3.5411445E-5,0.0
952.04376,412.36243,14035240,1.125,0.10638297,-91.77785,182.71657,0.3700753,-0.23781073,0.39620686,2.360763E-5,-3.5411445E-5,0.0
951.668,414.3556,14035257,1.1750001,0.12765957,69.05719,260.64487,0.3700753,-0.23781073,0.39620686,2.746067E-4,1.9614762E-4,0.0
952.89557,414.80737,14035273,1.1375,0.12765957,153.49977,221.39624,0.3700753,-0.23781073,0.39620686,2.746067E-4,1.9614762E-4,0.0
958.5249,416.9973,14035290,0.95,0.10638297,260.58585,129.46603,0.3700753,-0.23781073,0.39620686,2.746067E-4,1.9614762E-4,0.0
978.4188,418.7694,14035307,0.8625,0.12765957,787.7468,129.10074,0.3700753,-0.23781073,0.39620686,2.746067E-4,1.9614762E-4,0.0
1000.8157,414.92395,14035323,0.85,0.08510638,1518.9923,-31.600014,-0.6399398,0.32975125,-0.28303432,5.297543E-4,9.631896E-5,0.0
1033.1072,406.13672,14035340,0.8625,0.14893617,2201.4883,-388.437,-0.6399398,0.32975125,-0.28303432,5.297543E-4,9.631896E-5,0.0
1057.4973,395.68347,14035357,0.8625,0.10638297,2262.9148,-732.698,-0.6399398,0.32975125,-0.28303432,5.297543E-4,9.631896E-5,0.0
1084.6731,381.8651,14035374,0.8625,0.12765957,1896.8413,-1020.1755,-0.6399398,0.32975125,-0.28303432,5.297543E-4,9.631896E-5,0.0
1100.2607,368.92407,14035390,0.875,0.10638297,1380.3243,-1046.0239,-0.6399398,0.32975125,-0.28303432,-3.2899843E-4,-1.0966615E-4,0.0
1108.701,360.97815,14035407,0.875,0.10638297,674.37714,-821.6236,-0.6399398,0.32975125,-0.28303432,-3.2899843E-4,-1.0966615E-4,0.0
1114.9147,354.06958,14035424,0.875,0.12765957,114.11679,-507.4759,-0.6399398,0.32975125,-0.28303432,-3.2899843E-4,-1.0966615E-4,0.0
1116.7056,349.62256,14035440,0.8875,0.12765957,-194.01776,-227.35408,-0.6399398,0.32975125,-0.28303432,-3.2899843E-4,-1.0966615E-4,0.0
1116.6144,347.94458,14035457,0.975,0.10638297,-307.44522,-24.797607,-0.6399398,0.32975125,-0.28303432,-2.6780492E-4,0.0,0.0
1115.929,346.06274,14035474,1.1,0.10638297,-261.91107,45.158993,-0.6399398,0.32975125,-0.28303432,-2.6780492E-4,0.0,0.0
1114.2462,346.39258,14035491,1.125,0.11702127,-254.32213,91.75118,-0.6399398,0.32975125,-0.28303432,-2.6780492E-4,0.0,0.0
1110.6432,349.0343,14035507,1.1,0.10638297,-266.99356,172.73141,-0.6399398,0.32975125,-0.28303432,-2.6780492E-4,0.0,0.0
1106.9995,352.32507,14035524,1.0375,0.12765957,-280.0031,244.75728,-0.6399398,0.32975125,-0.28303432,1.8378507E-5,3.6757014E-5,0.0
1104.3026,358.73828,14035541,0.975,0.09574468,-285.80884,400.2021,-0.6399398,0.32975125,-0.28303432,1.8378507E-5,3.6757014E-5,0.0
1104.1184,365.85168,14035557,0.8875,0.08510638,-146.92587,511.0014,-0.6399398,0.32975125,-0.28303432,1.8378507E-5,3.6757014E-5,0.0
1106.3247,376.44897,14035574,0.8,0.08510638,75.28113,640.6835,-0.6399398,0.32975125,-0.28303432,1.8378507E-5,3.6757014E-5,0.0
1110.2802,394.59497,14035591,0.7875,0.10638297,280.81494,907.58136,-0.6399398,0.32975125,-0.28303432,0.0,0.0,0.0
1116.9779,419.65417,14035608,0.7625,0.08510638,451.30634,1417.016,-0.6399398,0.32975125,-0.28303432,0.0,0.0,0.0
1122.7405,441.0293,14035624,0.7375,0.12765957,508.72662,1716.4885,-0.6399398,0.32975125,-0.28303432,0.0,0.0,0.0
1124.6708,465.82532,14035641,0.7625,0.08510638,377.6403,1783.427,-0.6399398,0.32975125,-0.28303432,0.0,0.0,0.0
1121.7079,481.99512,14035658,0.7875,0.08510638,43.707542,1432.4113,-0.6399398,0.32975125,-0.28303432,5.840165E-4,1.2978145E-4,0.0
1115.1724,496.68677,14035674,0.8625,0.10638297,-372.94974,947.8221,-0.6399398,0.32975125,-0.28303432,5.840165E-4,1.2978145E-4,0.0
1105.7903,504.94446,14035691,0.9125,0.12765957,-697.3557,516.6481,-0.6399398,0.32975125,-0.28303432,5.840165E-4,1.2978145E-4,0.0
1092.736,512.2311,14035708,0.9125,0.12765957,-929.79254,236.61142,-0.6399398,0.32975125,-0.28303432,5.840165E-4,1.2978145E-4,0.0
1078.9166,517.86084,14035725,0.925,0.12765957,-1032.9357,166.40697,-0.6399398,0.32975125,-0.28303432,3.183251E-5,0.0,0.0
1060.2002,523.0995,14035741,0.8125,0.10638297,-1103.0708,133.28482,-0.6399398,0.32975125,-0.28303432,3.183251E-5,0.0,0.0
1053.6349,524.9818,14035745,0.58750004,0.10638297,-1196.4441,147.94597,-0.6399398,0.32975125,-0.28303432,3.183251E-5,0.0,0.0
1053.6349,524.9818,14035753,0.58750004,0.10638297,-1196.4441,147.94597,-0.6399398,0.32975125,-0.28303432,3.183251E-5,0.0,0.0
