x,y,timestamp,pressure,fingerarea,velocityx,velocityy,accelx,accely,accelz,gyrox,gyroy,gyroz
243.39862,183.79651,98494093,1.2625,0.12765957,0.0,0.0,0.015409172,0.021484375,-0.012634277,-1.8981249E-5,0.0,0.0
243.39862,183.79651,98494112,1.25,0.12765957,-0.037555423,-0.03159541,0.015409172,0.021484375,-0.012634277,-1.8981249E-5,0.0,0.0
242.12888,193.72766,98494129,1.125,0.12765957,-92.48433,723.23236,0.015409172,0.021484375,-0.012634277,-1.8981249E-5,0.0,0.0
238.53595,223.3263,98494145,1.0625,0.09574468,-271.46414,2222.5464,0.015409172,0.021484375,-0.012634277,7.5029975E-6,0.0,0.0
234.76425,251.50244,98494162,1.0375,0.09574468,-291.3768,2326.7927,0.015409172,0.021484375,-0.012634277,7.5029975E-6,0.0,0.0
228.6146,288.86987,98494179,1.025,0.10638297,-395.07742,2735.2458,0.015409172,0.021484375,-0.012634277,7.5029975E-6,0.0,0.0
221.37128,322.72498,98494195,1.0375,0.08510638,-483.2967,2629.638,0.015409172,0.021484375,-0.012634277,7.5029975E-6,0.0,0.0
211.3357,355.61426,98494212,1.0125,0.12765957,-586.31445,2303.4834,0.012327313,-0.030812502,-0.026107788,1.710946E-5,0.0,0.0
200.81125,383.05518,98494229,1.0375,0.11702127,-712.5296,1958.743,0.012327313,-0.030812502,-0.026107788,1.710946E-5,0.0,0.0
188.30365,407.10217,98494246,1.0125,0.10638297,-799.9261,1475.1956,0.012327313,-0.030812502,-0.026107788,1.710946E-5,0.0,0.0
177.94386,420.51135,98494262,1.0375,0.08510638,-790.9154,971.9752,0.012327313,-0.030812502,-0.026107788,1.710946E-5,0.0,0.0
165.45164,434.10364,98494279,1.0875,0.12765957,-757.43054,551.3847,0.012327313,-0.030812502,-0.026107788,0.0,0.0,0.0
152.69594,442.3125,98494296,1.1750001,0.12765957,-753.32025,267.30298,0.012327313,-0.030812502,-0.026107788,0.0,0.0,0.0
139.0734,444.6671,98494312,1.1875,0.10638297,-825.7333,58.039566,0.012327313,-0.030812502,-0.026107788,0.0,0.0,0.0
126.71883,439.7063,98494329,1.1750001,0.10638297,-852.6694,-285.80185,0.012327313,-0.030812502,-0.026107788,0.0,0.0,0.0
116.63193,430.9027,98494346,1.1375,0.12765957,-725.71716,-748.20557,0.012327313,-0.030812502,-0.026107788,-5.6943732E-5,1.4235933E-5,0.0
109.17166,421.69885,98494363,1.1375,0.12765957,-491.99747,-964.2298,0.012327313,-0.030812502,-0.026107788,-5.6943732E-5,1.4235933E-5,0.0
103.13794,412.48608,98494379,1.1625,0.14893617,-285.3798,-888.2119,0.012327313,-0.030812502,-0.026107788,-5.6943732E-5,1.4235933E-5,0.0
99.240585,405.5581,98494396,1.1750001,0.12765957,-162.87242,-659.7901,0.012327313,-0.030812502,-0.026107788,-5.6943732E-5,1.4235933E-5,0.0
96.50986,399.9281,98494413,1.1875,0.12765957,-72.542786,-413.9957,0.012327313,-0.030812502,-0.026107788,2.3367869E-4,0.0,0.0
95.946625,398.81433,98494429,1.275,0.12765957,9.077432,-166.23978,0.012327313,-0.030812502,-0.026107788,2.3367869E-4,0.0,0.0
95.946625,398.81433,98494442,1.375,0.14893617,76.08734,25.800785,0.012327313,-0.030812502,-0.026107788,2.3367869E-4,0.0,0.0
97.55191,399.79675,98494463,1.35,0.14893617,150.1688,198.19142,0.012327313,-0.030812502,-0.026107788,2.3367869E-4,0.0,0.0
102.24695,403.1604,98494479,1.1,0.12765957,255.35541,273.74872,0.012327313,-0.030812502,-0.026107788,-2.5465977E-4,3.183247E-5,0.0
116.56444,416.25073,98494496,1.1,0.09574468,605.71014,562.9271,0.012327313,-0.030812502,-0.026107788,-2.5465977E-4,3.183247E-5,0.0
136.5265,434.10657,98494513,1.0875,0.11702127,1156.5404,1038.5525,0.012327313,-0.030812502,-0.026107788,-2.5465977E-4,3.183247E-5,0.0
160.41441,450.4773,98494530,1.1125001,0.10638297,1647.9645,1372.354,0.012327313,-0.030812502,-0.026107788,-2.5465977E-4,3.183247E-5,0.0
187.08273,464.32617,98494546,1.125,0.12765957,1952.4532,1294.0258,0.012327313,-0.030812502,-0.026107788,-0.0,0.0,0.0
217.96515,474.7517,98494563,1.1125001,0.10638297,2025.6565,866.38196,0.012327313,-0.030812502,-0.026107788,-0.0,0.0,0.0
250.57767,475.84937,98494580,1.1125001,0.12765957,2073.888,283.05447,0.012327313,-0.030812502,-0.026107788,-0.0,0.0,0.0
287.1138,469.19824,98494596,1.1,0.11702127,2285.5737,-346.78162,0.012327313,-0.030812502,-0.026107788,-0.0,0.0,0.0
321.7794,457.36426,98494613,1.125,0.14893617,2360.1333,-931.59515,0.012327313,-0.030812502,-0.026107788,1.342177E-5,0.0,0.0
349.19992,440.20483,98494630,1.1125001,0.10638297,2108.141,-1344.0145,0.012327313,-0.030812502,-0.026107788,1.342177E-5,0.0,0.0
367.9457,422.71045,98494647,1.0500001,0.12765957,1423.5956,-1463.2286,0.012327313,-0.030812502,-0.026107788,1.342177E-5,0.0,0.0
380.30612,405.265,98494663,1.0625,0.12765957,701.81836,-1375.4526,0.012327313,-0.030812502,-0.026107788,1.342177E-5,0.0,0.0
386.85815,392.35742,98494680,1.075,0.10638297,145.07764,-1147.9806,0.012327313,-0.030812502,-0.026107788,-4.7453127E-6,0.0,0.0
388.07214,378.60522,98494697,1.1625,0.10638297,-212.0143,-834.11365,0.012327313,-0.030812502,-0.026107788,-4.7453127E-6,0.0,0.0
384.68234,372.45215,98494713,1.2125,0.12765957,-474.07065,-515.34033,0.012327313,-0.030812502,-0.026107788,-4.7453127E-6,0.0,0.0
379.77237,369.17322,98494730,1.275,0.12765957,-603.93524,-189.35077,0.012327313,-0.030812502,-0.026107788,-4.7453127E-6,0.0,0.0
373.31067,370.4093,98494747,1.3125,0.12765957,-643.69727,145.07904,-0.054138124,-0.27265,-0.0048856735,1.07426495E-4,0.0,0.0
367.88788,374.16736,98494763,1.25,0.12765957,-596.30914,400.2707,-0.054138124,-0.27265,-0.0048856735,1.07426495E-4,0.0,0.0
360.3191,380.88782,98494780,1.075,0.12765957,-514.76624,596.6556,-0.054138124,-0.27265,-0.0048856735,1.07426495E-4,0.0,0.0
343.68198,398.1438,98494797,1.0500001,0.11702127,-696.0232,861.75055,-0.054138124,-0.27265,-0.0048856735,1.07426495E-4,0.0,0.0
327.89764,425.5105,98494813,1.0125,0.10638297,-1009.1688,1424.5352,-0.054138124,-0.27265,-0.0048856735,0.0,0.0,0.0
319.2981,445.5371,98494830,1.0125,0.12765957,-1067.8152,1859.5435,-0.054138124,-0.27265,-0.0048856735,0.0,0.0,0.0
317.37454,465.04626,98494847,0.9875,0.12765957,-667.6677,1841.4481,-0.054138124,-0.27265,-0.0048856735,0.0,0.0,0.0
319.4151,479.8634,98494863,1.0,0.09574468,138.6812,1212.2461,-0.054138124,-0.27265,-0.0048856735,0.0,0.0,0.0
323.01764,488.81067,98494880,1.0500001,0.10638297,553.99335,609.7444,-0.054138124,-0.27265,-0.0048856735,0.0,0.0,0.0
330.6251,497.29492,98494897,1.1,0.10638297,670.46924,266.42307,-0.054138124,-0.27265,-0.0048856735,0.0,0.0,0.0
345.45508,504.71863,98494914,1.15,0.12765957,852.5536,214.94,-0.054138124,-0.27265,-0.0048856735,0.0,0.0,0.0
360.22473,506.68677,98494930,1.15,0.14893617,1068.5568,73.07874,-0.054138124,-0.27265,-0.0048856735,0.0,0.0,0.0
378.14984,502.63586,98494947,1.1375,0.11702127,1284.8322,-130.5718,-0.054138124,-0.27265,-0.0048856735,3.355443E-6,0.0,0.0
389.7334,492.4016,98494964,1.1,0.10638297,1135.7343,-587.39636,-0.054138124,-0.27265,-0.0048856735,3.355443E-6,0.0,0.0
397.63013,479.52832,98494980,1.0375,0.12765957,693.99493,-1031.1802,-0.054138124,-0.27265,-0.0048856735,3.355443E-6,0.0,0.0
406.18805,457.115,98494997,1.0625,0.12765957,368.323,-1416.0989,-0.054138124,-0.27265,-0.0048856735,3.355443E-6,0.0,0.0
407.34525,437.55115,98495014,1.075,0.08510638,60.2969,-1592.2487,-0.054138124,-0.27265,-0.0048856735,6.1871215E-5,0.0,0.0
404.18665,418.24756,98495031,1.0875,0.12765957,-200.40227,-1497.888,-0.054138124,-0.27265,-0.0048856735,6.1871215E-5,0.0,0.0
399.50613,404.56738,98495047,1.1125001,0.12765957,-460.71732,-1219.8464,-0.054138124,-0.27265,-0.0048856735,6.1871215E-5,0.0,0.0
395.84573,397.92004,98495064,1.1375,0.10638297,-539.65717,-616.4564,-0.054138124,-0.27265,-0.0048856735,6.1871215E-5,0.0,0.0
393.79428,394.27344,98495081,1.1875,0.10638297,-382.5085,-103.91154,-0.054138124,-0.27265,-0.0048856735,0.0,-0.0,0.0
392.27463,393.48328,98495097,1.3125,0.12765957,-150.69157,191.19423,-0.054138124,-0.27265,-0.0048856735,0.0,-0.0,0.0
391.22733,393.48328,98495114,1.4,0.12765957,-15.789082,308.37885,-0.054138124,-0.27265,-0.0048856735,0.0,-0.0,0.0
391.35046,395.59827,98495131,1.4125,0.12765957,40.02581,281.9937,-0.054138124,-0.27265,-0.0048856735,0.0,-0.0,0.0
392.26236,400.27917,98495148,1.2625,0.12765957,66.45432,310.6161,-0.054138124,-0.27265,-0.0048856735,-4.898473E-4,8.164123E-5,0.0
397.02975,414.1864,98495164,1.0375,0.09574468,194.8113,605.5532,-0.054138124,-0.27265,-0.0048856735,-4.898473E-4,8.164123E-5,0.0
405.26828,432.43945,98495181,1.0500001,0.10638297,468.06894,1171.4707,-0.054138124,-0.27265,-0.0048856735,-4.898473E-4,8.164123E-5,0.0
414.92743,446.6742,98495198,1.0500001,0.14893617,682.84375,1346.385,-0.054138124,-0.27265,-0.0048856735,-4.898473E-4,8.164123E-5,0.0
428.7513,463.22693,98495214,1.0500001,0.12765957,888.999,1265.1732,-0.054138124,-0.27265,-0.0048856735,-8.600663E-5,0.0,0.0
445.49042,475.91125,98495231,1.075,0.09574468,1058.3804,951.718,-0.054138124,-0.27265,-0.0048856735,-8.600663E-5,0.0,0.0
463.0818,481.19922,98495248,1.0625,0.12765957,1196.7998,532.9857,-0.054138124,-0.27265,-0.0048856735,-8.600663E-5,0.0,0.0
485.0807,477.07983,98495265,1.0500001,0.12765957,1378.5802,27.067747,-0.054138124,-0.27265,-0.0048856735,-8.600663E-5,0.0,0.0
504.3329,464.5503,98495282,1.025,0.11702127,1380.0927,-799.5232,0.092689514,0.14987993,-0.019908905,1.7083103E-4,0.0,0.0
524.59247,444.78967,98495298,0.9875,0.11702127,1324.0446,-1425.1606,0.092689514,0.14987993,-0.019908905,1.7083103E-4,0.0,0.0
543.37396,414.91833,98495315,0.9875,0.12765957,1207.4852,-1968.8145,0.092689514,0.14987993,-0.019908905,1.7083103E-4,0.0,0.0
572.8196,357.67944,98495332,0.9875,0.12765957,1335.4043,-2901.1147,0.092689514,0.14987993,-0.019908905,1.7083103E-4,0.0,0.0
578.9415,321.85083,98495348,0.975,0.09574468,1123.814,-3399.5374,0.092689514,0.14987993,-0.019908905,3.6294656E-5,0.0,0.0
585.8365,279.31677,98495365,1.0,0.09574468,629.7824,-3445.1785,0.092689514,0.14987993,-0.019908905,3.6294656E-5,0.0,0.0
588.2864,238.65808,98495382,1.0125,0.12765957,25.84597,-2895.6882,0.092689514,0.14987993,-0.019908905,3.6294656E-5,0.0,0.0
586.77325,208.52979,98495399,1.025,0.09574468,-434.94952,-2016.8667,0.092689514,0.14987993,-0.019908905,3.6294656E-5,0.0,0.0
582.4484,184.1311,98495415,1.0375,0.12765957,-541.9442,-1417.7332,0.092689514,0.14987993,-0.019908905,-4.7453127E-6,0.0,0.0
576.85126,168.9668,98495432,1.025,0.09574468,-560.1184,-796.2763,0.092689514,0.14987993,-0.019908905,-4.7453127E-6,0.0,0.0
572.97424,162.71619,98495449,1.075,0.08510638,-507.06155,-218.6482,0.092689514,0.14987993,-0.019908905,-4.7453127E-6,0.0,0.0
568.2949,158.91919,98495465,1.0875,0.10638297,-395.06107,220.65697,0.092689514,0.14987993,-0.019908905,-4.7453127E-6,0.0,0.0
564.68475,159.87158,98495482,1.2375001,0.12765957,-270.78436,419.6218,0.092689514,0.14987993,-0.019908905,6.710883E-5,0.0,0.0
560.4617,165.6123,98495499,1.2375001,0.12765957,-216.6689,552.4505,0.092689514,0.14987993,-0.019908905,6.710883E-5,0.0,0.0
558.17773,173.08765,98495516,1.075,0.10638297,-181.40517,682.3722,0.092689514,0.14987993,-0.019908905,6.710883E-5,0.0,0.0
556.4855,192.1101,98495532,0.95,0.10638297,-114.935265,988.75024,0.092689514,0.14987993,-0.019908905,6.710883E-5,0.0,0.0
549.78174,226.92786,98495549,0.96250004,0.12765957,-194.81467,1786.288,0.092689514,0.14987993,-0.019908905,-5.8696245E-5,0.0,0.0
545.5726,268.3971,98495566,0.96250004,0.08510638,-305.59482,2785.2004,0.092689514,0.14987993,-0.019908905,-5.8696245E-5,0.0,0.0
543.5844,314.94836,98495582,0.9375,0.10638297,-282.34247,3389.4885,0.092689514,0.14987993,-0.019908905,-5.8696245E-5,0.0,0.0
544.44525,360.02136,98495599,0.9375,0.12765957,-79.31341,3388.5618,0.092689514,0.14987993,-0.019908905,-5.8696245E-5,0.0,0.0
546.16187,403.48987,98495616,0.9375,0.12765957,187.7978,3001.7507,0.092689514,0.14987993,-0.019908905,0.0,0.0,0.0
548.0893,439.55005,98495633,0.95,0.08510638,260.68774,2606.1238,0.092689514,0.14987993,-0.019908905,0.0,0.0,0.0
549.23193,474.0874,98495649,0.96250004,0.10638297,210.9413,2062.7546,0.092689514,0.14987993,-0.019908905,0.0,0.0,0.0
549.77795,494.47473,98495666,0.975,0.10638297,99.59753,1468.4076,0.092689514,0.14987993,-0.019908905,0.0,0.0,0.0
549.7989,507.39392,98495683,0.96250004,0.12765957,8.611255,699.4562,0.092689514,0.14987993,-0.019908905,-2.7052412E-5,0.0,0.0
548.74677,514.59924,98495699,1.0125,0.12765957,-59.283474,131.52313,0.092689514,0.14987993,-0.019908905,-2.7052412E-5,0.0,0.0
548.19476,517.17114,98495716,1.15,0.12765957,-85.98746,-249.61896,0.092689514,0.14987993,-0.019908905,-2.7052412E-5,0.0,0.0
547.1576,516.9852,98495733,1.3625001,0.14893617,-90.102,-439.94492,0.092689514,0.14987993,-0.019908905,-2.7052412E-5,0.0,0.0
545.42535,512.432,98495750,1.325,0.12765957,-103.229546,-458.80536,0.092689514,0.14987993,-0.019908905,-2.337032E-4,3.338617E-5,0.0
542.53015,486.4126,98495766,1.025,0.09574468,-159.34254,-1091.5051,0.092689514,0.14987993,-0.019908905,-2.337032E-4,3.338617E-5,0.0
546.63556,456.5548,98495783,0.9875,0.12765957,-22.526823,-1982.7687,0.092689514,0.14987993,-0.019908905,-2.337032E-4,3.338617E-5,0.0
554.66425,428.66187,98495800,1.0,0.08510638,329.98465,-2432.0105,0.092689514,0.14987993,-0.019908905,-2.337032E-4,3.338617E-5,0.0
564.728,405.15112,98495816,0.975,0.12765957,732.195,-2260.283,-0.1658484,-0.26409578,7.343292E-5,1.3218888E-4,0.0,0.0
575.49396,389.82788,98495833,0.9875,0.09574468,914.0106,-1380.4198,-0.1658484,-0.26409578,7.343292E-5,1.3218888E-4,0.0,0.0
587.358,377.50183,98495850,0.975,0.11702127,881.3612,-662.7623,-0.1658484,-0.26409578,7.343292E-5,1.3218888E-4,0.0,0.0
599.39087,373.11108,98495866,1.0375,0.12765957,810.0376,-156.33197,-0.1658484,-0.26409578,7.343292E-5,1.3218888E-4,0.0,0.0
608.3612,375.7494,98495883,1.1,0.11702127,694.20056,286.6747,-0.1658484,-0.26409578,7.343292E-5,-2.3478453E-4,0.0,0.0
612.9992,380.4502,98495900,1.1,0.11702127,458.4664,559.0477,-0.1658484,-0.26409578,7.343292E-5,-2.3478453E-4,0.0,0.0
616.6493,389.14417,98495917,1.1,0.10638297,171.57079,800.04205,-0.1658484,-0.26409578,7.343292E-5,-2.3478453E-4,0.0,0.0
617.90906,398.4485,98495933,1.1,0.10638297,-32.815567,859.729,-0.1658484,-0.26409578,7.343292E-5,-2.3478453E-4,0.0,0.0
615.9224,412.57227,98495950,1.0500001,0.09574468,-185.59889,923.2732,-0.1658484,-0.26409578,7.343292E-5,-1.342177E-5,0.0,0.0
609.8101,428.45325,98495967,1.025,0.09574468,-356.03217,1058.6614,-0.1658484,-0.26409578,7.343292E-5,-1.342177E-5,0.0,0.0
603.27936,438.35498,98495983,0.9875,0.12765957,-544.8785,974.7048,-0.1658484,-0.26409578,7.343292E-5,-1.342177E-5,0.0,0.0
590.4225,452.33398,98496000,0.9875,0.12765957,-761.9262,804.0179,-0.1658484,-0.26409578,7.343292E-5,-1.342177E-5,0.0,0.0
575.9519,465.4563,98496017,1.0,0.10638297,-988.7452,740.0963,-0.1658484,-0.26409578,7.343292E-5,2.86708E-4,0.0,0.0
565.50854,472.729,98496034,1.0125,0.09574468,-992.3959,608.03406,-0.1658484,-0.26409578,7.343292E-5,2.86708E-4,0.0,0.0
559.68933,477.54138,98496050,1.0375,0.09574468,-707.13354,383.07147,-0.1658484,-0.26409578,7.343292E-5,2.86708E-4,0.0,0.0
556.9083,479.56873,98496067,1.0375,0.10638297,-245.6286,73.49252,-0.1658484,-0.26409578,7.343292E-5,2.86708E-4,0.0,0.0
555.30414,480.54407,98496084,1.0625,0.10638297,107.20579,-173.60724,-0.1658484,-0.26409578,7.343292E-5,9.782707E-5,0.0,0.0
554.54736,481.88928,98496096,1.075,0.09574468,166.80232,-137.75717,-0.1658484,-0.26409578,7.343292E-5,9.782707E-5,0.0,0.0
556.5288,482.47107,98496117,0.975,0.08510638,176.09671,-53.93475,-0.1658484,-0.26409578,7.343292E-5,9.782707E-5,0.0,0.0
567.85675,486.52893,98496134,0.96250004,0.10638297,439.66043,73.512024,-0.1658484,-0.26409578,7.343292E-5,9.782707E-5,0.0,0.0
590.43164,495.41907,98496151,1.025,0.12765957,1078.5186,361.5414,-0.1658484,-0.26409578,7.343292E-5,-0.0,0.0,0.0
614.7193,499.54407,98496167,1.0,0.10638297,1725.7047,504.0135,-0.1658484,-0.26409578,7.343292E-5,-0.0,0.0,0.0
643.32385,500.57825,98496184,1.0125,0.12765957,2168.5823,373.28925,-0.1658484,-0.26409578,7.343292E-5,-0.0,0.0,0.0
668.58014,495.3584,98496201,0.9875,0.10638297,2036.9789,-106.79726,-0.1658484,-0.26409578,7.343292E-5,-0.0,0.0,0.0
696.8787,482.67957,98496217,0.975,0.12765957,1832.626,-716.4547,-0.1658484,-0.26409578,7.343292E-5,5.5339362E-5,0.0,0.0
721.7318,465.339,98496234,0.975,0.11702127,1614.3221,-1223.1086,-0.1658484,-0.26409578,7.343292E-5,5.5339362E-5,0.0,0.0
740.31915,448.0349,98496251,0.95,0.12765957,1288.5823,-1436.2854,-0.1658484,-0.26409578,7.343292E-5,5.5339362E-5,0.0,0.0
754.3233,430.34497,98496268,0.95,0.11702127,912.34485,-1406.851,-0.1658484,-0.26409578,7.343292E-5,5.5339362E-5,0.0,0.0
764.81213,408.62512,98496284,0.96250004,0.12765957,472.79483,-1278.2277,-0.1658484,-0.26409578,7.343292E-5,0.0,0.0,0.0
767.2514,395.94165,98496301,1.025,0.11702127,102.74034,-1095.7122,-0.1658484,-0.26409578,7.343292E-5,0.0,0.0,0.0
766.1748,388.755,98496318,1.1,0.11702127,-220.31903,-733.0984,-0.1658484,-0.26409578,7.343292E-5,0.0,0.0,0.0
764.53094,387.0879,98496334,1.225,0.12765957,-396.0598,-185.84712,-0.1658484,-0.26409578,7.343292E-5,0.0,0.0,0.0
761.7734,388.4226,98496351,1.2875,0.14893617,-441.32422,288.03955,-0.1658484,-0.26409578,7.343292E-5,0.0,0.0,0.0
758.64154,391.51587,98496368,1.1875,0.12765957,-371.87668,514.59503,-0.1658484,-0.26409578,7.343292E-5,0.0,0.0,0.0
754.28876,396.2041,98496385,0.975,0.12765957,-296.82523,498.7213,-0.1658484,-0.26409578,7.343292E-5,0.0,0.0,0.0
741.8123,419.0924,98496401,0.9125,0.10638297,-535.7076,923.45953,-0.1658484,-0.26409578,7.343292E-5,0.0,0.0,0.0
731.964,440.46985,98496418,0.9125,0.10638297,-773.05743,1547.4076,-0.028678715,-0.2992766,0.032058716,3.613921E-5,0.0,0.0
725.5758,467.51538,98496435,0.90000004,0.09574468,-765.09375,1997.8545,-0.028678715,-0.2992766,0.032058716,3.613921E-5,0.0,0.0
724.00433,485.71436,98496451,0.9125,0.08510638,-337.8955,1773.6722,-0.028678715,-0.2992766,0.032058716,3.613921E-5,0.0,0.0
724.5446,503.85632,98496468,0.925,0.10638297,79.88564,1304.4698,-0.028678715,-0.2992766,0.032058716,3.613921E-5,0.0,0.0
729.05237,518.2606,98496485,0.95,0.09574468,407.55313,846.68494,-0.028678715,-0.2992766,0.032058716,1.2733E-4,0.0,0.0
733.2362,525.8668,98496501,0.9875,0.10638297,497.45514,539.657,-0.028678715,-0.2992766,0.032058716,1.2733E-4,0.0,0.0
739.544,529.5802,98496518,1.075,0.11702127,489.3753,147.53102,-0.028678715,-0.2992766,0.032058716,1.2733E-4,0.0,0.0
750.6995,530.31274,98496535,1.1,0.14893617,622.38904,-128.65288,-0.028678715,-0.2992766,0.032058716,1.2733E-4,0.0,0.0
764.10815,522.1836,98496552,1.075,0.11702127,827.2712,-503.23367,-0.028678715,-0.2992766,0.032058716,-6.1871215E-5,0.0,0.0
771.3948,512.83716,98496568,0.9875,0.10638297,818.64844,-787.70935,-0.028678715,-0.2992766,0.032058716,-6.1871215E-5,0.0,0.0
780.34247,490.09863,98496585,0.975,0.08510638,677.64795,-1209.0127,-0.028678715,-0.2992766,0.032058716,-6.1871215E-5,0.0,0.0
784.7224,462.44348,98496602,1.0,0.12765957,348.8276,-1872.1453,-0.028678715,-0.2992766,0.032058716,-6.1871215E-5,0.0,0.0
783.93805,441.23108,98496618,1.025,0.08510638,9.138812,-1984.7683,-0.028678715,-0.2992766,0.032058716,-3.0011981E-5,0.0,0.0
781.61475,419.521,98496635,1.0,0.12765957,-233.65413,-1731.3649,-0.028678715,-0.2992766,0.032058716,-3.0011981E-5,0.0,0.0
779.02795,405.49463,98496652,1.0375,0.12765957,-409.36758,-1166.265,-0.028678715,-0.2992766,0.032058716,-3.0011981E-5,0.0,0.0
777.4631,399.2378,98496669,1.0625,0.10638297,-357.23575,-442.31613,-0.028678715,-0.2992766,0.032058716,-3.0011981E-5,0.0,0.0
776.29645,397.16406,98496685,1.15,0.12765957,-155.63554,24.564398,-0.028678715,-0.2992766,0.032058716,-2.0410349E-5,0.0,0.0
776.22516,397.03735,98496702,1.3000001,0.12765957,-36.11605,363.32028,-0.028678715,-0.2992766,0.032058716,-2.0410349E-5,0.0,0.0
776.22516,399.8191,98496719,1.35,0.14893617,35.504642,446.69907,-0.028678715,-0.2992766,0.032058716,-2.0410349E-5,0.0,0.0
776.22516,405.51245,98496735,1.1125001,0.12765957,46.53413,457.75122,-0.028678715,-0.2992766,0.032058716,-2.0410349E-5,0.0,0.0
780.4614,426.828,98496752,0.9875,0.08510638,140.2089,912.79376,-0.028678715,-0.2992766,0.032058716,-3.355443E-6,0.0,0.0
788.3932,449.02905,98496769,0.9875,0.12765957,373.14615,1516.1257,-0.028678715,-0.2992766,0.032058716,-3.355443E-6,0.0,0.0
798.4016,477.43774,98496786,0.95,0.09574468,646.4197,2029.2032,-0.028678715,-0.2992766,0.032058716,-3.355443E-6,0.0,0.0
805.7328,491.3412,98496802,0.975,0.12765957,740.4456,1845.3312,-0.028678715,-0.2992766,0.032058716,-3.355443E-6,0.0,0.0
815.1502,504.36145,98496819,0.9875,0.12765957,649.2056,976.12964,-0.028678715,-0.2992766,0.032058716,0.0013638026,-1.3638026E-4,0.0
827.7005,516.15967,98496836,1.0125,0.10638297,638.50073,445.52487,-0.028678715,-0.2992766,0.032058716,0.0013638026,-1.3638026E-4,0.0
841.1223,521.1432,98496852,1.0500001,0.12765957,786.39215,173.69382,-0.028678715,-0.2992766,0.032058716,0.0013638026,-1.3638026E-4,0.0
856.4625,517.03186,98496869,1.0500001,0.14893617,958.91174,-109.09094,-0.028678715,-0.2992766,0.032058716,0.0013638026,-1.3638026E-4,0.0
868.281,508.1864,98496886,0.9875,0.12765957,961.604,-587.5144,-0.028678715,-0.2992766,0.032058716,-2.3726541E-5,0.0,0.0
882.78015,485.68274,98496903,0.975,0.10638297,870.13464,-1311.2717,-0.028678715,-0.2992766,0.032058716,-2.3726541E-5,0.0,0.0
900.81604,441.90967,98496919,0.96250004,0.08510638,984.4377,-2475.0981,-0.028678715,-0.2992766,0.032058716,-2.3726541E-5,0.0,0.0
910.6181,395.5011,98496936,0.95,0.09574468,868.2879,-3309.8628,-0.028678715,-0.2992766,0.032058716,-2.3726541E-5,0.0,0.0
919.1319,346.47253,98496953,0.975,0.12765957,606.90674,-3686.8435,0.025057018,0.080578804,0.025647163,-4.2443335E-5,0.0,0.0
921.7949,301.8291,98496969,0.95,0.14893617,243.02911,-3526.0906,0.025057018,0.080578804,0.025647163,-4.2443335E-5,0.0,0.0
923.0006,259.5619,98496986,0.96250004,0.11702127,-106.41302,-2975.7554,0.025057018,0.080578804,0.025647163,-4.2443335E-5,0.0,0.0
921.97906,222.92676,98497003,0.9875,0.09574468,-225.66861,-2512.0945,0.025057018,0.080578804,0.025647163,-4.2443335E-5,0.0,0.0
920.4341,191.48438,98497019,0.975,0.14893617,-263.82193,-1901.7212,0.025057018,0.080578804,0.025647163,0.0,0.0,0.0
918.6366,174.68652,98497036,1.0,0.09574468,-251.29932,-1144.755,0.025057018,0.080578804,0.025647163,0.0,0.0,0.0
917.37524,167.07166,98497053,1.0125,0.09574468,-184.7316,-325.6009,0.025057018,0.080578804,0.025647163,0.0,0.0,0.0
916.35187,165.13794,98497070,1.0875,0.11702127,-104.02449,337.03174,0.025057018,0.080578804,0.025647163,0.0,0.0,0.0
916.1796,165.78992,98497086,1.2375001,0.12765957,-24.10275,592.9104,0.025057018,0.080578804,0.025647163,0.0,0.0,0.0
916.1796,169.74963,98497103,1.275,0.12765957,16.195536,633.74414,0.025057018,0.080578804,0.025647163,0.0,0.0,0.0
916.1796,179.41248,98497120,1.1,0.12765957,38.357983,661.67926,0.025057018,0.080578804,0.025647163,0.0,0.0,0.0
918.8324,218.85681,98497136,0.95,0.11702127,93.80066,1655.2167,0.025057018,0.080578804,0.025647163,0.0,0.0,0.0
922.4814,264.8755,98497153,0.95,0.09574468,206.56427,2868.8455,0.025057018,0.080578804,0.025647163,-9.678568E-5,0.0,0.0
926.078,306.60303,98497170,0.9375,0.11702127,288.59848,3545.3828,0.025057018,0.080578804,0.025647163,-9.678568E-5,0.0,0.0
930.54767,347.52344,98497187,0.9375,0.12765957,336.08377,3462.142,0.025057018,0.080578804,0.025647163,-9.678568E-5,0.0,0.0
937.06195,386.85608,98497203,0.96250004,0.09574468,383.29352,2910.29,0.025057018,0.080578804,0.025647163,-9.678568E-5,0.0,0.0
945.52734,420.9956,98497220,0.9875,0.09574468,469.89777,2197.2,0.025057018,0.080578804,0.025647163,4.2245176E-4,-3.8404705E-5,0.0
953.50946,441.18164,98497237,0.96250004,0.12765957,568.2523,1479.6495,0.025057018,0.080578804,0.025647163,4.2245176E-4,-3.8404705E-5,0.0
961.9197,456.57397,98497253,0.96250004,0.12765957,600.10266,757.7305,0.025057018,0.080578804,0.025647163,4.2245176E-4,-3.8404705E-5,0.0
969.506,466.27808,98497270,0.95,0.11702127,521.8502,195.379,0.025057018,0.080578804,0.025647163,4.2245176E-4,-3.8404705E-5,0.0
979.37366,473.4718,98497287,0.925,0.08510638,502.0045,-19.298523,0.025057018,0.080578804,0.025647163,-3.280442E-4,3.6449357E-5,0.0
999.44324,471.3485,98497304,0.875,0.09574468,822.7206,-178.44844,0.025057018,0.080578804,0.025647163,-3.280442E-4,3.6449357E-5,0.0
1000.6521,470.78308,98497304,0.52500004,0.12765957,891.8545,-215.09576,0.025057018,0.080578804,0.025647163,-3.280442E-4,3.6449357E-5,0.0
1000.6521,470.78308,98497312,0.52500004,0.12765957,891.8545,-215.09576,0.025057018,0.080578804,0.025647163,-3.280442E-4,3.6449357E-5,0.0
870.6944,323.2915,98497489,1.2375001,0.12765957,0.0,0.0,0.020045638,0.096462965,0.05251789,-6.0023962E-5,0.0,0.0
870.6944,323.2915,98497521,1.275,0.14893617,-0.057157934,-0.020920351,0.020045638,0.096462965,0.05251789,-6.0023962E-5,0.0,0.0
897.15485,332.3368,98497538,1.0125,0.12765957,1895.9136,648.1034,0.020045638,0.096462965,0.05251789,-6.0023962E-5,0.0,0.0
927.4737,342.48254,98497554,0.975,0.11702127,2583.708,879.1008,0.020045638,0.096462965,0.05251789,1.5724091E-4,0.0,0.0
963.2726,352.73608,98497571,0.95,0.14893617,2904.113,910.75543,0.020045638,0.096462965,0.05251789,1.5724091E-4,0.0,0.0
1003.496,362.74683,98497588,0.90000004,0.10638297,3137.9585,893.56946,0.020045638,0.096462965,0.05251789,1.5724091E-4,0.0,0.0
1051.8823,372.5244,98497604,0.71250004,0.09574468,3164.8267,726.0666,0.020045638,0.096462965,0.05251789,1.5724091E-4,0.0,0.0
1054.6345,372.15918,98497611,0.4375,0.12765957,2784.5994,529.873,0.020045638,0.096462965,0.05251789,3.0198984E-5,0.0,0.0
1054.6345,372.15918,98497617,0.4375,0.12765957,2784.5994,529.873,0.020045638,0.096462965,0.05251789,3.0198984E-5,0.0,0.0
1129.1102,349.94666,98497714,1.125,0.14893617,0.0,0.0,0.020045638,0.096462965,0.05251789,1.2079586E-4,0.0,0.0
1129.1102,349.94666,98497738,1.2125,0.14893617,0.047632154,0.010957059,0.020045638,0.096462965,0.05251789,1.2079586E-4,0.0,0.0
1129.1102,349.94666,98497755,1.2375001,0.12765957,0.099709086,0.032272443,0.020045638,0.096462965,0.05251789,-3.0011981E-5,0.0,0.0
1129.1102,349.94666,98497771,1.1,0.12765957,0.07653125,0.02367653,0.020045638,0.096462965,0.05251789,-3.0011981E-5,0.0,0.0
1129.1102,349.94666,98497788,0.90000004,0.10638297,0.06695354,0.020146308,0.020045638,0.096462965,0.05251789,-3.0011981E-5,0.0,0.0
1097.9365,374.54382,98497805,0.8625,0.11702127,-1022.2683,795.6333,0.020045638,0.096462965,0.05251789,-3.0011981E-5,0.0,0.0
1080.7955,391.25818,98497822,0.85,0.12765957,-1641.1184,1377.9303,0.020045638,0.096462965,0.05251789,1.224621E-4,0.0,0.0
1066.006,419.37292,98497838,0.83750004,0.08510638,-1653.5802,1884.7314,0.020045638,0.096462965,0.05251789,1.224621E-4,0.0,0.0
1058.7651,437.8418,98497855,0.85,0.09574468,-974.8647,1844.362,0.020045638,0.096462965,0.05251789,1.224621E-4,0.0,0.0
1055.0011,459.20215,98497872,0.8625,0.10638297,-94.086586,1427.6147,0.020045638,0.096462965,0.05251789,1.224621E-4,0.0,0.0
1056.4888,475.59814,98497888,0.875,0.08510638,202.40471,1190.2827,0.020045638,0.096462965,0.05251789,0.0,0.0,0.0
1060.317,486.72986,98497905,0.8875,0.08510638,499.87936,727.87714,0.020045638,0.096462965,0.05251789,0.0,0.0,0.0
1063.8022,491.7561,98497922,0.9375,0.10638297,533.8779,310.6646,0.020045638,0.096462965,0.05251789,0.0,0.0,0.0
1072.4266,496.45984,98497939,0.975,0.12765957,568.4998,41.91277,0.020045638,0.096462965,0.05251789,0.0,0.0,0.0
1085.8368,498.32666,98497955,1.0125,0.12765957,765.91455,-130.12752,0.020045638,0.096462965,0.05251789,-5.8696245E-5,0.0,0.0
1099.8744,494.46326,98497972,1.0,0.11702127,972.7946,-255.42075,0.020045638,0.096462965,0.05251789,-5.8696245E-5,0.0,0.0
1108.3302,483.82642,98497989,0.95,0.12765957,936.3645,-575.947,0.020045638,0.096462965,0.05251789,-5.8696245E-5,0.0,0.0
1119.3503,458.01624,98498005,0.925,0.12765957,718.4713,-1194.1823,0.020045638,0.096462965,0.05251789,-5.8696245E-5,0.0,0.0
1123.6415,438.84937,98498022,0.9375,0.09574468,410.82397,-1716.3827,3.6537647E-5,0.045170307,-0.021985054,-7.732086E-5,2.5773621E-5,0.0
1121.741,414.21533,98498039,0.9375,0.12765957,31.227734,-1953.7179,3.6537647E-5,0.045170307,-0.021985054,-7.732086E-5,2.5773621E-5,0.0
1116.2826,393.2755,98498055,0.975,0.08510638,-359.28784,-1744.8497,3.6537647E-5,0.045170307,-0.021985054,-7.732086E-5,2.5773621E-5,0.0
1108.7146,376.77527,98498072,1.0,0.10638297,-689.5539,-1277.31,3.6537647E-5,0.045170307,-0.021985054,-7.732086E-5,2.5773621E-5,0.0
1102.9702,368.0387,98498089,1.0,0.12765957,-731.33496,-638.9879,3.6537647E-5,0.045170307,-0.021985054,5.3687072E-5,0.0,0.0
1097.2765,361.30786,98498106,1.025,0.12765957,-544.99634,-203.37845,3.6537647E-5,0.045170307,-0.021985054,5.3687072E-5,0.0,0.0
1093.399,358.83167,98498122,1.0625,0.12765957,-324.6409,81.43901,3.6537647E-5,0.045170307,-0.021985054,5.3687072E-5,0.0,0.0
1090.7146,358.83167,98498139,1.1,0.12765957,-160.07385,226.78319,3.6537647E-5,0.045170307,-0.021985054,5.3687072E-5,0.0,0.0
1089.1246,362.38098,98498156,1.1375,0.12765957,-60.660294,337.6652,3.6537647E-5,0.045170307,-0.021985054,2.588693E-4,-6.471732E-5,0.0
1089.6643,366.08606,98498172,1.1,0.12765957,38.80927,406.64423,3.6537647E-5,0.045170307,-0.021985054,2.588693E-4,-6.471732E-5,0.0
1091.286,366.9734,98498189,1.025,0.10638297,144.18951,331.9303,3.6537647E-5,0.045170307,-0.021985054,2.588693E-4,-6.471732E-5,0.0
1099.3717,374.1599,98498206,0.90000004,0.08510638,353.10547,317.7166,3.6537647E-5,0.045170307,-0.021985054,2.588693E-4,-6.471732E-5,0.0
1119.0071,387.5974,98498223,0.95,0.12765957,882.939,585.81226,3.6537647E-5,0.045170307,-0.021985054,-9.678568E-5,0.0,0.0
1146.2001,396.32544,98498239,0.925,0.10638297,1613.9165,791.60864,3.6537647E-5,0.045170307,-0.021985054,-9.678568E-5,0.0,0.0
1170.7689,399.70276,98498256,0.925,0.11702127,2079.8145,673.6026,3.6537647E-5,0.045170307,-0.021985054,-9.678568E-5,0.0,0.0
1198.4354,397.31384,98498273,0.95,0.12765957,2114.3308,88.351395,3.6537647E-5,0.045170307,-0.021985054,-9.678568E-5,0.0,0.0
1215.1884,389.3208,98498289,0.9125,0.10638297,1554.302,-557.34717,3.6537647E-5,0.045170307,-0.021985054,3.6294656E-5,0.0,0.0
1227.6472,377.40857,98498306,0.9125,0.12765957,878.7165,-954.2433,3.6537647E-5,0.045170307,-0.021985054,3.6294656E-5,0.0,0.0
1235.2325,362.8562,98498323,0.9125,0.12765957,329.36185,-1115.9913,3.6537647E-5,0.045170307,-0.021985054,3.6294656E-5,0.0,0.0
1238.0095,348.86633,98498340,0.95,0.12765957,-71.021515,-1185.1759,3.6537647E-5,0.045170307,-0.021985054,3.6294656E-5,0.0,0.0
1236.6127,340.3058,98498356,1.0,0.11702127,-283.6984,-948.09393,3.6537647E-5,0.045170307,-0.021985054,0.0,0.0,0.0
1233.5128,334.76685,98498373,1.0375,0.10638297,-421.5979,-499.906,3.6537647E-5,0.045170307,-0.021985054,0.0,0.0,0.0
1229.327,330.17676,98498390,1.0875,0.10638297,-485.13235,-172.14139,3.6537647E-5,0.045170307,-0.021985054,0.0,0.0,0.0
1225.1466,329.5111,98498406,1.1625,0.12765957,-449.66235,75.84815,3.6537647E-5,0.045170307,-0.021985054,0.0,0.0,0.0
1222.07,330.70166,98498423,1.2,0.12765957,-325.3759,170.562,3.6537647E-5,0.045170307,-0.021985054,-0.0,0.0,0.0
1219.4727,333.78552,98498440,1.225,0.12765957,-211.38245,277.91327,3.6537647E-5,0.045170307,-0.021985054,-0.0,0.0,0.0
1219.081,337.41223,98498457,1.1750001,0.12765957,-93.28286,362.90646,3.6537647E-5,0.045170307,-0.021985054,-0.0,0.0,0.0
1219.8444,339.75293,98498473,1.0375,0.10638297,49.73114,313.7827,3.6537647E-5,0.045170307,-0.021985054,-0.0,0.0,0.0
1223.681,353.50635,98498490,0.85,0.10638297,196.40074,455.2864,3.6537647E-5,0.045170307,-0.021985054,-1.38348405E-5,0.0,0.0
1230.1404,378.6023,98498507,0.83750004,0.08510638,414.86282,1191.2312,3.6537647E-5,0.045170307,-0.021985054,-1.38348405E-5,0.0,0.0
1236.8513,404.72925,98498523,0.875,0.12765957,551.6843,1847.4519,3.6537647E-5,0.045170307,-0.021985054,-1.38348405E-5,0.0,0.0
1241.3284,429.20105,98498540,0.875,0.09574468,513.56,2153.0564,3.6537647E-5,0.045170307,-0.021985054,-1.38348405E-5,0.0,0.0
1242.5261,447.64697,98498557,0.85,0.12765957,287.23877,1771.9753,0.048029244,-0.13186383,0.014411926,0.0,0.0,0.0
1240.5629,468.177,98498573,0.8875,0.09574468,-68.11425,1203.7245,0.048029244,-0.13186383,0.014411926,0.0,0.0,0.0
1233.7318,483.92188,98498590,0.90000004,0.08510638,-398.71118,934.0354,0.048029244,-0.13186383,0.014411926,0.0,0.0,0.0
1223.525,493.04407,98498607,0.9125,0.10638297,-692.71716,591.72314,0.048029244,-0.13186383,0.014411926,0.0,0.0,0.0
1211.3589,503.2738,98498624,0.9375,0.12765957,-902.0119,430.2571,0.048029244,-0.13186383,0.014411926,2.3251992E-4,0.0,0.0
1193.999,513.26917,98498640,0.975,0.14893617,-1111.521,347.38025,0.048029244,-0.13186383,0.014411926,2.3251992E-4,0.0,0.0
1180.4265,515.5729,98498657,1.0,0.11702127,-1151.3301,218.44363,0.048029244,-0.13186383,0.014411926,2.3251992E-4,0.0,0.0
1169.6223,514.76953,98498674,0.9375,0.11702127,-954.6697,8.513807,0.048029244,-0.13186383,0.014411926,2.3251992E-4,0.0,0.0
1155.3143,513.86365,98498690,0.825,0.11702127,-699.0678,-290.17847,0.048029244,-0.13186383,0.014411926,0.0,0.0,0.0
1147.1044,514.3197,98498694,0.71250004,0.14893617,-799.7279,-295.6825,0.048029244,-0.13186383,0.014411926,0.0,0.0,0.0
1147.1044,514.3197,98498704,0.71250004,0.14893617,-799.7279,-295.6825,0.048029244,-0.13186383,0.014411926,0.0,0.0,0.0
