x,y,timestamp,pressure,fingerarea,velocityx,velocityy,accelx,accely,accelz,gyrox,gyroy,gyroz
267.3908,253.98828,98414381,1.1125001,0.12765957,0.0,0.0,0.00698331,-0.083921194,0.018089294,0.0,0.0,0.0
267.3908,253.98828,98414404,1.2,0.12765957,-0.011088362,-0.011713966,0.00698331,-0.083921194,0.018089294,0.0,0.0,0.0
267.3908,253.98828,98414421,1.1750001,0.12765957,0.014818561,0.013591489,0.021586657,0.14886308,-0.10552883,5.5339362E-5,-1.38348405E-5,0.0
267.3908,253.98828,98414438,1.025,0.11702127,-0.01798186,-0.016385539,0.021586657,0.14886308,-0.10552883,5.5339362E-5,-1.38348405E-5,0.0
265.07593,273.11353,98414454,0.9375,0.11702127,-87.51465,729.6467,0.021586657,0.14886308,-0.10552883,5.5339362E-5,-1.38348405E-5,0.0
259.7654,296.2024,98414471,0.8875,0.12765957,-235.16057,1404.6007,0.021586657,0.14886308,-0.10552883,5.5339362E-5,-1.38348405E-5,0.0
250.98572,321.73987,98414488,0.875,0.08510638,-511.43045,2084.2651,0.021586657,0.14886308,-0.10552883,-3.503178E-4,0.0,0.0
238.01782,349.93225,98414504,0.8625,0.10638297,-799.212,2216.6897,0.021586657,0.14886308,-0.10552883,-3.503178E-4,0.0,0.0
226.59659,376.79407,98414521,0.8625,0.08510638,-948.6036,1989.4319,0.021586657,0.14886308,-0.10552883,-3.503178E-4,0.0,0.0
212.51843,404.339,98414538,0.90000004,0.14893617,-960.13947,1690.9298,0.021586657,0.14886308,-0.10552883,-3.503178E-4,0.0,0.0
201.0694,421.97913,98414555,0.8625,0.08510638,-867.28394,1416.34,0.021586657,0.14886308,-0.10552883,-2.853502E-4,0.0,0.0
183.3759,447.15234,98414571,0.8875,0.10638297,-894.50964,1220.1552,0.021586657,0.14886308,-0.10552883,-2.853502E-4,0.0,0.0
162.9702,474.49866,98414588,0.9375,0.08510638,-1109.9719,1286.7336,0.021586657,0.14886308,-0.10552883,-2.853502E-4,0.0,0.0
142.25998,495.3694,98414605,0.925,0.10638297,-1368.1437,1451.5966,0.021586657,0.14886308,-0.10552883,-2.853502E-4,0.0,0.0
126.96791,508.96082,98414621,0.925,0.10638297,-1300.4824,1183.2904,0.021586657,0.14886308,-0.10552883,2.4196437E-5,0.0,0.0
115.56615,518.5641,98414638,0.96250004,0.10638297,-941.98944,679.0819,0.021586657,0.14886308,-0.10552883,2.4196437E-5,0.0,0.0
107.145355,523.8635,98414655,1.025,0.11702127,-497.94583,121.96186,0.021586657,0.14886308,-0.10552883,2.4196437E-5,0.0,0.0
100.97099,524.9818,98414672,1.1125001,0.12765957,-209.04848,-161.7413,0.021586657,0.14886308,-0.10552883,2.4196437E-5,0.0,0.0
96.240906,522.3688,98414688,1.2,0.14893617,-99.16085,-320.95505,0.021586657,0.14886308,-0.10552883,-1.5005995E-5,0.0,0.0
93.11978,516.2185,98414705,1.125,0.12765957,-83.24441,-494.88226,0.021586657,0.14886308,-0.10552883,-1.5005995E-5,0.0,0.0
92.079605,501.0376,98414722,1.025,0.11702127,-13.91895,-861.2365,0.021586657,0.14886308,-0.10552883,-1.5005995E-5,0.0,0.0
95.86371,478.9629,98414738,1.075,0.11702127,174.83075,-1377.056,0.021586657,0.14886308,-0.10552883,-1.5005995E-5,0.0,0.0
101.90422,459.8806,98414755,1.0875,0.12765957,429.66702,-1677.2664,0.021586657,0.14886308,-0.10552883,-5.0331622E-5,0.0,0.0
106.53006,450.95935,98414772,1.0875,0.10638297,531.75116,-1335.0104,0.021586657,0.14886308,-0.10552883,-5.0331622E-5,0.0,0.0
113.31357,443.35266,98414788,1.1125001,0.08510638,542.5885,-650.9533,0.021586657,0.14886308,-0.10552883,-5.0331622E-5,0.0,0.0
119.53081,441.46252,98414805,1.2375001,0.10638297,458.57855,-9.6139765,0.021586657,0.14886308,-0.10552883,-5.0331622E-5,0.0,0.0
123.09761,442.44556,98414822,1.25,0.10638297,335.68765,305.5199,0.021586657,0.14886308,-0.10552883,-3.355443E-6,0.0,0.0
125.1297,444.29895,98414839,1.15,0.10638297,185.76846,372.0689,0.021586657,0.14886308,-0.10552883,-3.355443E-6,0.0,0.0
130.53146,455.20422,98414855,1.1,0.12765957,131.46184,566.4074,0.021586657,0.14886308,-0.10552883,-3.355443E-6,0.0,0.0
138.89536,473.14355,98414872,1.1125001,0.10638297,291.87546,1012.81726,0.021586657,0.14886308,-0.10552883,-3.355443E-6,0.0,0.0
146.75291,488.735,98414889,1.0875,0.11702127,514.20886,1334.8986,0.021586657,0.14886308,-0.10552883,-0.0,0.0,0.0
154.78552,500.70496,98414905,1.0875,0.12765957,624.0363,1230.8652,0.021586657,0.14886308,-0.10552883,-0.0,0.0,0.0
166.217,515.9103,98414922,1.1,0.10638297,656.42377,956.7209,0.021586657,0.14886308,-0.10552883,-0.0,0.0,0.0
181.50165,529.48315,98414939,1.075,0.09574468,799.60364,752.21857,0.021586657,0.14886308,-0.10552883,-0.0,0.0,0.0
198.98102,538.3335,98414956,1.0875,0.12765957,1071.5848,664.2501,0.017269313,0.08709049,-0.028422356,0.0,0.0,0.0
219.28973,540.97485,98414972,1.075,0.10638297,1327.6398,387.10797,0.017269313,0.08709049,-0.028422356,0.0,0.0,0.0
240.1572,537.61865,98414989,1.0875,0.11702127,1432.4486,-163.24782,0.017269313,0.08709049,-0.028422356,0.0,0.0,0.0
262.95697,526.72595,98415006,1.0500001,0.11702127,1465.969,-729.04553,0.017269313,0.08709049,-0.028422356,0.0,0.0,0.0
283.4723,513.9905,98415022,1.0375,0.10638297,1411.627,-1090.2833,0.017269313,0.08709049,-0.028422356,-3.355443E-6,0.0,0.0
300.83493,500.81604,98415039,1.0125,0.12765957,1219.1852,-1184.1211,0.017269313,0.08709049,-0.028422356,-3.355443E-6,0.0,0.0
318.20328,486.03967,98415056,1.025,0.10638297,1037.7981,-1124.6621,0.017269313,0.08709049,-0.028422356,-3.355443E-6,0.0,0.0
333.4454,471.46216,98415073,1.0375,0.11702127,878.23,-1022.98364,0.017269313,0.08709049,-0.028422356,-3.355443E-6,0.0,0.0
346.61887,459.7135,98415089,1.025,0.12765957,743.3827,-863.5761,0.017269313,0.08709049,-0.028422356,5.533931E-5,0.0,0.0
357.5827,450.37024,98415106,1.0125,0.12765957,634.9042,-661.46063,0.017269313,0.08709049,-0.028422356,5.533931E-5,0.0,0.0
366.68283,443.46753,98415123,1.0375,0.12765957,471.51382,-402.94748,0.017269313,0.08709049,-0.028422356,5.533931E-5,0.0,0.0
373.83456,438.51355,98415139,1.025,0.12765957,358.85236,-209.4086,0.017269313,0.08709049,-0.028422356,5.533931E-5,0.0,0.0
378.32507,435.47827,98415156,1.075,0.12765957,236.21304,-97.17234,0.017269313,0.08709049,-0.028422356,0.0,0.0,0.0
380.2643,433.6255,98415173,1.1,0.12765957,79.408195,-3.8312566,0.017269313,0.08709049,-0.028422356,0.0,0.0,0.0
380.35403,433.46594,98415190,1.2125,0.12765957,-80.04366,58.369614,0.017269313,0.08709049,-0.028422356,0.0,0.0,0.0
378.87814,435.22192,98415206,1.325,0.14893617,-195.41386,143.18852,0.017269313,0.08709049,-0.028422356,0.0,0.0,0.0
377.2883,436.1908,98415223,1.4,0.14893617,-228.12114,173.58284,0.017269313,0.08709049,-0.028422356,3.355443E-6,0.0,0.0
372.99512,440.95923,98415240,1.325,0.14893617,-276.76282,257.8099,0.017269313,0.08709049,-0.028422356,3.355443E-6,0.0,0.0
364.9631,446.3031,98415256,1.1875,0.12765957,-426.0718,364.90085,0.017269313,0.08709049,-0.028422356,3.355443E-6,0.0,0.0
355.14914,451.92053,98415273,1.025,0.11702127,-613.78864,413.23422,0.017269313,0.08709049,-0.028422356,3.355443E-6,0.0,0.0
339.33987,465.20496,98415290,1.025,0.12765957,-915.04254,636.65247,0.017269313,0.08709049,-0.028422356,8.55473E-5,0.0,0.0
327.99344,477.29468,98415307,1.0,0.11702127,-1022.11926,853.69824,0.017269313,0.08709049,-0.028422356,8.55473E-5,0.0,0.0
319.15186,488.3556,98415323,1.0,0.11702127,-818.03864,923.10693,0.017269313,0.08709049,-0.028422356,8.55473E-5,0.0,0.0
312.79428,496.1328,98415340,1.0,0.12765957,-487.2048,736.174,0.017269313,0.08709049,-0.028422356,8.55473E-5,0.0,0.0
308.1651,508.34424,98415357,1.0125,0.12765957,-179.35388,549.6779,0.017269313,0.08709049,-0.028422356,0.0,0.0,0.0
307.776,516.2626,98415373,1.0125,0.12765957,8.8578205,501.39905,0.017269313,0.08709049,-0.028422356,0.0,0.0,0.0
309.2455,521.1937,98415390,1.025,0.11702127,170.01935,411.52606,0.017269313,0.08709049,-0.028422356,0.0,0.0,0.0
311.77332,523.9712,98415407,1.0500001,0.11702127,306.88333,208.01332,0.017269313,0.08709049,-0.028422356,0.0,0.0,0.0
319.53094,527.71716,98415424,1.075,0.10638297,468.0878,47.49166,0.017269313,0.08709049,-0.028422356,-0.0,0.0,0.0
330.52557,528.53577,98415440,1.075,0.10638297,683.42035,-26.31896,0.017269313,0.08709049,-0.028422356,-0.0,0.0,0.0
343.7105,527.4636,98415457,1.075,0.11702127,898.12585,-61.941364,0.017269313,0.08709049,-0.028422356,-0.0,0.0,0.0
358.826,521.15234,98415474,1.025,0.14893617,1067.18,-267.45157,0.017269313,0.08709049,-0.028422356,-0.0,0.0,0.0
371.91992,512.98645,98415490,1.0125,0.12765957,1065.3181,-555.3572,0.061815456,0.08567238,0.041261673,-7.592496E-5,0.0,0.0
380.62598,505.24365,98415507,0.9875,0.10638297,821.06134,-699.4861,0.061815456,0.08567238,0.041261673,-7.592496E-5,0.0,0.0
387.6807,495.96497,98415524,1.0,0.09574468,464.0004,-693.6116,0.061815456,0.08567238,0.041261673,-7.592496E-5,0.0,0.0
392.9864,483.4757,98415540,0.9875,0.09574468,194.73514,-685.0916,0.061815456,0.08567238,0.041261673,-7.592496E-5,0.0,0.0
396.69205,467.401,98415557,1.0125,0.12765957,95.081375,-911.7873,0.061815456,0.08567238,0.041261673,0.0,0.0,0.0
396.46396,456.70166,98415574,1.025,0.10638297,-2.6024516,-985.84796,0.061815456,0.08567238,0.041261673,0.0,0.0,0.0
395.00018,449.1068,98415591,1.0500001,0.10638297,-164.0457,-737.09094,0.061815456,0.08567238,0.041261673,0.0,0.0,0.0
393.38275,444.245,98415607,1.1125001,0.08510638,-266.25656,-356.8817,0.061815456,0.08567238,0.041261673,0.0,0.0,0.0
392.34454,443.2395,98415624,1.25,0.12765957,-227.22389,24.79973,0.061815456,0.08567238,0.041261673,6.833214E-4,0.0,0.0
391.30588,443.2395,98415641,1.3625001,0.12765957,-121.78055,168.70045,0.061815456,0.08567238,0.041261673,6.833214E-4,0.0,0.0
390.26678,446.20374,98415657,1.4250001,0.14893617,-60.18191,276.46515,0.061815456,0.08567238,0.041261673,6.833214E-4,0.0,0.0
389.72928,449.89148,98415674,1.3625001,0.14893617,-30.666641,359.87106,0.061815456,0.08567238,0.041261673,6.833214E-4,0.0,0.0
388.72836,453.45007,98415691,1.1875,0.12765957,-39.10423,359.74362,0.061815456,0.08567238,0.041261673,1.3505387E-4,0.0,0.0
389.5587,463.44214,98415708,1.0125,0.10638297,-5.129876,456.72382,0.061815456,0.08567238,0.041261673,1.3505387E-4,0.0,0.0
391.33844,480.44995,98415724,1.0125,0.08510638,82.02635,863.4104,0.061815456,0.08567238,0.041261673,1.3505387E-4,0.0,0.0
393.96655,496.07678,98415741,1.0,0.10638297,171.29591,1214.4971,0.061815456,0.08567238,0.041261673,1.3505387E-4,0.0,0.0
399.80948,513.32935,98415758,1.0,0.10638297,318.2228,1342.6404,0.061815456,0.08567238,0.041261673,-6.833214E-4,0.0,0.0
406.04913,529.31396,98415774,1.0,0.09574468,440.62735,1202.5427,0.061815456,0.08567238,0.041261673,-6.833214E-4,0.0,0.0
411.2915,536.76636,98415791,1.0,0.10638297,466.10284,771.8947,0.061815456,0.08567238,0.041261673,-6.833214E-4,0.0,0.0
421.98,547.3772,98415808,1.0125,0.12765957,536.9946,485.09567,0.061815456,0.08567238,0.041261673,-6.833214E-4,0.0,0.0
436.7425,553.39185,98415825,1.0500001,0.10638297,761.38434,298.8549,0.061815456,0.08567238,0.041261673,0.0,0.0,0.0
451.27875,554.30237,98415841,1.0375,0.10638297,1011.26764,53.028355,0.061815456,0.08567238,0.041261673,0.0,0.0,0.0
469.16705,547.553,98415858,1.0,0.12765957,1197.4165,-293.1696,0.061815456,0.08567238,0.041261673,0.0,0.0,0.0
485.54608,534.2123,98415875,0.975,0.12765957,1205.0579,-812.66766,0.061815456,0.08567238,0.041261673,0.0,0.0,0.0
502.5772,515.27185,98415891,0.96250004,0.10638297,1110.6028,-1334.7742,0.061815456,0.08567238,0.041261673,-3.0011981E-5,0.0,0.0
521.32764,488.73364,98415908,0.96250004,0.11702127,1110.7092,-1750.1177,0.061815456,0.08567238,0.041261673,-3.0011981E-5,0.0,0.0
541.9317,451.04553,98415925,0.96250004,0.10638297,1132.575,-2198.291,0.061815456,0.08567238,0.041261673,-3.0011981E-5,0.0,0.0
560.487,409.71057,98415942,0.9375,0.10638297,1271.3285,-2848.8481,0.061815456,0.08567238,0.041261673,-3.0011981E-5,0.0,0.0
574.90295,369.65698,98415958,0.925,0.10638297,1114.0187,-3004.1802,0.061815456,0.08567238,0.041261673,-0.0,0.0,0.0
585.01807,334.02234,98415975,0.9375,0.09574468,741.2546,-2743.0498,0.061815456,0.08567238,0.041261673,-0.0,0.0,0.0
593.56696,297.61475,98415992,0.95,0.14893617,383.91083,-2264.0544,0.061815456,0.08567238,0.041261673,-0.0,0.0,0.0
596.72516,270.65063,98416008,0.96250004,0.09574468,91.57224,-1747.2134,0.061815456,0.08567238,0.041261673,-0.0,0.0,0.0
597.28345,242.87,98416025,0.96250004,0.14893617,-47.455795,-1593.3591,0.049452364,-0.011462212,0.08100891,0.0,0.0,0.0
595.2201,225.21497,98416042,1.0,0.09574468,-263.13107,-1109.8181,0.049452364,-0.011462212,0.08100891,0.0,0.0,0.0
592.1107,212.39429,98416059,1.025,0.11702127,-376.1544,-686.29706,0.049452364,-0.011462212,0.08100891,0.0,0.0,0.0
588.9916,205.48584,98416075,1.075,0.12765957,-378.7753,-246.6871,0.049452364,-0.011462212,0.08100891,0.0,0.0,0.0
586.2549,203.34363,98416092,1.15,0.12765957,-290.02795,94.51764,0.049452364,-0.011462212,0.08100891,4.885594E-5,0.0,0.0
582.76794,203.65173,98416109,1.25,0.14893617,-244.11606,318.91306,0.049452364,-0.011462212,0.08100891,4.885594E-5,0.0,0.0
579.41,207.57166,98416125,1.325,0.12765957,-207.12323,438.2083,0.049452364,-0.011462212,0.08100891,4.885594E-5,0.0,0.0
575.51434,215.84473,98416142,1.2625,0.12765957,-231.0896,601.8276,0.049452364,-0.011462212,0.08100891,4.885594E-5,0.0,0.0
573.52234,220.29211,98416159,1.15,0.12765957,-198.8361,604.707,0.049452364,-0.011462212,0.08100891,0.0,0.0,0.0
572.9865,227.02893,98416176,1.025,0.12765957,-79.99183,511.0104,0.049452364,-0.011462212,0.08100891,0.0,0.0,0.0
569.3659,248.67346,98416192,0.95,0.10638297,-56.74174,813.7769,0.049452364,-0.011462212,0.08100891,0.0,0.0,0.0
563.6603,274.64026,98416209,0.95,0.09574468,-195.7218,1477.4436,0.049452364,-0.011462212,0.08100891,0.0,0.0,0.0
556.52185,307.9895,98416226,0.95,0.10638297,-413.05786,2173.702,0.049452364,-0.011462212,0.08100891,-1.8041533E-4,2.5773617E-5,0.0
550.7396,337.82178,98416242,0.90000004,0.12765957,-516.9799,2432.039,0.049452364,-0.011462212,0.08100891,-1.8041533E-4,2.5773617E-5,0.0
545.0375,374.72986,98416259,0.90000004,0.08510638,-457.71753,2405.2815,0.049452364,-0.011462212,0.08100891,-1.8041533E-4,2.5773617E-5,0.0
542.52625,406.51428,98416276,0.925,0.12765957,-267.40817,2190.693,0.049452364,-0.011462212,0.08100891,-1.8041533E-4,2.5773617E-5,0.0
540.30194,434.50647,98416292,0.875,0.09574468,-118.550125,1964.548,0.049452364,-0.011462212,0.08100891,-1.8981249E-5,0.0,0.0
539.6348,463.39636,98416309,0.925,0.12765957,8.814771,1689.5804,0.049452364,-0.011462212,0.08100891,-1.8981249E-5,0.0,0.0
539.51685,487.54333,98416326,0.875,0.09574468,62.603203,1510.9127,0.049452364,-0.011462212,0.08100891,-1.8981249E-5,0.0,0.0
540.30133,507.2047,98416343,0.90000004,0.12765957,84.99728,1215.0852,0.049452364,-0.011462212,0.08100891,-1.8981249E-5,0.0,0.0
541.08307,524.5393,98416359,0.8875,0.09574468,112.640625,937.97217,0.049452364,-0.011462212,0.08100891,3.183252E-5,0.0,0.0
542.0915,536.4442,98416376,0.8875,0.08510638,98.65861,656.1176,0.049452364,-0.011462212,0.08100891,3.183252E-5,0.0,0.0
543.14325,543.68774,98416393,0.8625,0.08510638,92.038086,323.77075,0.049452364,-0.011462212,0.08100891,3.183252E-5,0.0,0.0
543.68414,547.6681,98416409,0.9125,0.10638297,56.002907,85.737686,0.049452364,-0.011462212,0.08100891,3.183252E-5,0.0,0.0
543.80084,549.72314,98416426,1.025,0.10638297,27.860416,-130.9348,0.049452364,-0.011462212,0.08100891,0.0,0.0,0.0
544.29584,550.7484,98416443,1.2125,0.12765957,5.766171,-158.36089,0.049452364,-0.011462212,0.08100891,0.0,0.0,0.0
545.87054,549.79736,98416460,1.2625,0.12765957,38.070827,-156.78763,0.049452364,-0.011462212,0.08100891,0.0,0.0,0.0
550.77924,529.869,98416476,0.96250004,0.12765957,181.24733,-654.1577,0.049452364,-0.011462212,0.08100891,0.0,0.0,0.0
558.727,500.34875,98416493,0.96250004,0.08510638,418.59988,-1602.0139,0.049452364,-0.011462212,0.08100891,-3.183252E-5,0.0,0.0
568.3659,467.6195,98416510,0.95,0.12765957,636.24994,-2373.2996,0.049452364,-0.011462212,0.08100891,-3.183252E-5,0.0,0.0
576.0776,443.33386,98416526,0.925,0.09574468,706.6216,-2523.9028,0.049452364,-0.011462212,0.08100891,-3.183252E-5,0.0,0.0
589.6018,410.2898,98416543,0.925,0.12765957,771.0777,-2125.362,0.049452364,-0.011462212,0.08100891,-3.183252E-5,0.0,0.0
598.5592,392.92627,98416560,0.9375,0.08510638,707.8279,-1460.5469,0.0075618923,-0.04116988,0.016807556,0.0,0.0,0.0
612.5028,375.19446,98416577,0.95,0.10638297,748.29144,-969.89185,0.0075618923,-0.04116988,0.016807556,0.0,0.0,0.0
624.7432,363.13782,98416593,0.95,0.12765957,785.40424,-530.29785,0.0075618923,-0.04116988,0.016807556,0.0,0.0,0.0
636.5758,358.17908,98416610,0.95,0.14893617,777.6863,-205.772,0.0075618923,-0.04116988,0.016807556,0.0,0.0,0.0
644.85034,360.3966,98416627,1.0,0.12765957,683.7947,160.84393,0.0075618923,-0.04116988,0.016807556,-6.0023962E-5,0.0,0.0
649.1982,364.96008,98416643,1.0125,0.12765957,386.3821,521.34045,0.0075618923,-0.04116988,0.016807556,-6.0023962E-5,0.0,0.0
653.37354,375.1328,98416660,1.0500001,0.12765957,122.64225,825.7761,0.0075618923,-0.04116988,0.016807556,-6.0023962E-5,0.0,0.0
655.39386,387.06494,98416677,1.0375,0.12765957,2.7030897,985.99316,0.0075618923,-0.04116988,0.016807556,-6.0023962E-5,0.0,0.0
655.2645,398.36707,98416694,1.025,0.12765957,-77.08051,968.93335,0.0075618923,-0.04116988,0.016807556,-1.342177E-5,0.0,0.0
653.9873,412.98022,98416710,0.9875,0.10638297,-132.7253,989.38947,0.0075618923,-0.04116988,0.016807556,-1.342177E-5,0.0,0.0
650.8696,424.7152,98416727,0.96250004,0.09574468,-225.23192,913.5404,0.0075618923,-0.04116988,0.016807556,-1.342177E-5,0.0,0.0
645.2181,432.82397,98416744,0.925,0.11702127,-355.82764,686.6054,0.0075618923,-0.04116988,0.016807556,-1.342177E-5,0.0,0.0
634.07007,442.50427,98416760,0.95,0.10638297,-586.77405,499.72586,0.0075618923,-0.04116988,0.016807556,8.5941196E-5,0.0,0.0
619.4447,453.09644,98416777,0.975,0.11702127,-923.31647,452.54483,0.0075618923,-0.04116988,0.016807556,8.5941196E-5,0.0,0.0
605.59625,459.31458,98416794,1.0,0.12765957,-1116.2184,458.90256,0.0075618923,-0.04116988,0.016807556,8.5941196E-5,0.0,0.0
593.5301,461.89807,98416811,1.0625,0.14893617,-1040.5642,311.75433,0.0075618923,-0.04116988,0.016807556,8.5941196E-5,0.0,0.0
584.80347,461.89807,98416827,1.1,0.12765957,-746.7603,-4.847923,0.0075618923,-0.04116988,0.016807556,0.0,0.0,0.0
578.9613,461.89807,98416844,1.15,0.11702127,-394.00296,-228.046,0.0075618923,-0.04116988,0.016807556,0.0,0.0,0.0
575.7701,461.89807,98416861,1.0875,0.11702127,-124.26113,-193.0529,0.0075618923,-0.04116988,0.016807556,0.0,0.0,0.0
574.7413,461.89807,98416877,1.0375,0.11702127,51.61314,-93.727234,0.0075618923,-0.04116988,0.016807556,0.0,0.0,0.0
573.69965,461.89807,98416894,0.975,0.10638297,117.16615,-17.691933,0.0075618923,-0.04116988,0.016807556,1.4517852E-4,0.0,0.0
573.7911,463.0326,98416911,0.925,0.12765957,115.94466,26.156158,0.0075618923,-0.04116988,0.016807556,1.4517852E-4,0.0,0.0
576.47943,469.3424,98416928,0.9125,0.10638297,152.61066,197.4052,0.0075618923,-0.04116988,0.016807556,1.4517852E-4,0.0,0.0
581.14954,477.26147,98416944,0.90000004,0.09574468,267.18558,460.79724,0.0075618923,-0.04116988,0.016807556,1.4517852E-4,0.0,0.0
588.3409,485.9458,98416961,0.925,0.11702127,448.5729,670.8783,0.0075618923,-0.04116988,0.016807556,-5.0331622E-5,0.0,0.0
601.7046,495.61536,98416978,0.9875,0.10638297,732.02936,740.3877,0.0075618923,-0.04116988,0.016807556,-5.0331622E-5,0.0,0.0
619.27246,502.76807,98416994,1.0,0.10638297,1084.4207,623.3666,0.0075618923,-0.04116988,0.016807556,-5.0331622E-5,0.0,0.0
641.4634,504.54614,98417011,1.0,0.14893617,1444.0283,332.73224,0.0075618923,-0.04116988,0.016807556,-5.0331622E-5,0.0,0.0
663.473,501.469,98417028,1.0,0.08510638,1644.1089,-66.98631,0.0075618923,-0.04116988,0.016807556,0.0,0.0,0.0
683.5364,490.7561,98417044,0.95,0.12765957,1562.5642,-610.9527,0.0075618923,-0.04116988,0.016807556,0.0,0.0,0.0
700.7473,477.8932,98417061,0.925,0.12765957,1291.0204,-1023.03796,0.0075618923,-0.04116988,0.016807556,0.0,0.0,0.0
714.2574,464.04358,98417078,0.925,0.10638297,894.7451,-1163.7623,0.0075618923,-0.04116988,0.016807556,0.0,0.0,0.0
725.106,450.11902,98417095,0.925,0.09574468,589.8238,-1120.5482,0.022049502,0.031064034,0.013445854,0.0,0.0,0.0
732.0671,439.31348,98417111,0.9375,0.10638297,350.66364,-903.69226,0.022049502,0.031064034,0.013445854,0.0,0.0,0.0
739.85266,419.45386,98417128,0.96250004,0.12765957,261.1983,-947.6252,0.022049502,0.031064034,0.013445854,0.0,0.0,0.0
742.43646,405.91968,98417145,0.96250004,0.12765957,138.08081,-993.0267,0.022049502,0.031064034,0.013445854,0.0,0.0,0.0
743.2359,397.5177,98417161,0.9875,0.11702127,-25.672031,-790.1926,0.022049502,0.031064034,0.013445854,8.5941196E-5,0.0,0.0
743.2359,392.48328,98417178,1.0,0.09574468,-149.34618,-387.60123,0.022049502,0.031064034,0.013445854,8.5941196E-5,0.0,0.0
742.4161,389.92932,98417195,1.0625,0.11702127,-205.80078,22.213282,0.022049502,0.031064034,0.013445854,8.5941196E-5,0.0,0.0
741.38007,389.92932,98417212,1.2375001,0.12765957,-150.95369,190.32709,0.022049502,0.031064034,0.013445854,8.5941196E-5,0.0,0.0
739.44,390.63745,98417228,1.3125,0.14893617,-137.27354,215.4579,0.022049502,0.031064034,0.013445854,9.782707E-5,0.0,0.0
736.40875,394.16968,98417245,1.2625,0.12765957,-179.91647,280.03342,0.022049502,0.031064034,0.013445854,9.782707E-5,0.0,0.0
731.8377,401.30554,98417262,1.1125001,0.10638297,-252.18399,400.0719,0.022049502,0.031064034,0.013445854,9.782707E-5,0.0,0.0
725.5646,413.30017,98417278,0.875,0.08510638,-375.29907,693.3343,0.022049502,0.031064034,0.013445854,9.782707E-5,0.0,0.0
713.7227,439.0697,98417295,0.8625,0.12765957,-631.42676,1326.7076,0.022049502,0.031064034,0.013445854,9.782707E-5,0.0,0.0
704.43164,467.03137,98417312,0.8625,0.11702127,-744.85693,1864.3083,0.022049502,0.031064034,0.013445854,9.782707E-5,0.0,0.0
698.6855,487.0067,98417329,0.8625,0.11702127,-635.77515,1920.0558,0.022049502,0.031064034,0.013445854,9.782707E-5,0.0,0.0
694.66254,507.01013,98417345,0.8625,0.12765957,-381.578,1599.2344,0.022049502,0.031064034,0.013445854,9.782707E-5,0.0,0.0
693.8554,526.45215,98417362,0.83750004,0.09574468,-12.477821,1119.9926,0.022049502,0.031064034,0.013445854,1.342177E-5,0.0,0.0
695.1309,538.76904,98417379,0.875,0.09574468,158.03552,841.5082,0.022049502,0.031064034,0.013445854,1.342177E-5,0.0,0.0
697.8687,544.73865,98417395,0.925,0.11702127,298.47772,435.19308,0.022049502,0.031064034,0.013445854,1.342177E-5,0.0,0.0
702.2695,548.2201,98417412,1.0,0.10638297,347.50983,14.202788,0.022049502,0.031064034,0.013445854,1.342177E-5,0.0,0.0
713.17725,549.85986,98417429,1.0500001,0.10638297,529.22314,-233.54109,0.022049502,0.031064034,0.013445854,-1.8981249E-5,0.0,0.0
725.0137,545.0464,98417446,1.0500001,0.10638297,813.7757,-327.97363,0.022049502,0.031064034,0.013445854,-1.8981249E-5,0.0,0.0
733.51654,536.7583,98417462,0.96250004,0.12765957,884.00916,-552.14844,0.022049502,0.031064034,0.013445854,-1.8981249E-5,0.0,0.0
740.31323,521.2411,98417479,0.95,0.14893617,641.6769,-924.1296,0.022049502,0.031064034,0.013445854,-1.8981249E-5,0.0,0.0
744.94086,504.61304,98417496,0.95,0.09574468,330.3824,-1256.4703,0.022049502,0.031064034,0.013445854,-1.4432285E-4,0.0,0.0
745.6505,483.7832,98417512,0.95,0.11702127,43.81942,-1448.4064,0.022049502,0.031064034,0.013445854,-1.4432285E-4,0.0,0.0
744.3995,460.10645,98417529,0.96250004,0.12765957,-136.81021,-1603.157,0.022049502,0.031064034,0.013445854,-1.4432285E-4,0.0,0.0
741.8254,443.714,98417546,0.9875,0.09574468,-282.70474,-1451.1893,0.022049502,0.031064034,0.013445854,-1.4432285E-4,0.0,0.0
738.78613,428.04114,98417563,0.9875,0.10638297,-349.65488,-1122.739,0.022049502,0.031064034,0.013445854,1.5005995E-5,0.0,0.0
735.7813,415.03674,98417579,0.9875,0.12765957,-290.81772,-756.63025,0.022049502,0.031064034,0.013445854,1.5005995E-5,0.0,0.0
734.5075,406.46667,98417596,1.0375,0.12765957,-182.14067,-471.1944,0.022049502,0.031064034,0.013445854,1.5005995E-5,0.0,0.0
734.23883,402.76965,98417613,1.0625,0.12765957,-56.0584,-225.8053,0.022049502,0.031064034,0.013445854,1.5005995E-5,0.0,0.0
734.23883,402.3683,98417629,1.2375001,0.12765957,43.058834,99.639595,0.0016396195,-0.1431489,0.010756493,0.0,0.0,0.0
735.4786,404.57214,98417646,1.2875,0.14893617,103.04137,326.19043,0.0016396195,-0.1431489,0.010756493,0.0,0.0,0.0
736.6883,410.89966,98417663,1.25,0.12765957,127.155174,495.19626,0.0016396195,-0.1431489,0.010756493,0.0,0.0,0.0
738.2211,423.57556,98417680,1.0625,0.10638297,127.67537,737.2939,0.0016396195,-0.1431489,0.010756493,0.0,0.0,0.0
743.4155,441.21265,98417696,1.0,0.12765957,228.39172,1117.1173,0.0016396195,-0.1431489,0.010756493,-1.07426495E-4,0.0,0.0
750.26685,465.43494,98417713,0.975,0.11702127,387.58087,1547.8728,0.0016396195,-0.1431489,0.010756493,-1.07426495E-4,0.0,0.0
756.39374,484.49072,98417730,0.975,0.11702127,491.18857,1649.1157,0.0016396195,-0.1431489,0.010756493,-1.07426495E-4,0.0,0.0
762.1115,497.22803,98417746,0.975,0.12765957,498.0842,1331.7856,0.0016396195,-0.1431489,0.010756493,-1.07426495E-4,0.0,0.0
767.7544,507.2588,98417763,0.9875,0.10638297,408.5932,784.533,0.0016396195,-0.1431489,0.010756493,1.7083103E-4,0.0,0.0
772.5647,513.7318,98417780,1.0125,0.10638297,286.5728,228.65451,0.0016396195,-0.1431489,0.010756493,1.7083103E-4,0.0,0.0
779.42694,517.4175,98417796,1.0625,0.10638297,317.51028,42.06334,0.0016396195,-0.1431489,0.010756493,1.7083103E-4,0.0,0.0
787.3034,517.4114,98417813,1.1,0.12765957,420.06564,-99.863686,0.0016396195,-0.1431489,0.010756493,1.7083103E-4,0.0,0.0
795.6151,513.0791,98417830,1.075,0.14893617,521.71234,-300.8285,0.0016396195,-0.1431489,0.010756493,-4.885594E-5,0.0,0.0
802.4363,505.0443,98417847,0.9375,0.12765957,533.40186,-563.87134,0.0016396195,-0.1431489,0.010756493,-4.885594E-5,0.0,0.0
811.48425,488.2019,98417863,0.9125,0.11702127,504.38934,-952.38544,0.0016396195,-0.1431489,0.010756493,-4.885594E-5,0.0,0.0
828.9932,449.9795,98417880,0.95,0.12765957,768.53705,-1872.3457,0.0016396195,-0.1431489,0.010756493,-4.885594E-5,0.0,0.0
841.45605,412.2091,98417897,0.925,0.12765957,957.14343,-2690.7336,0.0016396195,-0.1431489,0.010756493,1.5005995E-5,0.0,0.0
850.2135,378.99536,98417913,0.925,0.11702127,869.37897,-2894.3804,0.0016396195,-0.1431489,0.010756493,1.5005995E-5,0.0,0.0
857.2484,339.5182,98417930,0.9125,0.09574468,575.1928,-2781.955,0.0016396195,-0.1431489,0.010756493,1.5005995E-5,0.0,0.0
863.7751,302.41614,98417947,0.8875,0.14893617,268.33246,-2403.4314,0.0016396195,-0.1431489,0.010756493,1.5005995E-5,0.0,0.0
868.4346,270.19092,98417964,0.925,0.09574468,144.40654,-2099.427,0.0016396195,-0.1431489,0.010756493,3.0011981E-5,0.0,0.0
871.1943,237.70251,98417980,0.9375,0.11702127,123.72757,-1969.9647,0.0016396195,-0.1431489,0.010756493,3.0011981E-5,0.0,0.0
871.7296,211.31079,98417997,0.9125,0.11702127,14.527559,-1624.2805,0.0016396195,-0.1431489,0.010756493,3.0011981E-5,0.0,0.0
872.97003,188.26208,98418014,0.925,0.12765957,-51.771217,-1379.9003,0.0016396195,-0.1431489,0.010756493,3.0011981E-5,0.0,0.0
871.9089,174.03015,98418030,0.9125,0.09574468,-104.4985,-886.44543,0.0016396195,-0.1431489,0.010756493,8.388603E-5,0.0,0.0
870.8788,166.12122,98418047,0.95,0.09574468,-124.97103,-393.52838,0.0016396195,-0.1431489,0.010756493,8.388603E-5,0.0,0.0
869.76715,162.60107,98418064,0.975,0.09574468,-122.48872,17.788847,0.0016396195,-0.1431489,0.010756493,8.388603E-5,0.0,0.0
869.22894,162.47241,98418081,1.1375,0.12765957,-109.76212,335.8287,0.0016396195,-0.1431489,0.010756493,8.388603E-5,0.0,0.0
869.1949,165.14893,98418097,1.2625,0.14893617,-35.05754,412.60645,0.0016396195,-0.1431489,0.010756493,-3.355443E-6,0.0,0.0
868.65186,170.69934,98418114,1.1625,0.12765957,3.0482078,499.65704,0.0016396195,-0.1431489,0.010756493,-3.355443E-6,0.0,0.0
868.1014,182.63257,98418131,0.9125,0.12765957,-8.064742,678.25464,0.0016396195,-0.1431489,0.010756493,-3.355443E-6,0.0,0.0
868.58685,217.08301,98418147,0.925,0.11702127,-0.55578315,1528.0388,0.0016396195,-0.1431489,0.010756493,-3.355443E-6,0.0,0.0
868.31525,254.48633,98418164,0.9125,0.11702127,-3.1042109,2439.9866,-0.04668832,-0.042519093,0.040605545,0.0,0.0,0.0
869.69476,290.61536,98418181,0.8875,0.14893617,42.942368,2925.7222,-0.04668832,-0.042519093,0.040605545,0.0,0.0,0.0
871.37537,330.93933,98418198,0.90000004,0.10638297,108.21736,2925.53,-0.04668832,-0.042519093,0.040605545,0.0,0.0,0.0
872.7839,371.34326,98418214,0.90000004,0.08510638,127.489,2581.9226,-0.04668832,-0.042519093,0.040605545,0.0,0.0,0.0
875.6398,407.2483,98418231,0.90000004,0.12765957,168.58966,2349.2039,-0.04668832,-0.042519093,0.040605545,0.0,0.0,0.0
878.56323,439.14368,98418248,0.90000004,0.10638297,186.13007,2059.5159,-0.04668832,-0.042519093,0.040605545,0.0,0.0,0.0
883.43616,466.16077,98418264,0.90000004,0.10638297,267.38757,1674.0898,-0.04668832,-0.042519093,0.040605545,0.0,0.0,0.0
888.47626,484.39526,98418281,0.9125,0.08510638,333.1334,1207.0479,-0.04668832,-0.042519093,0.040605545,0.0,0.0,0.0
892.67456,492.0902,98418298,0.9125,0.09574468,346.6717,542.67883,-0.04668832,-0.042519093,0.040605545,-1.38348405E-5,0.0,0.0
897.8912,496.73242,98418315,0.9375,0.12765957,326.98862,-38.430862,-0.04668832,-0.042519093,0.040605545,-1.38348405E-5,0.0,0.0
906.2603,499.0785,98418331,0.875,0.11702127,400.77615,-282.22745,-0.04668832,-0.042519093,0.040605545,-1.38348405E-5,0.0,0.0
930.3342,489.11255,98418348,0.75,0.08510638,933.0157,-595.42267,-0.04668832,-0.042519093,0.040605545,-1.38348405E-5,0.0,0.0
935.6733,482.33362,98418354,0.3,0.12765957,1135.2385,-754.244,-0.04668832,-0.042519093,0.040605545,-8.5941196E-5,0.0,0.0
935.6733,482.33362,98418361,0.3,0.12765957,1135.2385,-754.244,-0.04668832,-0.042519093,0.040605545,-8.5941196E-5,0.0,0.0
773.22614,339.28455,98418539,1.2125,0.12765957,0.0,0.0,-0.04668832,-0.042519093,0.040605545,0.0,0.0,0.0
773.22614,339.28455,98418565,1.3375,0.12765957,-0.0143468315,-0.006785286,-0.04668832,-0.042519093,0.040605545,-5.3687072E-5,0.0,0.0
773.22614,339.28455,98418582,1.15,0.10638297,0.04410819,0.017676868,-0.04668832,-0.042519093,0.040605545,-5.3687072E-5,0.0,0.0
802.6662,346.7035,98418599,0.975,0.14893617,1499.4081,378.88638,-0.04668832,-0.042519093,0.040605545,-5.3687072E-5,0.0,0.0
828.2134,354.56873,98418615,0.95,0.10638297,2160.7756,586.9076,-0.04668832,-0.042519093,0.040605545,-5.3687072E-5,0.0,0.0
857.2105,363.33484,98418632,0.9125,0.12765957,2431.0107,710.933,-0.04668832,-0.042519093,0.040605545,2.2935102E-4,0.0,0.0
889.13696,371.3285,98418649,0.90000004,0.10638297,2536.7966,735.277,-0.04668832,-0.042519093,0.040605545,2.2935102E-4,0.0,0.0
927.27124,377.08887,98418665,0.8,0.11702127,2262.3472,510.0788,-0.04668832,-0.042519093,0.040605545,2.2935102E-4,0.0,0.0
952.6677,377.49023,98418675,0.3125,0.12765957,2354.0547,352.35678,-0.04668832,-0.042519093,0.040605545,2.2935102E-4,0.0,0.0
952.6677,377.49023,98418682,0.3125,0.12765957,2354.0547,352.35678,-0.04668832,-0.042519093,0.040605545,2.2935102E-4,0.0,0.0
1005.15063,357.9431,98418828,1.1125001,0.12765957,0.0,0.0,-0.021350652,-0.0020153522,0.01648426,-3.183252E-5,0.0,0.0
1005.15063,357.9431,98418849,1.15,0.12765957,0.025907494,0.0122468425,-0.021350652,-0.0020153522,0.01648426,-3.183252E-5,0.0,0.0
1005.15063,357.9431,98418866,1.1125001,0.12765957,-0.062098473,-0.023270097,-0.021350652,-0.0020153522,0.01648426,-3.183252E-5,0.0,0.0
1005.15063,357.9431,98418883,0.925,0.10638297,0.050816372,0.016716408,-0.021350652,-0.0020153522,0.01648426,-3.355443E-6,0.0,0.0
980.2167,383.04883,98418899,0.83750004,0.11702127,-1031.0764,1023.6161,-0.021350652,-0.0020153522,0.01648426,2.5324104E-4,0.0,0.0
964.2317,402.28223,98418916,0.8125,0.12765957,-1449.7473,1546.2471,-0.021350652,-0.0020153522,0.01648426,2.5324104E-4,0.0,0.0
949.82983,429.75916,98418933,0.7875,0.08510638,-1482.486,2031.769,-0.021350652,-0.0020153522,0.01648426,2.5324104E-4,0.0,0.0
941.6168,446.28345,98418950,0.75,0.11702127,-1055.3395,1816.9635,-0.021350652,-0.0020153522,0.01648426,8.388603E-5,0.0,0.0
938.42896,464.51697,98418966,0.7875,0.09574468,-311.8257,1310.6427,-0.021350652,-0.0020153522,0.01648426,8.388603E-5,0.0,0.0
938.1724,480.15637,98418983,0.825,0.08510638,210.57095,876.9421,-0.021350652,-0.0020153522,0.01648426,8.388603E-5,0.0,0.0
940.545,488.32812,98419000,0.875,0.09574468,375.91565,579.69525,-0.021350652,-0.0020153522,0.01648426,8.388603E-5,0.0,0.0
945.7572,493.7556,98419016,0.9125,0.10638297,430.21887,288.16748,-0.021350652,-0.0020153522,0.01648426,-4.2707805E-5,0.0,0.0
957.30994,499.32275,98419033,0.925,0.12765957,661.8215,59.431156,-0.021350652,-0.0020153522,0.01648426,-4.2707805E-5,0.0,0.0
972.317,500.9922,98419050,0.95,0.12765957,985.433,-17.446056,-0.021350652,-0.0020153522,0.01648426,-4.2707805E-5,0.0,0.0
984.60645,498.82776,98419067,0.96250004,0.10638297,1125.5364,-130.24283,-0.021350652,-0.0020153522,0.01648426,-4.2707805E-5,0.0,0.0
993.3606,492.8125,98419083,0.9375,0.10638297,925.54736,-364.52667,-0.021350652,-0.0020153522,0.01648426,-9.782707E-5,0.0,0.0
999.3638,484.62378,98419100,0.9125,0.09574468,500.8425,-648.8828,-0.021350652,-0.0020153522,0.01648426,-9.782707E-5,0.0,0.0
1005.5027,468.54456,98419117,0.8875,0.12765957,191.91783,-893.8685,-0.021350652,-0.0020153522,0.01648426,-9.782707E-5,0.0,0.0
1008.20276,452.63562,98419133,0.9125,0.08510638,90.20198,-1179.2952,-0.021350652,-0.0020153522,0.01648426,-9.782707E-5,0.0,0.0
1007.0239,437.01147,98419150,0.9375,0.08510638,-46.180435,-1254.4834,-0.021350652,-0.0020153522,0.01648426,0.0,0.0,0.0
1003.12195,418.9574,98419167,0.9375,0.12765957,-250.25241,-1223.0114,-0.021350652,-0.0020153522,0.01648426,0.0,0.0,0.0
998.57043,402.9641,98419184,0.96250004,0.10638297,-439.41385,-1118.0317,-0.021350652,-0.0020153522,0.01648426,0.0,0.0,0.0
993.19446,391.43628,98419200,0.96250004,0.08510638,-516.5633,-868.5366,-0.021350652,-0.0020153522,0.01648426,0.0,0.0,0.0
989.5325,384.37927,98419217,0.9875,0.09574468,-416.50226,-585.8563,-0.08908052,-0.041612387,0.045186996,6.0023962E-5,0.0,0.0
986.3613,379.21338,98419234,0.9875,0.09574468,-247.16188,-207.21487,-0.08908052,-0.041612387,0.045186996,6.0023962E-5,0.0,0.0
983.5464,377.49023,98419250,1.0625,0.11702127,-155.30502,31.614721,-0.08908052,-0.041612387,0.045186996,6.0023962E-5,0.0,0.0
982.3114,377.49023,98419267,1.1125001,0.12765957,-83.374115,139.0131,-0.08908052,-0.041612387,0.045186996,6.0023962E-5,0.0,0.0
981.2748,380.63086,98419284,1.1750001,0.12765957,-23.657742,270.32077,-0.08908052,-0.041612387,0.045186996,2.164193E-4,0.0,0.0
981.58057,384.32202,98419300,1.15,0.12765957,34.35695,388.71643,-0.08908052,-0.041612387,0.045186996,2.164193E-4,0.0,0.0
982.62427,386.3153,98419317,1.0375,0.12765957,94.12224,345.7619,-0.08908052,-0.041612387,0.045186996,2.164193E-4,0.0,0.0
986.6915,390.85913,98419334,0.925,0.11702127,196.9915,275.78107,-0.08908052,-0.041612387,0.045186996,2.164193E-4,0.0,0.0
1001.2621,405.45557,98419351,0.925,0.12765957,588.25385,559.3922,-0.08908052,-0.041612387,0.045186996,-0.0,0.0,0.0
1022.34595,417.19275,98419367,0.9375,0.12765957,1146.4729,835.1762,-0.08908052,-0.041612387,0.045186996,-0.0,0.0,0.0
1042.9984,422.1361,98419384,0.95,0.10638297,1624.7921,842.05786,-0.08908052,-0.041612387,0.045186996,-0.0,0.0,0.0
1063.7029,420.7578,98419401,0.9125,0.12765957,1749.09,382.23886,-0.08908052,-0.041612387,0.045186996,-0.0,0.0,0.0
1085.4324,412.7328,98419417,0.90000004,0.12765957,1625.1511,-370.76166,-0.08908052,-0.041612387,0.045186996,3.613921E-5,0.0,0.0
1100.4203,402.32666,98419434,0.90000004,0.10638297,1159.4186,-963.12103,-0.08908052,-0.041612387,0.045186996,3.613921E-5,0.0,0.0
1112.5765,389.80017,98419451,0.8875,0.10638297,739.4889,-1094.1466,-0.08908052,-0.041612387,0.045186996,3.613921E-5,0.0,0.0
1122.9609,372.1277,98419468,0.90000004,0.12765957,467.86615,-1124.8777,-0.08908052,-0.041612387,0.045186996,3.613921E-5,0.0,0.0
1128.3632,350.81665,98419484,0.90000004,0.12765957,241.67702,-1365.8673,-0.08908052,-0.041612387,0.045186996,-1.893669E-4,0.0,0.0
1128.1951,336.78125,98419501,0.9125,0.09574468,2.750305,-1339.0432,-0.08908052,-0.041612387,0.045186996,-1.893669E-4,0.0,0.0
1125.2572,327.2771,98419518,0.96250004,0.09574468,-305.99808,-960.59436,-0.08908052,-0.041612387,0.045186996,-1.893669E-4,0.0,0.0
1121.641,321.5481,98419534,0.9875,0.10638297,-509.40192,-414.99493,-0.08908052,-0.041612387,0.045186996,-1.893669E-4,0.0,0.0
1117.9745,318.7871,98419551,1.1,0.12765957,-477.93732,39.737465,-0.08908052,-0.041612387,0.045186996,1.709958E-4,0.0,0.0
1114.8972,317.96057,98419568,1.1750001,0.12765957,-326.8657,160.03781,-0.08908052,-0.041612387,0.045186996,1.709958E-4,0.0,0.0
1112.378,319.94873,98419585,1.225,0.12765957,-214.12872,255.91187,-0.08908052,-0.041612387,0.045186996,1.709958E-4,0.0,0.0
1110.6163,325.85474,98419601,1.225,0.12765957,-130.15218,400.92136,-0.08908052,-0.041612387,0.045186996,1.709958E-4,0.0,0.0
1110.8022,330.172,98419618,1.1750001,0.12765957,-27.728344,474.287,-0.08908052,-0.041612387,0.045186996,1.4432285E-4,0.0,0.0
1111.8551,333.91516,98419635,1.0,0.12765957,94.75001,406.94455,-0.08908052,-0.041612387,0.045186996,1.4432285E-4,0.0,0.0
1115.5658,341.96545,98419651,0.8875,0.10638297,206.44565,364.02734,-0.08908052,-0.041612387,0.045186996,1.4432285E-4,0.0,0.0
1124.5098,362.46045,98419668,0.90000004,0.11702127,451.29062,807.0434,-0.08908052,-0.041612387,0.045186996,1.4432285E-4,0.0,0.0
1133.9946,379.95325,98419685,0.8875,0.09574468,691.02527,1333.3267,-0.08908052,-0.041612387,0.045186996,0.0,0.0,0.0
1142.8882,396.29004,98419702,0.8875,0.12765957,765.0895,1430.3296,-0.08908052,-0.041612387,0.045186996,0.0,0.0,0.0
1149.8132,415.5526,98419718,0.8875,0.10638297,669.671,1339.6085,-0.08908052,-0.041612387,0.045186996,0.0,0.0,0.0
1153.0643,431.41846,98419735,0.8875,0.08510638,367.74695,1081.7227,-0.08908052,-0.041612387,0.045186996,0.0,0.0,0.0
1153.6023,442.59412,98419752,0.8875,0.12765957,43.962437,825.91986,-0.055264413,0.05471015,0.020150185,5.533931E-5,0.0,0.0
1150.9473,457.30603,98419768,0.8875,0.12765957,-212.9237,743.0021,-0.055264413,0.05471015,0.020150185,5.533931E-5,0.0,0.0
1145.0936,467.0675,98419785,0.90000004,0.09574468,-451.7462,575.1385,-0.055264413,0.05471015,0.020150185,5.533931E-5,0.0,0.0
1132.7102,480.8562,98419802,0.8875,0.10638297,-707.0226,608.6107,-0.055264413,0.05471015,0.020150185,5.533931E-5,0.0,0.0
1117.1743,493.4574,98419819,0.9375,0.09574468,-1016.7774,711.7685,-0.055264413,0.05471015,0.020150185,1.38348405E-5,0.0,0.0
1107.3386,497.33984,98419835,0.9875,0.12765957,-1075.5222,537.06116,-0.055264413,0.05471015,0.020150185,1.38348405E-5,0.0,0.0
1100.7994,499.2152,98419852,0.95,0.12765957,-742.11163,177.88698,-0.055264413,0.05471015,0.020150185,1.38348405E-5,0.0,0.0
1096.0916,498.67163,98419869,0.8625,0.12765957,-301.24078,-177.45258,-0.055264413,0.05471015,0.020150185,1.38348405E-5,0.0,0.0
1068.63,502.76917,98419880,0.275,0.10638297,-529.21594,-252.3228,-0.055264413,0.05471015,0.020150185,1.38348405E-5,0.0,0.0
1068.63,502.76917,98419887,0.275,0.10638297,-529.21594,-252.3228,-0.055264413,0.05471015,0.020150185,1.38348405E-5,0.0,0.0
