x,y,timestamp,pressure,fingerarea,velocityx,velocityy,accelx,accely,accelz,gyrox,gyroy,gyroz
208.90985,262.8733,13131459,0.6625,0.08510638,0.0,0.0,0.0046153516,0.032550156,0.022727013,0.0,0.0,0.0
208.90985,262.8733,13131489,0.71250004,0.09574468,-0.017652832,-0.019621246,0.0046153516,0.032550156,0.022727013,0.0,0.0,0.0
208.90985,262.8733,13131506,0.7375,0.08510638,0.005101513,0.0054591945,0.0046153516,0.032550156,0.022727013,0.0,0.0,0.0
208.90985,262.8733,13131510,0.75,0.09574468,0.0036257538,0.0039392686,0.0046153516,0.032550156,0.022727013,0.0,0.0,0.0
208.90985,262.8733,13131539,0.77500004,0.09574468,-0.0038039593,-0.0037246686,0.0046153516,0.032550156,0.022727013,0.0,0.0,0.0
208.90985,262.8733,13131556,0.77500004,0.09574468,0.006743972,0.007738596,0.0046153516,0.032550156,0.022727013,0.0,0.0,0.0
208.90985,262.8733,13131567,0.7625,0.09574468,-0.0036370973,-0.005829713,0.0046153516,0.032550156,0.022727013,0.0,0.0,0.0
208.90985,262.8733,13131588,0.7875,0.11702127,0.009635507,0.011491337,0.0046153516,0.032550156,0.022727013,0.0,0.0,0.0
208.90985,262.8733,13131606,0.8,0.12765957,-0.002260443,-0.0020985745,0.0046153516,0.032550156,0.022727013,0.0,0.0,0.0
208.90985,262.8733,13131623,0.825,0.12765957,-0.00930796,-0.012260646,0.0046153516,0.032550156,0.022727013,0.0,0.0,0.0
191.39603,246.86292,13131640,0.8125,0.10638297,-559.2066,-512.3385,0.0046153516,0.032550156,0.022727013,0.0,0.0,0.0
183.36574,239.00562,13131656,0.83750004,0.09574468,-883.80334,-819.64355,0.0046153516,0.032550156,0.022727013,0.0,0.0,0.0
179.38644,233.49402,13131673,0.825,0.09574468,-752.61676,-754.5186,0.0046153516,0.032550156,0.022727013,0.0,0.0,0.0
176.26881,227.27002,13131690,0.85,0.08510638,-314.8687,-458.14923,0.0046153516,0.032550156,0.022727013,0.0,0.0,0.0
173.16925,219.18188,13131706,0.85,0.08510638,36.62921,-266.76376,0.0046153516,0.032550156,0.022727013,0.0,0.0,0.0
171.45404,211.5675,13131723,0.8625,0.08510638,-23.334995,-453.0969,0.0046153516,0.032550156,0.022727013,0.0,0.0,0.0
171.42206,204.16943,13131740,0.85,0.10638297,-5.7993617,-507.15613,0.0036922842,-0.0059598684,-0.013818741,0.0,0.0,0.0
172.5065,196.82263,13131756,0.8625,0.10638297,71.45852,-487.51962,0.0036922842,-0.0059598684,-0.013818741,0.0,0.0,0.0
175.09746,189.3883,13131773,0.8625,0.10638297,190.45238,-444.06216,0.0036922842,-0.0059598684,-0.013818741,0.0,0.0,0.0
177.1929,183.95813,13131790,0.875,0.10638297,233.80348,-374.9251,0.0036922842,-0.0059598684,-0.013818741,0.0,0.0,0.0
179.06361,178.84204,13131807,0.875,0.10638297,206.29703,-321.58047,0.0036922842,-0.0059598684,-0.013818741,0.0,0.0,0.0
181.12741,174.17041,13131823,0.8625,0.08510638,159.7474,-253.13676,0.0036922842,-0.0059598684,-0.013818741,0.0,0.0,0.0
182.91023,170.4834,13131840,0.8625,0.08510638,95.64134,-188.62215,0.0036922842,-0.0059598684,-0.013818741,0.0,0.0,0.0
185.23427,167.3197,13131857,0.8625,0.08510638,111.65318,-163.60751,0.0036922842,-0.0059598684,-0.013818741,0.0,0.0,0.0
187.8899,165.44995,13131873,0.8625,0.08510638,143.50128,-103.89581,0.0036922842,-0.0059598684,-0.013818741,0.0,0.0,0.0
191.85764,165.13794,13131890,0.8625,0.08510638,210.14783,-29.66549,0.0036922842,-0.0059598684,-0.013818741,0.0,0.0,0.0
196.01315,166.73682,13131907,0.875,0.11702127,271.8365,90.48144,0.0036922842,-0.0059598684,-0.013818741,0.0,0.0,0.0
200.60733,169.36353,13131924,0.8625,0.11702127,302.92996,204.26657,0.0036922842,-0.0059598684,-0.013818741,0.0,0.0,0.0
206.81915,173.94177,13131940,0.85,0.10638297,357.53464,307.4231,0.0036922842,-0.0059598684,-0.013818741,0.0,0.0,0.0
215.11935,179.495,13131957,0.8625,0.12765957,466.79727,398.79214,0.0036922842,-0.0059598684,-0.013818741,0.0,0.0,0.0
225.49762,185.03638,13131974,0.8625,0.12765957,620.38995,431.4592,0.0036922842,-0.0059598684,-0.013818741,0.0,0.0,0.0
237.06396,190.57971,13131990,0.83750004,0.10638297,758.9957,419.26605,0.0036922842,-0.0059598684,-0.013818741,0.0,0.0,0.0
248.54459,194.10242,13132007,0.85,0.11702127,807.7444,321.8929,0.0036922842,-0.0059598684,-0.013818741,0.0,0.0,0.0
257.774,197.86646,13132024,0.85,0.11702127,725.4636,222.22069,0.0036922842,-0.0059598684,-0.013818741,0.0,0.0,0.0
270.00616,200.177,13132041,0.83750004,0.10638297,654.58307,129.2216,0.0036922842,-0.0059598684,-0.013818741,0.0,0.0,0.0
283.85464,201.56665,13132057,0.83750004,0.10638297,770.6684,74.95952,0.0036922842,-0.0059598684,-0.013818741,0.0,0.0,0.0
297.11865,202.45508,13132074,0.83750004,0.10638297,864.0266,26.532833,0.0036922842,-0.0059598684,-0.013818741,0.0,0.0,0.0
307.6194,201.85071,13132091,0.85,0.11702127,820.96826,-43.04959,0.0036922842,-0.0059598684,-0.013818741,0.0,0.0,0.0
320.25745,200.89905,13132107,0.83750004,0.10638297,701.40125,-102.07915,0.0036922842,-0.0059598684,-0.013818741,0.0,0.0,0.0
334.07077,198.19006,13132124,0.85,0.09574468,696.04846,-176.48843,0.0036922842,-0.0059598684,-0.013818741,0.0,0.0,0.0
347.9114,195.42029,13132141,0.825,0.12765957,822.7981,-228.08939,0.0036922842,-0.0059598684,-0.013818741,0.0,0.0,0.0
358.37772,193.56677,13132158,0.83750004,0.12765957,787.5835,-204.532,0.0036922842,-0.0059598684,-0.013818741,0.0,0.0,0.0
369.89963,191.719,13132174,0.825,0.12765957,686.1953,-150.22018,0.0036922842,-0.0059598684,-0.013818741,0.0,0.0,0.0
381.80917,188.8446,13132191,0.825,0.12765957,624.2065,-129.44281,0.0036922842,-0.0059598684,-0.013818741,0.0,0.0,0.0
392.19846,186.02637,13132208,0.83750004,0.12765957,609.057,-145.416,0.0036922842,-0.0059598684,-0.013818741,0.0,0.0,0.0
401.1705,183.12463,13132224,0.825,0.12765957,599.65393,-182.64886,0.0036922842,-0.0059598684,-0.013818741,0.0,0.0,0.0
407.13678,180.77942,13132241,0.85,0.11702127,462.36905,-196.49004,0.0036922842,-0.0059598684,-0.013818741,0.0,0.0,0.0
411.00818,178.96057,13132258,0.8125,0.11702127,206.69807,-142.19041,0.0036922842,-0.0059598684,-0.013818741,0.0,0.0,0.0
412.60568,177.1112,13132274,0.825,0.10638297,32.10786,-94.49202,0.0029538274,-0.0047678947,0.0049448013,0.0,0.0,0.0
413.66113,175.23499,13132291,0.825,0.11702127,-84.4401,-77.34442,0.0029538274,-0.0047678947,0.0049448013,0.0,0.0,0.0
413.84314,173.57861,13132307,0.825,0.11702127,-110.7611,-83.01938,0.0029538274,-0.0047678947,0.0049448013,0.0,0.0,0.0
413.84314,172.24597,13132341,0.825,0.10638297,-59.187485,-33.942158,0.0029538274,-0.0047678947,0.0049448013,0.0,0.0,0.0
413.84314,172.24597,13132358,0.83750004,0.10638297,-32.458267,8.861413,0.0029538274,-0.0047678947,0.0049448013,0.0,0.0,0.0
413.32742,172.24597,13132375,0.8625,0.10638297,-26.58748,27.218393,0.0029538274,-0.0047678947,0.0049448013,0.0,0.0,0.0
412.78748,172.24597,13132391,0.83750004,0.10638297,-32.59129,24.680962,0.0029538274,-0.0047678947,0.0049448013,0.0,0.0,0.0
411.74637,172.24597,13132408,0.85,0.10638297,-68.39851,11.771605,0.0029538274,-0.0047678947,0.0049448013,0.0,0.0,0.0
410.70297,172.24597,13132425,0.83750004,0.10638297,-80.7348,8.848318,0.0029538274,-0.0047678947,0.0049448013,0.0,0.0,0.0
409.6288,172.24597,13132442,0.83750004,0.10638297,-83.443054,0.00448933,0.0029538274,-0.0047678947,0.0049448013,0.0,0.0,0.0
407.43155,172.24597,13132458,0.825,0.10638297,-106.900696,-8.945978E-4,0.0029538274,-0.0047678947,0.0049448013,0.0,0.0,0.0
405.13388,172.24597,13132475,0.83750004,0.10638297,-140.33775,0.01850321,0.0029538274,-0.0047678947,0.0049448013,0.0,0.0,0.0
402.47733,173.64954,13132492,0.83750004,0.10638297,-179.36896,34.94056,0.0029538274,-0.0047678947,0.0049448013,0.0,0.0,0.0
399.35425,175.50012,13132508,0.825,0.12765957,-204.68828,103.68819,0.0029538274,-0.0047678947,0.0049448013,0.0,0.0,0.0
397.10867,175.80005,13132525,0.825,0.12765957,-186.24126,115.61057,0.0029538274,-0.0047678947,0.0049448013,0.0,0.0,0.0
395.04697,177.40137,13132542,0.825,0.12765957,-147.27995,92.5996,0.0029538274,-0.0047678947,0.0049448013,0.0,0.0,0.0
393.40317,178.46545,13132559,0.83750004,0.12765957,-104.80017,73.75359,0.0029538274,-0.0047678947,0.0049448013,0.0,0.0,0.0
391.3788,180.2174,13132575,0.85,0.12765957,-82.767395,71.08517,0.0029538274,-0.0047678947,0.0049448013,0.0,0.0,0.0
388.76556,183.00964,13132592,0.83750004,0.12765957,-113.64954,136.22643,0.0029538274,-0.0047678947,0.0049448013,0.0,0.0,0.0
385.6461,186.70642,13132609,0.85,0.12765957,-170.1296,213.1164,0.0029538274,-0.0047678947,0.0049448013,0.0,0.0,0.0
383.63437,190.40442,13132625,0.85,0.10638297,-178.21793,260.38058,0.0029538274,-0.0047678947,0.0049448013,0.0,0.0,0.0
381.06403,196.1195,13132642,0.83750004,0.11702127,-168.17122,338.92044,0.0029538274,-0.0047678947,0.0049448013,0.0,0.0,0.0
378.99637,201.63269,13132659,0.85,0.09574468,-136.5967,376.4951,0.0029538274,-0.0047678947,0.0049448013,0.0,0.0,0.0
376.94592,206.21143,13132676,0.83750004,0.09574468,-110.714966,348.12555,0.0029538274,-0.0047678947,0.0049448013,0.0,0.0,0.0
374.83932,211.82837,13132692,0.83750004,0.11702127,-117.92287,341.3921,0.0029538274,-0.0047678947,0.0049448013,0.0,0.0,0.0
372.7606,217.37097,13132709,0.85,0.11702127,-115.6731,328.05676,0.0029538274,-0.0047678947,0.0049448013,0.0,0.0,0.0
370.6769,222.927,13132726,0.83750004,0.11702127,-119.57384,340.6658,0.0029538274,-0.0047678947,0.0049448013,0.0,0.0,0.0
369.1068,228.44629,13132742,0.83750004,0.12765957,-109.60941,348.00278,0.0029538274,-0.0047678947,0.0049448013,0.0,0.0,0.0
366.0858,235.68018,13132759,0.83750004,0.12765957,-127.61655,371.45267,0.0029538274,-0.0047678947,0.0049448013,0.0,0.0,0.0
362.03677,243.01208,13132776,0.85,0.10638297,-194.62769,434.18045,0.0029538274,-0.0047678947,0.0049448013,0.0,0.0,0.0
358.3603,252.21338,13132792,0.8625,0.08510638,-259.88983,537.2931,0.0029538274,-0.0047678947,0.0049448013,0.0,0.0,0.0
355.3091,261.682,13132809,0.8625,0.08510638,-264.94586,613.0663,0.002363056,0.012185678,-0.012043953,0.0,0.0,0.0
351.02527,273.39832,13132826,0.83750004,0.09574468,-249.1231,708.08514,0.002363056,0.012185678,-0.012043953,0.0,0.0,0.0
348.4846,282.65674,13132843,0.85,0.10638297,-197.51689,691.83344,0.002363056,0.012185678,-0.012043953,0.0,0.0,0.0
346.05212,292.08582,13132859,0.85,0.10638297,-156.88078,614.62494,0.002363056,0.012185678,-0.012043953,0.0,0.0,0.0
344.49866,304.57642,13132876,0.85,0.09574468,-109.737335,633.9213,0.002363056,0.012185678,-0.012043953,0.0,0.0,0.0
343.13092,319.5276,13132893,0.85,0.08510638,-47.32437,813.08826,0.002363056,0.012185678,-0.012043953,0.0,0.0,0.0
343.1431,332.46387,13132909,0.83750004,0.09574468,-6.297531,930.10205,0.002363056,0.012185678,-0.012043953,0.0,0.0,0.0
342.86624,345.0016,13132926,0.85,0.10638297,35.853096,897.03174,0.002363056,0.012185678,-0.012043953,0.0,0.0,0.0
343.20547,359.81616,13132943,0.85,0.09574468,47.508987,800.91693,0.002363056,0.012185678,-0.012043953,0.0,0.0,0.0
344.64883,378.92505,13132960,0.83750004,0.08510638,78.354744,945.83923,0.002363056,0.012185678,-0.012043953,0.0,0.0,0.0
346.29208,394.2218,13132976,0.825,0.10638297,117.85762,1102.261,0.002363056,0.012185678,-0.012043953,0.0,0.0,0.0
348.30164,409.02966,13132993,0.83750004,0.10638297,148.36884,1072.7605,0.002363056,0.012185678,-0.012043953,0.0,0.0,0.0
349.38635,424.0083,13133010,0.825,0.08510638,134.0479,907.6778,0.002363056,0.012185678,-0.012043953,0.0,0.0,0.0
349.86395,436.7179,13133026,0.825,0.10638297,69.94739,774.75055,0.002363056,0.012185678,-0.012043953,0.0,0.0,0.0
348.17624,445.8529,13133043,0.825,0.10638297,-42.959267,618.66296,0.002363056,0.012185678,-0.012043953,0.0,0.0,0.0
344.76752,454.34155,13133060,0.8125,0.10638297,-179.76749,469.56805,0.002363056,0.012185678,-0.012043953,0.0,0.0,0.0
339.6937,459.73425,13133077,0.83750004,0.10638297,-322.5477,265.57986,0.002363056,0.012185678,-0.012043953,0.0,0.0,0.0
329.7768,467.82874,13133093,0.83750004,0.09574468,-512.1321,233.30556,0.002363056,0.012185678,-0.012043953,0.0,0.0,0.0
318.3806,474.77856,13133110,0.83750004,0.08510638,-772.26526,389.4546,0.002363056,0.012185678,-0.012043953,0.0,0.0,0.0
302.9303,480.33154,13133127,0.825,0.08510638,-1007.2259,402.9148,0.002363056,0.012185678,-0.012043953,0.0,0.0,0.0
287.3635,482.33362,13133143,0.825,0.08510638,-1145.8468,264.8828,0.002363056,0.012185678,-0.012043953,0.0,0.0,0.0
273.4623,480.235,13133160,0.825,0.09574468,-1070.5393,-58.980167,0.002363056,0.012185678,-0.012043953,0.0,0.0,0.0
259.20596,475.55872,13133177,0.83750004,0.08510638,-903.96356,-405.5738,0.002363056,0.012185678,-0.012043953,0.0,0.0,0.0
242.88602,470.2041,13133194,0.825,0.09574468,-881.2994,-523.4639,0.002363056,0.012185678,-0.012043953,0.0,0.0,0.0
227.58661,466.38696,13133210,0.83750004,0.10638297,-900.9989,-496.5317,0.002363056,0.012185678,-0.012043953,0.0,0.0,0.0
216.98672,462.62048,13133227,0.85,0.12765957,-823.2688,-323.37067,0.002363056,0.012185678,-0.012043953,0.0,0.0,0.0
210.00906,457.09973,13133244,0.83750004,0.12765957,-568.3883,-274.38037,0.002363056,0.012185678,-0.012043953,0.0,0.0,0.0
203.68542,452.46008,13133260,0.83750004,0.10638297,-286.0856,-282.36588,0.002363056,0.012185678,-0.012043953,0.0,0.0,0.0
198.09082,447.98584,13133277,0.83750004,0.10638297,-141.31064,-302.63214,0.002363056,0.012185678,-0.012043953,0.0,0.0,0.0
195.75876,445.6289,13133294,0.8125,0.10638297,-92.82463,-244.41327,0.002363056,0.012185678,-0.012043953,0.0,0.0,0.0
194.9144,445.01648,13133307,0.4875,0.08510638,-51.37555,-139.23859,0.002363056,0.012185678,-0.012043953,0.0,0.0,0.0
194.9144,445.01648,13133314,0.4875,0.08510638,-51.37555,-139.23859,0.002363056,0.012185678,-0.012043953,0.0,0.0,0.0
284.38528,387.2638,13133596,0.7875,0.08510638,0.0,0.0,-0.014109552,0.025748536,-0.009634972,0.0,0.0,0.0
284.38528,387.2638,13133628,0.8125,0.08510638,0.019675694,0.026862046,-0.014109552,0.025748536,-0.009634972,0.0,0.0,0.0
300.32684,381.77905,13133645,0.825,0.09574468,1142.407,-393.0147,-0.014109552,0.025748536,-0.009634972,0.0,0.0,0.0
317.3268,377.29114,13133661,0.825,0.08510638,1507.3794,-455.70108,-0.014109552,0.025748536,-0.009634972,0.0,0.0,0.0
339.50125,373.59155,13133678,0.825,0.08510638,1720.5144,-396.53165,-0.014109552,0.025748536,-0.009634972,0.0,0.0,0.0
361.9645,369.6626,13133695,0.65000004,0.09574468,1808.8464,-340.8511,-0.014109552,0.025748536,-0.009634972,0.0,0.0,0.0
361.9645,369.6626,13133701,0.65000004,0.09574468,1808.8464,-340.8511,-0.014109552,0.025748536,-0.009634972,0.0,0.0,0.0
441.834,356.16614,13134684,0.625,0.10638297,0.0,0.0,-0.025030114,-0.05392094,-0.038166046,0.0,0.0,0.0
441.834,356.16614,13134714,0.6875,0.10638297,-0.0155890975,-0.010664467,-0.025030114,-0.05392094,-0.038166046,0.0,0.0,0.0
441.834,356.16614,13134728,0.7375,0.12765957,-0.012347938,-0.006249094,-0.025030114,-0.05392094,-0.038166046,0.0,0.0,0.0
441.834,356.16614,13134764,0.7625,0.10638297,0.013317239,0.008140168,-0.025030114,-0.05392094,-0.038166046,0.0,0.0,0.0
441.834,356.16614,13134781,0.7625,0.09574468,0.019965084,0.016545525,-0.025030114,-0.05392094,-0.038166046,0.0,0.0,0.0
430.5215,376.27515,13134798,0.77500004,0.09574468,-301.76474,536.4339,-0.025030114,-0.05392094,-0.038166046,0.0,0.0,0.0
425.60492,387.05286,13134814,0.77500004,0.11702127,-550.9172,1036.26,-0.025030114,-0.05392094,-0.038166046,0.0,0.0,0.0
423.4657,398.14404,13134831,0.77500004,0.12765957,-489.0876,1188.0144,-0.025030114,-0.05392094,-0.038166046,0.0,0.0,0.0
422.97876,408.53467,13134848,0.7625,0.09574468,-263.96695,993.3063,-0.025030114,-0.05392094,-0.038166046,0.0,0.0,0.0
425.5467,421.2943,13134865,0.77500004,0.09574468,210.48447,623.1479,-0.025030114,-0.05392094,-0.038166046,0.0,0.0,0.0
428.99832,431.60034,13134881,0.77500004,0.08510638,403.8037,568.3881,-0.025030114,-0.05392094,-0.038166046,0.0,0.0,0.0
432.65897,437.00476,13134898,0.77500004,0.10638297,370.98462,525.826,-0.025030114,-0.05392094,-0.038166046,0.0,0.0,0.0
440.2324,442.505,13134915,0.7875,0.09574468,435.94104,275.29807,-0.025030114,-0.05392094,-0.038166046,0.0,0.0,0.0
449.02625,445.72607,13134931,0.77500004,0.09574468,552.1718,59.43217,-0.0040240884,0.02086325,0.033467293,0.0,0.0,0.0
457.90125,446.79346,13134948,0.77500004,0.10638297,654.66406,-7.8071957,-0.0040240884,0.02086325,0.033467293,0.0,0.0,0.0
465.23358,444.17505,13134965,0.7625,0.08510638,637.69916,-126.60161,-0.0040240884,0.02086325,0.033467293,0.0,0.0,0.0
471.9878,435.88928,13134982,0.7625,0.09574468,485.4996,-434.36624,-0.0040240884,0.02086325,0.033467293,0.0,0.0,0.0
479.9135,423.66064,13134998,0.77500004,0.10638297,395.9645,-789.87146,-0.0040240884,0.02086325,0.033467293,0.0,0.0,0.0
488.06824,411.88916,13135015,0.7875,0.12765957,433.9296,-991.17114,-0.0040240884,0.02086325,0.033467293,0.0,0.0,0.0
495.18475,399.93726,13135032,0.77500004,0.08510638,461.59564,-998.6895,-0.0040240884,0.02086325,0.033467293,0.0,0.0,0.0
503.57532,382.92505,13135048,0.77500004,0.08510638,486.31198,-1002.4154,-0.0040240884,0.02086325,0.033467293,0.0,0.0,0.0
508.23346,371.9253,13135065,0.8,0.08510638,401.55365,-918.6423,-0.0040240884,0.02086325,0.033467293,0.0,0.0,0.0
510.85883,365.39038,13135082,0.8,0.12765957,198.36954,-625.03394,-0.0040240884,0.02086325,0.033467293,0.0,0.0,0.0
512.61176,359.00513,13135099,0.7875,0.12765957,52.93173,-335.31265,-0.0040240884,0.02086325,0.033467293,0.0,0.0,0.0
512.8109,355.55664,13135115,0.7875,0.12765957,-83.47153,-64.24262,-0.0040240884,0.02086325,0.033467293,0.0,0.0,0.0
512.8109,353.72302,13135132,0.8125,0.12765957,-115.07439,38.7245,-0.0040240884,0.02086325,0.033467293,0.0,0.0,0.0
512.8109,353.5006,13135149,0.8125,0.12765957,-75.63188,46.194218,-0.0040240884,0.02086325,0.033467293,0.0,0.0,0.0
512.3532,354.3142,13135165,0.8,0.10638297,-68.14712,147.59648,-0.0040240884,0.02086325,0.033467293,0.0,0.0,0.0
510.81305,357.9392,13135182,0.8,0.09574468,-66.032745,219.7235,-0.0040240884,0.02086325,0.033467293,0.0,0.0,0.0
509.7674,367.3031,13135199,0.8125,0.08510638,-95.1666,459.2472,-0.0040240884,0.02086325,0.033467293,0.0,0.0,0.0
509.23285,379.365,13135215,0.8,0.09574468,-86.188774,769.9222,-0.0040240884,0.02086325,0.033467293,0.0,0.0,0.0
509.31207,388.15308,13135232,0.7875,0.10638297,-37.447304,881.07733,-0.0040240884,0.02086325,0.033467293,0.0,0.0,0.0
510.4862,398.89832,13135249,0.8,0.10638297,46.535152,819.0161,-0.0040240884,0.02086325,0.033467293,0.0,0.0,0.0
513.50323,407.9735,13135266,0.8,0.10638297,148.2013,653.54,-0.0040240884,0.02086325,0.033467293,0.0,0.0,0.0
517.2425,415.99133,13135282,0.8125,0.08510638,252.94543,473.3181,-0.0040240884,0.02086325,0.033467293,0.0,0.0,0.0
521.67926,425.2406,13135299,0.8,0.08510638,331.65808,507.09308,-0.0040240884,0.02086325,0.033467293,0.0,0.0,0.0
525.43933,431.92432,13135316,0.7875,0.09574468,339.88776,482.3869,-0.0040240884,0.02086325,0.033467293,0.0,0.0,0.0
528.1124,436.0957,13135332,0.8,0.11702127,244.6078,316.37927,-0.0040240884,0.02086325,0.033467293,0.0,0.0,0.0
533.2376,441.0597,13135349,0.7875,0.10638297,214.50388,198.04805,-0.0040240884,0.02086325,0.033467293,0.0,0.0,0.0
540.7533,444.77283,13135366,0.8125,0.12765957,321.5241,115.83077,-0.0040240884,0.02086325,0.033467293,0.0,0.0,0.0
549.1075,447.63342,13135383,0.8,0.10638297,511.70825,129.00087,-0.0040240884,0.02086325,0.033467293,0.0,0.0,0.0
557.15686,449.4314,13135399,0.8,0.10638297,622.701,115.78698,-0.0040240884,0.02086325,0.033467293,0.0,0.0,0.0
565.20276,449.45898,13135416,0.8,0.12765957,582.5042,5.732303,-0.0040240884,0.02086325,0.033467293,0.0,0.0,0.0
572.3654,449.45898,13135433,0.7875,0.10638297,497.01996,-65.18095,-0.0040240884,0.02086325,0.033467293,0.0,0.0,0.0
578.44415,449.45898,13135449,0.7875,0.11702127,402.76218,-81.16281,-0.0040240884,0.02086325,0.033467293,0.0,0.0,0.0
582.43695,448.28235,13135466,0.7875,0.11702127,280.9942,-83.76669,0.012780726,0.016690597,0.026774406,0.0,0.0,0.0
585.70526,446.422,13135483,0.77500004,0.11702127,165.15636,-112.13769,0.012780726,0.016690597,0.026774406,0.0,0.0,0.0
587.7841,444.57434,13135500,0.8,0.09574468,68.47142,-143.06042,0.012780726,0.016690597,0.026774406,0.0,0.0,0.0
589.865,442.72485,13135516,0.7875,0.08510638,43.480053,-161.08847,0.012780726,0.016690597,0.026774406,0.0,0.0,0.0
591.61273,440.8806,13135533,0.7875,0.08510638,57.160538,-136.43013,0.012780726,0.016690597,0.026774406,0.0,0.0,0.0
593.15,438.38745,13135550,0.7875,0.08510638,61.082375,-121.38405,0.012780726,0.016690597,0.026774406,0.0,0.0,0.0
594.1848,435.59705,13135566,0.7875,0.08510638,61.405033,-154.68234,0.012780726,0.016690597,0.026774406,0.0,0.0,0.0
595.22797,432.77673,13135583,0.7875,0.08510638,43.562656,-183.82898,0.012780726,0.016690597,0.026774406,0.0,0.0,0.0
596.7708,429.06885,13135600,0.7875,0.08510638,53.34864,-220.02446,0.012780726,0.016690597,0.026774406,0.0,0.0,0.0
598.3106,425.37146,13135617,0.77500004,0.08510638,83.346466,-244.19785,0.012780726,0.016690597,0.026774406,0.0,0.0,0.0
600.4143,421.68103,13135633,0.77500004,0.10638297,113.99085,-247.51749,0.012780726,0.016690597,0.026774406,0.0,0.0,0.0
603.58923,416.03723,13135650,0.7875,0.12765957,166.51396,-298.509,0.012780726,0.016690597,0.026774406,0.0,0.0,0.0
609.06116,409.25378,13135667,0.77500004,0.10638297,269.30753,-374.28677,0.012780726,0.016690597,0.026774406,0.0,0.0,0.0
615.59485,401.69617,13135683,0.7875,0.10638297,393.535,-468.10648,0.012780726,0.016690597,0.026774406,0.0,0.0,0.0
621.5981,393.30176,13135700,0.8,0.08510638,472.48004,-556.076,0.012780726,0.016690597,0.026774406,0.0,0.0,0.0
627.33405,382.21606,13135717,0.7875,0.08510638,445.08368,-637.66187,0.012780726,0.016690597,0.026774406,0.0,0.0,0.0
631.9168,371.39355,13135734,0.77500004,0.11702127,351.0954,-752.59595,0.012780726,0.016690597,0.026774406,0.0,0.0,0.0
637.4742,359.0453,13135750,0.7625,0.12765957,270.75247,-764.7837,0.012780726,0.016690597,0.026774406,0.0,0.0,0.0
644.0119,344.62903,13135767,0.7625,0.11702127,295.75107,-827.827,0.012780726,0.016690597,0.026774406,0.0,0.0,0.0
652.0488,327.59473,13135784,0.7625,0.08510638,425.83408,-980.91223,0.012780726,0.016690597,0.026774406,0.0,0.0,0.0
657.09717,314.80164,13135800,0.7625,0.10638297,468.1201,-1039.0139,0.012780726,0.016690597,0.026774406,0.0,0.0,0.0
662.62354,302.29578,13135817,0.77500004,0.10638297,413.11533,-963.1266,0.012780726,0.016690597,0.026774406,0.0,0.0,0.0
669.45886,287.2566,13135834,0.7625,0.08510638,338.2199,-784.2297,0.012780726,0.016690597,0.026774406,0.0,0.0,0.0
674.1494,273.2079,13135850,0.75,0.08510638,290.20764,-757.5229,0.012780726,0.016690597,0.026774406,0.0,0.0,0.0
676.096,262.76013,13135867,0.7625,0.09574468,200.08354,-734.2989,0.012780726,0.016690597,0.026774406,0.0,0.0,0.0
678.5531,253.29822,13135884,0.77500004,0.12765957,112.9281,-635.12946,0.012780726,0.016690597,0.026774406,0.0,0.0,0.0
680.65063,243.35156,13135901,0.7625,0.12765957,40.026814,-516.97186,0.012780726,0.016690597,0.026774406,0.0,0.0,0.0
682.45245,232.44067,13135917,0.7625,0.08510638,32.40255,-489.60907,0.012780726,0.016690597,0.026774406,0.0,0.0,0.0
683.75525,221.34216,13135934,0.7625,0.08510638,83.22936,-618.4992,0.012780726,0.016690597,0.026774406,0.0,0.0,0.0
683.25543,210.00146,13135951,0.77500004,0.08510638,6.5049663,-717.16455,0.012780726,0.016690597,0.026774406,0.0,0.0,0.0
682.05396,202.62622,13135967,0.77500004,0.10638297,-75.72093,-603.9249,0.012780726,0.016690597,0.026774406,0.0,0.0,0.0
679.9748,195.92896,13135984,0.7875,0.12765957,-165.70633,-428.3813,0.012780726,0.016690597,0.026774406,0.0,0.0,0.0
677.4768,192.0531,13136001,0.7625,0.12765957,-208.92793,-220.46281,0.012780726,0.016690597,0.026774406,0.0,0.0,0.0
673.8775,188.34473,13136018,0.77500004,0.10638297,-230.3759,-95.36067,-0.005775422,0.0133524835,0.03741932,0.0,0.0,0.0
668.71313,185.55676,13136034,0.77500004,0.12765957,-304.90485,-83.00345,-0.005775422,0.0133524835,0.03741932,0.0,0.0,0.0
664.00494,183.7052,13136051,0.77500004,0.12765957,-344.79852,-55.297596,-0.005775422,0.0133524835,0.03741932,0.0,0.0,0.0
658.8964,183.79651,13136068,0.7625,0.12765957,-368.88187,1.211836,-0.005775422,0.0133524835,0.03741932,0.0,0.0,0.0
654.38837,185.79651,13136084,0.77500004,0.12765957,-335.83508,111.31469,-0.005775422,0.0133524835,0.03741932,0.0,0.0,0.0
650.3145,189.64832,13136101,0.77500004,0.11702127,-265.01053,239.92949,-0.005775422,0.0133524835,0.03741932,0.0,0.0,0.0
645.2526,199.28882,13136118,0.7875,0.09574468,-255.50214,481.22437,-0.005775422,0.0133524835,0.03741932,0.0,0.0,0.0
640.7948,212.1377,13136135,0.7875,0.09574468,-265.8111,807.3589,-0.005775422,0.0133524835,0.03741932,0.0,0.0,0.0
637.4142,223.64929,13136151,0.77500004,0.10638297,-254.1533,989.151,-0.005775422,0.0133524835,0.03741932,0.0,0.0,0.0
634.29193,235.52856,13136168,0.77500004,0.12765957,-196.54672,932.191,-0.005775422,0.0133524835,0.03741932,0.0,0.0,0.0
631.1824,248.49158,13136185,0.7875,0.10638297,-139.59947,811.4045,-0.005775422,0.0133524835,0.03741932,0.0,0.0,0.0
628.9735,264.64673,13136201,0.8,0.08510638,-125.33546,845.7799,-0.005775422,0.0133524835,0.03741932,0.0,0.0,0.0
627.2737,277.85986,13136218,0.7875,0.10638297,-109.53956,940.57227,-0.005775422,0.0133524835,0.03741932,0.0,0.0,0.0
625.7969,291.063,13136235,0.7875,0.12765957,-70.74409,928.05475,-0.005775422,0.0133524835,0.03741932,0.0,0.0,0.0
625.2743,305.84314,13136252,0.8125,0.08510638,-23.910957,838.50275,-0.005775422,0.0133524835,0.03741932,0.0,0.0,0.0
624.7745,322.52942,13136268,0.7875,0.08510638,1.9510032,897.76935,-0.005775422,0.0133524835,0.03741932,0.0,0.0,0.0
623.0632,334.19446,13136285,0.7875,0.10638297,-23.12135,870.26935,-0.005775422,0.0133524835,0.03741932,0.0,0.0,0.0
623.11816,348.34375,13136302,0.7625,0.09574468,-23.1463,854.05096,-0.005775422,0.0133524835,0.03741932,0.0,0.0,0.0
623.27496,362.73047,13136318,0.77500004,0.08510638,-7.5162187,785.87445,-0.005775422,0.0133524835,0.03741932,0.0,0.0,0.0
621.5632,377.84338,13136335,0.8,0.08510638,-39.447063,820.2204,-0.005775422,0.0133524835,0.03741932,0.0,0.0,0.0
620.27594,389.81165,13136352,0.77500004,0.10638297,-76.71608,891.2358,-0.005775422,0.0133524835,0.03741932,0.0,0.0,0.0
619.481,401.43726,13136368,0.77500004,0.10638297,-91.37171,768.2857,-0.005775422,0.0133524835,0.03741932,0.0,0.0,0.0
619.27625,411.28528,13136385,0.77500004,0.08510638,-52.55915,582.7471,-0.005775422,0.0133524835,0.03741932,0.0,0.0,0.0
618.90326,420.7882,13136402,0.77500004,0.08510638,2.693975,457.0407,-0.005775422,0.0133524835,0.03741932,0.0,0.0,0.0
618.7764,430.0974,13136419,0.77500004,0.08510638,10.27756,464.7738,-0.005775422,0.0133524835,0.03741932,0.0,0.0,0.0
619.7222,437.5254,13136435,0.8,0.09574468,33.141197,455.47687,-0.005775422,0.0133524835,0.03741932,0.0,0.0,0.0
620.7646,443.17993,13136452,0.77500004,0.09574468,71.0889,358.7456,-0.005775422,0.0133524835,0.03741932,0.0,0.0,0.0
621.8047,447.786,13136469,0.77500004,0.10638297,92.33037,249.29121,-0.005775422,0.0133524835,0.03741932,0.0,0.0,0.0
622.3523,452.39832,13136485,0.77500004,0.10638297,80.16177,188.43073,-0.005775422,0.0133524835,0.03741932,0.0,0.0,0.0
622.88904,454.10388,13136502,0.7875,0.12765957,41.923336,106.99269,-0.005775422,0.0133524835,0.03741932,0.0,0.0,0.0
623.27496,455.9702,13136519,0.7875,0.12765957,20.863693,48.08414,-0.005775422,0.0133524835,0.03741932,0.0,0.0,0.0
623.27496,455.67847,13136536,0.7875,0.12765957,3.738778,-31.290565,-0.020620339,-0.03731802,-0.002064705,0.0,0.0,0.0
624.00287,455.67847,13136552,0.7625,0.12765957,12.45341,-77.22339,-0.020620339,-0.03731802,-0.002064705,0.0,0.0,0.0
624.54065,455.2057,13136569,0.8,0.12765957,21.999407,-71.6505,-0.020620339,-0.03731802,-0.002064705,0.0,0.0,0.0
626.9871,453.36255,13136586,0.7875,0.12765957,79.917046,-113.48829,-0.020620339,-0.03731802,-0.002064705,0.0,0.0,0.0
630.7943,450.0255,13136602,0.77500004,0.10638297,211.52324,-181.12048,-0.020620339,-0.03731802,-0.002064705,0.0,0.0,0.0
634.16644,444.9879,13136619,0.7625,0.09574468,271.6783,-293.24435,-0.020620339,-0.03731802,-0.002064705,0.0,0.0,0.0
639.74756,436.016,13136636,0.7625,0.09574468,339.39075,-500.2804,-0.020620339,-0.03731802,-0.002064705,0.0,0.0,0.0
646.04956,425.8567,13136653,0.77500004,0.08510638,407.8689,-679.7739,-0.020620339,-0.03731802,-0.002064705,0.0,0.0,0.0
654.24963,416.60132,13136669,0.7875,0.12765957,480.94794,-758.0139,-0.020620339,-0.03731802,-0.002064705,0.0,0.0,0.0
662.06726,407.36072,13136686,0.77500004,0.09574468,557.4747,-694.05066,-0.020620339,-0.03731802,-0.002064705,0.0,0.0,0.0
670.9103,399.1245,13136703,0.77500004,0.08510638,584.2174,-574.71515,-0.020620339,-0.03731802,-0.002064705,0.0,0.0,0.0
679.14233,390.80713,13136719,0.7875,0.08510638,566.6711,-484.54706,-0.020620339,-0.03731802,-0.002064705,0.0,0.0,0.0
686.96246,382.4829,13136736,0.7625,0.09574468,518.124,-462.08575,-0.020620339,-0.03731802,-0.002064705,0.0,0.0,0.0
694.14343,373.41174,13136753,0.75,0.09574468,449.5241,-488.45535,-0.020620339,-0.03731802,-0.002064705,0.0,0.0,0.0
702.48596,365.28503,13136770,0.7625,0.10638297,434.3578,-513.86633,-0.020620339,-0.03731802,-0.002064705,0.0,0.0,0.0
711.79706,358.24158,13136786,0.77500004,0.10638297,503.3779,-484.18863,-0.020620339,-0.03731802,-0.002064705,0.0,0.0,0.0
721.68896,353.27576,13136803,0.7875,0.10638297,597.3865,-361.60312,-0.020620339,-0.03731802,-0.002064705,0.0,0.0,0.0
730.4223,350.2068,13136820,0.77500004,0.12765957,616.70447,-189.47527,-0.020620339,-0.03731802,-0.002064705,0.0,0.0,0.0
738.2918,349.0581,13136836,0.7625,0.12765957,534.7683,-28.856495,-0.020620339,-0.03731802,-0.002064705,0.0,0.0,0.0
745.73193,349.0581,13136853,0.7625,0.12765957,444.38684,90.675995,-0.020620339,-0.03731802,-0.002064705,0.0,0.0,0.0
751.6228,349.0581,13136870,0.77500004,0.12765957,361.4007,126.431496,-0.020620339,-0.03731802,-0.002064705,0.0,0.0,0.0
757.30286,350.86047,13136887,0.77500004,0.12765957,305.26025,143.13947,-0.020620339,-0.03731802,-0.002064705,0.0,0.0,0.0
761.44214,352.70642,13136903,0.7875,0.10638297,242.17061,159.78023,-0.020620339,-0.03731802,-0.002064705,0.0,0.0,0.0
766.0188,354.56116,13136920,0.77500004,0.10638297,210.16348,164.23251,-0.020620339,-0.03731802,-0.002064705,0.0,0.0,0.0
770.7996,358.4519,13136937,0.77500004,0.08510638,219.39207,212.66745,-0.020620339,-0.03731802,-0.002064705,0.0,0.0,0.0
775.486,362.17297,13136953,0.7875,0.08510638,249.97383,251.78436,-0.020620339,-0.03731802,-0.002064705,0.0,0.0,0.0
777.1278,365.7672,13136970,0.7625,0.08510638,189.9264,267.27814,-0.020620339,-0.03731802,-0.002064705,0.0,0.0,0.0
780.4734,373.9353,13136987,0.77500004,0.08510638,131.04744,385.58026,-0.020620339,-0.03731802,-0.002064705,0.0,0.0,0.0
782.4994,380.34265,13137003,0.77500004,0.08510638,109.17836,477.88544,-0.020620339,-0.03731802,-0.002064705,0.0,0.0,0.0
783.4838,385.98987,13137020,0.7875,0.10638297,63.09284,475.9756,-0.020620339,-0.03731802,-0.002064705,0.0,0.0,0.0
783.7227,390.12634,13137037,0.77500004,0.12765957,19.465006,361.4577,-0.020620339,-0.03731802,-0.002064705,0.0,0.0,0.0
783.2229,394.66797,13137054,0.77500004,0.10638297,-67.38125,208.7635,-0.020620339,-0.03731802,-0.002064705,0.0,0.0,0.0
782.2797,400.2898,13137070,0.77500004,0.10638297,-106.60171,206.84132,-0.016496278,-0.013854422,-0.033651352,0.0,0.0,0.0
780.74963,404.98767,13137087,0.7875,0.10638297,-115.31771,287.48376,-0.016496278,-0.013854422,-0.033651352,0.0,0.0,0.0
779.69574,410.5155,13137104,0.7875,0.08510638,-116.033844,329.54797,-0.016496278,-0.013854422,-0.033651352,0.0,0.0,0.0
778.65643,415.16956,13137120,0.8,0.08510638,-93.16755,317.59683,-0.016496278,-0.013854422,-0.033651352,0.0,0.0,0.0
777.61566,419.63745,13137137,0.8,0.08510638,-71.648186,279.3217,-0.016496278,-0.013854422,-0.033651352,0.0,0.0,0.0
777.7247,424.2821,13137154,0.7875,0.08510638,-24.314554,266.1315,-0.016496278,-0.013854422,-0.033651352,0.0,0.0,0.0
777.7247,427.98364,13137171,0.7875,0.08510638,12.142219,237.65895,-0.016496278,-0.013854422,-0.033651352,0.0,0.0,0.0
776.725,429.3805,13137187,0.8,0.08510638,-2.6927283,132.86398,-0.016496278,-0.013854422,-0.033651352,0.0,0.0,0.0
776.725,431.25195,13137204,0.7875,0.08510638,-13.118929,58.486816,-0.016496278,-0.013854422,-0.033651352,0.0,0.0,0.0
776.43097,432.5774,13137221,0.8,0.08510638,-19.512106,34.93784,-0.016496278,-0.013854422,-0.033651352,0.0,0.0,0.0
776.22516,433.1571,13137237,0.77500004,0.08510638,-13.907945,10.468906,-0.016496278,-0.013854422,-0.033651352,0.0,0.0,0.0
776.22516,433.46594,13137254,0.7875,0.08510638,2.9830065,1.7493618,-0.016496278,-0.013854422,-0.033651352,0.0,0.0,0.0
776.22516,434.18933,13137271,0.7875,0.08510638,0.79073983,-16.507475,-0.016496278,-0.013854422,-0.033651352,0.0,0.0,0.0
776.22516,434.79883,13137276,0.8,0.08510638,2.3769443,-1.0484457,-0.016496278,-0.013854422,-0.033651352,0.0,0.0,0.0
776.22516,434.3545,13137304,0.7875,0.08510638,8.06768,4.2465343,-0.016496278,-0.013854422,-0.033651352,0.0,0.0,0.0
776.22516,435.30396,13137321,0.8,0.08510638,0.0051714904,11.390938,-0.016496278,-0.013854422,-0.033651352,0.0,0.0,0.0
776.22516,435.24292,13137338,0.7875,0.08510638,0.015451282,18.321571,-0.016496278,-0.013854422,-0.033651352,0.0,0.0,0.0
776.22516,436.57568,13137349,0.7875,0.08510638,-0.006699536,43.239323,-0.016496278,-0.013854422,-0.033651352,0.0,0.0,0.0
776.22516,436.13147,13137369,0.8,0.08510638,-0.0725485,45.031204,-0.016496278,-0.013854422,-0.033651352,0.0,0.0,0.0
776.22516,436.13147,13137388,0.8125,0.08510638,-0.015732858,-6.946123,-0.016496278,-0.013854422,-0.033651352,0.0,0.0,0.0
776.22516,436.13147,13137405,0.8125,0.10638297,-0.038447767,-21.934227,-0.016496278,-0.013854422,-0.033651352,0.0,0.0,0.0
776.22516,436.13147,13137413,0.8,0.08510638,0.04049034,-14.93705,-0.016496278,-0.013854422,-0.033651352,0.0,0.0,0.0
776.22516,436.6775,13137438,0.8,0.10638297,-0.0077215224,13.913951,-0.016496278,-0.013854422,-0.033651352,0.0,0.0,0.0
776.22516,437.0199,13137454,0.8,0.10638297,-0.012257416,33.30532,-0.016496278,-0.013854422,-0.033651352,0.0,0.0,0.0
776.22516,439.55115,13137488,0.77500004,0.10638297,-0.011543748,82.24312,-0.016496278,-0.013854422,-0.033651352,0.0,0.0,0.0
776.22516,441.0183,13137503,0.7875,0.10638297,0.016151797,107.87063,-0.016496278,-0.013854422,-0.033651352,0.0,0.0,0.0
776.22516,440.57397,13137537,0.8,0.10638297,0.01775573,13.485865,-0.016496278,-0.013854422,-0.033651352,0.0,0.0,0.0
776.22516,440.57397,13137555,0.7875,0.10638297,-0.029410848,-67.34925,-0.016496278,-0.013854422,-0.033651352,0.0,0.0,0.0
776.22516,440.57397,13137588,0.7875,0.10638297,-0.0250264,-11.09743,-0.016496278,-0.013854422,-0.033651352,0.0,0.0,0.0
776.22516,440.57397,13137605,0.77500004,0.10638297,-0.0119636515,-0.007126166,0.002802983,-0.011083536,-0.042921066,0.0,0.0,0.0
776.725,440.57397,13137622,0.77500004,0.10638297,19.293581,-0.009091938,0.002802983,-0.011083536,-0.042921066,0.0,0.0,0.0
777.4748,440.57397,13137638,0.7875,0.10638297,41.952305,0.0034569905,0.002802983,-0.011083536,-0.042921066,0.0,0.0,0.0
777.5356,440.57397,13137655,0.7875,0.09574468,34.14367,0.027108608,0.002802983,-0.011083536,-0.042921066,0.0,0.0,0.0
778.5604,440.57397,13137672,0.7875,0.08510638,48.22671,0.010168967,0.002802983,-0.011083536,-0.042921066,0.0,0.0,0.0
780.1054,439.896,13137689,0.7875,0.08510638,77.46254,-12.265023,0.002802983,-0.011083536,-0.042921066,0.0,0.0,0.0
782.06506,438.04895,13137705,0.77500004,0.08510638,116.41294,-73.88892,0.002802983,-0.011083536,-0.042921066,0.0,0.0,0.0
784.6524,435.3673,13137722,0.7625,0.08510638,165.78345,-148.29868,0.002802983,-0.011083536,-0.042921066,0.0,0.0,0.0
787.75006,430.7495,13137739,0.75,0.08510638,198.92462,-276.21948,0.002802983,-0.011083536,-0.042921066,0.0,0.0,0.0
793.6007,424.19385,13137755,0.75,0.11702127,289.2107,-395.37222,0.002802983,-0.011083536,-0.042921066,0.0,0.0,0.0
798.2014,418.73438,13137772,0.75,0.11702127,353.52927,-451.7587,0.002802983,-0.011083536,-0.042921066,0.0,0.0,0.0
803.76227,411.49487,13137789,0.7375,0.12765957,386.49744,-485.5978,0.002802983,-0.011083536,-0.042921066,0.0,0.0,0.0
810.7139,404.1454,13137806,0.75,0.10638297,416.14743,-469.30206,0.002802983,-0.011083536,-0.042921066,0.0,0.0,0.0
819.3315,396.93042,13137822,0.75,0.08510638,482.856,-460.78967,0.002802983,-0.011083536,-0.042921066,0.0,0.0,0.0
830.71594,387.25623,13137839,0.7375,0.08510638,658.5805,-549.72546,0.002802983,-0.011083536,-0.042921066,0.0,0.0,0.0
843.19653,377.56934,13137856,0.7625,0.08510638,827.26855,-636.6054,0.002802983,-0.011083536,-0.042921066,0.0,0.0,0.0
853.1579,369.82324,13137872,0.75,0.09574468,826.95135,-615.7317,0.002802983,-0.011083536,-0.042921066,0.0,0.0,0.0
863.1379,364.63318,13137889,0.7625,0.10638297,688.0811,-433.5742,0.002802983,-0.011083536,-0.042921066,0.0,0.0,0.0
873.28345,361.67688,13137906,0.7625,0.10638297,557.3745,-179.65811,0.002802983,-0.011083536,-0.042921066,0.0,0.0,0.0
883.06433,360.60864,13137923,0.7625,0.09574468,522.07874,2.0404365,0.002802983,-0.011083536,-0.042921066,0.0,0.0,0.0
893.0493,360.60864,13137939,0.7625,0.10638297,571.6407,117.85459,0.002802983,-0.011083536,-0.042921066,0.0,0.0,0.0
900.8806,360.60864,13137956,0.7625,0.11702127,541.6091,129.42804,0.002802983,-0.011083536,-0.042921066,0.0,0.0,0.0
907.5732,360.60864,13137973,0.77500004,0.11702127,434.9946,92.2134,0.002802983,-0.011083536,-0.042921066,0.0,0.0,0.0
913.7925,362.56702,13137989,0.7625,0.09574468,332.35645,99.2967,0.002802983,-0.011083536,-0.042921066,0.0,0.0,0.0
917.8181,364.44666,13138006,0.77500004,0.09574468,225.25677,127.71436,0.002802983,-0.011083536,-0.042921066,0.0,0.0,0.0
920.7328,366.2683,13138023,0.77500004,0.08510638,143.63591,157.58398,0.002802983,-0.011083536,-0.042921066,0.0,0.0,0.0
922.8982,368.10913,13138039,0.7625,0.08510638,76.67073,153.04251,0.002802983,-0.011083536,-0.042921066,0.0,0.0,0.0
924.4375,369.49365,13138056,0.75,0.08510638,30.065706,112.07718,0.002802983,-0.011083536,-0.042921066,0.0,0.0,0.0
924.9744,369.49365,13138073,0.7625,0.08510638,-1.9508054,42.613716,0.002802983,-0.011083536,-0.042921066,0.0,0.0,0.0
926.0105,369.49365,13138090,0.7875,0.08510638,-9.117281,-22.456366,0.002802983,-0.011083536,-0.042921066,0.0,0.0,0.0
926.5482,369.49365,13138106,0.77500004,0.08510638,-2.3834794,-51.963253,0.002802983,-0.011083536,-0.042921066,0.0,0.0,0.0
926.6762,369.49365,13138123,0.7875,0.08510638,6.8238835,-40.73756,0.002802983,-0.011083536,-0.042921066,0.0,0.0,0.0
927.60486,369.49365,13138140,0.7625,0.08510638,15.884241,-9.812178,-0.013757624,-0.008866824,0.013662338,0.0,0.0,0.0
927.67584,370.3822,13138156,0.75,0.08510638,19.001942,25.950329,-0.013757624,-0.008866824,0.013662338,0.0,0.0,0.0
927.67584,370.3822,13138173,0.77500004,0.08510638,4.5950336,30.52789,-0.013757624,-0.008866824,0.013662338,0.0,0.0,0.0
927.67584,370.3822,13138185,0.7625,0.08510638,-1.3987433,23.165932,-0.013757624,-0.008866824,0.013662338,0.0,0.0,0.0
927.67584,370.3822,13138205,0.75,0.08510638,-12.742091,4.4891653,-0.013757624,-0.008866824,0.013662338,0.0,0.0,0.0
927.67584,370.3822,13138223,0.7625,0.08510638,-13.160948,-14.71697,-0.013757624,-0.008866824,0.013662338,0.0,0.0,0.0
927.67584,370.3822,13138240,0.7625,0.08510638,0.020733628,-10.845187,-0.013757624,-0.008866824,0.013662338,0.0,0.0,0.0
926.94507,369.97156,13138257,0.75,0.09574468,-20.870245,-7.6916575,-0.013757624,-0.008866824,0.013662338,0.0,0.0,0.0
925.6381,369.49365,13138273,0.7625,0.09574468,-62.048077,-32.894226,-0.013757624,-0.008866824,0.013662338,0.0,0.0,0.0
922.64,368.05872,13138290,0.7375,0.09574468,-150.04308,-68.69166,-0.013757624,-0.008866824,0.013662338,0.0,0.0,0.0
918.44464,366.2119,13138307,0.75,0.09574468,-252.90538,-113.64991,-0.013757624,-0.008866824,0.013662338,0.0,0.0,0.0
913.282,365.9397,13138324,0.7625,0.08510638,-351.98334,-104.68964,-0.013757624,-0.008866824,0.013662338,0.0,0.0,0.0
906.79266,365.9397,13138340,0.7625,0.08510638,-421.79068,-38.233658,-0.013757624,-0.008866824,0.013662338,0.0,0.0,0.0
898.55524,367.64368,13138357,0.75,0.08510638,-498.35086,59.537003,-0.013757624,-0.008866824,0.013662338,0.0,0.0,0.0
892.15283,369.5039,13138374,0.7625,0.08510638,-516.23914,159.30377,-0.013757624,-0.008866824,0.013662338,0.0,0.0,0.0
886.4239,372.3164,13138390,0.7875,0.08510638,-451.1406,199.95833,-0.013757624,-0.008866824,0.013662338,0.0,0.0,0.0
881.6575,374.8485,13138407,0.7625,0.08510638,-334.16266,208.2403,-0.013757624,-0.008866824,0.013662338,0.0,0.0,0.0
876.1043,379.68542,13138424,0.7625,0.09574468,-262.3736,263.0564,-0.013757624,-0.008866824,0.013662338,0.0,0.0,0.0
870.8878,384.56958,13138440,0.7625,0.11702127,-260.55563,315.58786,-0.013757624,-0.008866824,0.013662338,0.0,0.0,0.0
866.7041,388.32104,13138457,0.7625,0.12765957,-268.14368,323.34866,-0.013757624,-0.008866824,0.013662338,0.0,0.0,0.0
862.7614,392.5376,13138474,0.7625,0.12765957,-238.54683,289.85593,-0.013757624,-0.008866824,0.013662338,0.0,0.0,0.0
858.0844,398.91565,13138491,0.77500004,0.12765957,-227.54231,307.20944,-0.013757624,-0.008866824,0.013662338,0.0,0.0,0.0
853.7525,405.5017,13138507,0.7625,0.10638297,-247.63013,378.61932,-0.013757624,-0.008866824,0.013662338,0.0,0.0,0.0
851.09045,412.53406,13138524,0.77500004,0.08510638,-216.16983,453.9459,-0.013757624,-0.008866824,0.013662338,0.0,0.0,0.0
849.3152,420.90417,13138541,0.77500004,0.08510638,-135.10747,513.7539,-0.013757624,-0.008866824,0.013662338,0.0,0.0,0.0
849.2014,428.46606,13138557,0.77500004,0.08510638,-15.215234,527.5893,-0.013757624,-0.008866824,0.013662338,0.0,0.0,0.0
850.16876,435.90137,13138574,0.77500004,0.08510638,98.40738,491.595,-0.013757624,-0.008866824,0.013662338,0.0,0.0,0.0
852.21436,439.71008,13138591,0.75,0.11702127,174.69388,363.5762,-0.013757624,-0.008866824,0.013662338,0.0,0.0,0.0
854.7516,443.30103,13138608,0.75,0.12765957,213.22066,201.75171,-0.013757624,-0.008866824,0.013662338,0.0,0.0,0.0
859.6292,447.09998,13138624,0.75,0.12765957,282.02338,118.11733,-0.013757624,-0.008866824,0.013662338,0.0,0.0,0.0
865.51776,448.81396,13138641,0.75,0.12765957,367.99008,66.80518,-0.013757624,-0.008866824,0.013662338,0.0,0.0,0.0
872.5175,450.59155,13138658,0.7625,0.12765957,469.30557,53.97831,-0.013757624,-0.008866824,0.013662338,0.0,0.0,0.0
880.41376,450.34753,13138674,0.75,0.09574468,548.3238,12.793756,-0.0110060945,0.056906536,0.07493019,0.0,0.0,0.0
886.1365,449.91895,13138691,0.75,0.09574468,482.39108,-69.15138,-0.0110060945,0.056906536,0.07493019,0.0,0.0,0.0
892.8693,448.0724,13138708,0.75,0.10638297,409.46558,-128.28772,-0.0110060945,0.056906536,0.07493019,0.0,0.0,0.0
898.15344,444.75818,13138725,0.7625,0.08510638,337.84653,-211.50845,-0.0110060945,0.056906536,0.07493019,0.0,0.0,0.0
902.4345,440.48462,13138741,0.75,0.08510638,257.18787,-285.5744,-0.0110060945,0.056906536,0.07493019,0.0,0.0,0.0
906.6945,434.3335,13138758,0.75,0.09574468,217.56412,-381.01456,-0.0110060945,0.056906536,0.07493019,0.0,0.0,0.0
910.87164,426.9082,13138775,0.7375,0.09574468,192.12724,-479.31964,-0.0110060945,0.056906536,0.07493019,0.0,0.0,0.0
913.12366,421.1786,13138791,0.7375,0.11702127,160.36224,-498.20996,-0.0110060945,0.056906536,0.07493019,0.0,0.0,0.0
916.7295,412.00842,13138808,0.7375,0.12765957,161.1111,-519.75964,-0.0110060945,0.056906536,0.07493019,0.0,0.0,0.0
919.85864,404.55334,13138825,0.725,0.11702127,158.0575,-523.0854,-0.0110060945,0.056906536,0.07493019,0.0,0.0,0.0
922.5489,396.60596,13138842,0.7375,0.09574468,157.69884,-493.60312,-0.0110060945,0.056906536,0.07493019,0.0,0.0,0.0
923.3321,388.55347,13138858,0.725,0.09574468,110.95746,-505.3767,-0.0110060945,0.056906536,0.07493019,0.0,0.0,0.0
923.1773,378.35718,13138875,0.7375,0.09574468,14.448099,-565.97815,-0.0110060945,0.056906536,0.07493019,0.0,0.0,0.0
921.9532,370.563,13138892,0.75,0.09574468,-98.445656,-568.72217,-0.0110060945,0.056906536,0.07493019,0.0,0.0,0.0
920.9178,365.01453,13138908,0.725,0.11702127,-141.16362,-475.79166,-0.0110060945,0.056906536,0.07493019,0.0,0.0,0.0
919.8822,362.74792,13138925,0.7625,0.11702127,-121.31793,-190.71307,-0.0110060945,0.056906536,0.07493019,0.0,0.0,0.0
918.0045,360.89783,13138942,0.7625,0.11702127,-111.61571,18.320707,-0.0110060945,0.056906536,0.07493019,0.0,0.0,0.0
915.5858,360.60864,13138959,0.7375,0.10638297,-130.64821,103.369896,-0.0110060945,0.056906536,0.07493019,0.0,0.0,0.0
911.2207,362.19397,13138975,0.7625,0.08510638,-212.35687,151.8956,-0.0110060945,0.056906536,0.07493019,0.0,0.0,0.0
907.3843,364.87183,13138992,0.7625,0.08510638,-288.45987,197.67987,-0.0110060945,0.056906536,0.07493019,0.0,0.0,0.0
901.7128,373.88562,13139009,0.75,0.08510638,-340.28363,381.54654,-0.0110060945,0.056906536,0.07493019,0.0,0.0,0.0
899.11066,382.1974,13139025,0.75,0.09574468,-308.1334,644.5893,-0.0110060945,0.056906536,0.07493019,0.0,0.0,0.0
897.6125,388.67224,13139042,0.75,0.10638297,-179.85794,661.4227,-0.0110060945,0.056906536,0.07493019,0.0,0.0,0.0
898.3042,393.01685,13139059,0.7375,0.10638297,0.6112383,497.09213,-0.0110060945,0.056906536,0.07493019,0.0,0.0,0.0
899.31177,397.7129,13139076,0.7625,0.12765957,138.14644,271.545,-0.0110060945,0.056906536,0.07493019,0.0,0.0,0.0
901.4546,399.49866,13139092,0.75,0.12765957,212.16866,78.37439,-0.0110060945,0.056906536,0.07493019,0.0,0.0,0.0
905.83453,402.7776,13139109,0.7375,0.11702127,262.6911,97.45554,-0.0110060945,0.056906536,0.07493019,0.0,0.0,0.0
911.0028,404.615,13139126,0.7375,0.11702127,350.87723,86.740524,-0.0110060945,0.056906536,0.07493019,0.0,0.0,0.0
916.224,405.92236,13139142,0.7625,0.11702127,409.38928,72.54088,-0.0110060945,0.056906536,0.07493019,0.0,0.0,0.0
921.26526,406.8108,13139159,0.7625,0.10638297,380.3067,34.36235,-0.0110060945,0.056906536,0.07493019,0.0,0.0,0.0
927.9278,406.8108,13139176,0.75,0.12765957,374.8539,-21.892326,-0.0110060945,0.056906536,0.07493019,0.0,0.0,0.0
934.55084,406.8108,13139193,0.75,0.10638297,398.44522,-40.61901,-0.0110060945,0.056906536,0.07493019,0.0,0.0,0.0
940.4658,405.10693,13139209,0.7625,0.10638297,417.25333,-81.12083,-0.00880488,-0.00247477,-0.004055977,0.0,0.0,0.0
946.1979,403.24854,13139226,0.77500004,0.12765957,386.68927,-136.05156,-0.00880488,-0.00247477,-0.004055977,0.0,0.0,0.0
950.85333,400.50916,13139243,0.7625,0.10638297,314.17157,-193.15395,-0.00880488,-0.00247477,-0.004055977,0.0,0.0,0.0
955.001,397.62903,13139259,0.75,0.10638297,247.53703,-213.49106,-0.00880488,-0.00247477,-0.004055977,0.0,0.0,0.0
959.0154,395.9934,13139276,0.7375,0.10638297,203.13344,-179.08049,-0.00880488,-0.00247477,-0.004055977,0.0,0.0,0.0
961.0465,394.03296,13139293,0.75,0.08510638,144.1286,-129.08604,-0.00880488,-0.00247477,-0.004055977,0.0,0.0,0.0
963.0709,392.23352,13139309,0.75,0.09574468,87.9878,-100.571884,-0.00880488,-0.00247477,-0.004055977,0.0,0.0,0.0
965.13916,390.39526,13139326,0.75,0.09574468,69.04812,-96.16753,-0.00880488,-0.00247477,-0.004055977,0.0,0.0,0.0
966.9342,388.55896,13139343,0.7625,0.09574468,73.74587,-102.43509,-0.00880488,-0.00247477,-0.004055977,0.0,0.0,0.0
968.7926,385.2555,13139360,0.75,0.09574468,94.37035,-145.38684,-0.00880488,-0.00247477,-0.004055977,0.0,0.0,0.0
970.8457,381.60608,13139376,0.7625,0.09574468,105.9375,-212.07152,-0.00880488,-0.00247477,-0.004055977,0.0,0.0,0.0
973.29663,377.92188,13139393,0.75,0.09574468,122.646225,-258.73288,-0.00880488,-0.00247477,-0.004055977,0.0,0.0,0.0
975.9547,374.30127,13139410,0.7625,0.08510638,157.05548,-260.50745,-0.00880488,-0.00247477,-0.004055977,0.0,0.0,0.0
978.11536,368.72266,13139426,0.7625,0.10638297,169.37653,-290.5023,-0.00880488,-0.00247477,-0.004055977,0.0,0.0,0.0
981.2245,361.35046,13139443,0.7375,0.12765957,167.82191,-389.47327,-0.00880488,-0.00247477,-0.004055977,0.0,0.0,0.0
983.26855,352.12036,13139460,0.7375,0.10638297,157.35228,-550.6505,-0.00880488,-0.00247477,-0.004055977,0.0,0.0,0.0
984.7488,344.85388,13139477,0.75,0.08510638,120.85863,-603.1329,-0.00880488,-0.00247477,-0.004055977,0.0,0.0,0.0
985.657,339.48413,13139493,0.75,0.08510638,70.7418,-497.59152,-0.00880488,-0.00247477,-0.004055977,0.0,0.0,0.0
985.657,334.1338,13139510,0.75,0.08510638,1.2008076,-346.24918,-0.00880488,-0.00247477,-0.004055977,0.0,0.0,0.0
985.0095,329.87488,13139527,0.75,0.08510638,-62.007935,-218.85394,-0.00880488,-0.00247477,-0.004055977,0.0,0.0,0.0
983.9147,327.30237,13139543,0.77500004,0.08510638,-99.33262,-145.89143,-0.00880488,-0.00247477,-0.004055977,0.0,0.0,0.0
983.36975,325.95703,13139560,0.7875,0.08510638,-94.35275,-66.10867,-0.00880488,-0.00247477,-0.004055977,0.0,0.0,0.0
983.15784,325.95703,13139577,0.7875,0.08510638,-60.779663,41.55121,-0.00880488,-0.00247477,-0.004055977,0.0,0.0,0.0
983.15784,325.95703,13139588,0.77500004,0.08510638,-29.10903,86.36913,-0.00880488,-0.00247477,-0.004055977,0.0,0.0,0.0
987.95483,330.22058,13139627,0.77500004,0.10638297,149.00774,158.71684,-0.00880488,-0.00247477,-0.004055977,0.0,0.0,0.0
996.052,335.66284,13139644,0.77500004,0.10638297,375.05304,290.49802,-0.00880488,-0.00247477,-0.004055977,0.0,0.0,0.0
1009.45715,344.82605,13139660,0.77500004,0.12765957,781.70874,539.5656,-0.00880488,-0.00247477,-0.004055977,0.0,0.0,0.0
1023.0199,355.1068,13139677,0.7375,0.11702127,1015.7199,712.55334,-0.00880488,-0.00247477,-0.004055977,0.0,0.0,0.0
1038.6248,367.34705,13139694,0.7625,0.08510638,1091.0127,820.49274,-0.00880488,-0.00247477,-0.004055977,0.0,0.0,0.0
1056.4253,381.38,13139711,0.75,0.08510638,1182.3105,940.7118,-0.00880488,-0.00247477,-0.004055977,0.0,0.0,0.0
1068.1948,390.2766,13139727,0.7375,0.12765957,1033.8628,840.94806,-0.00880488,-0.00247477,-0.004055977,0.0,0.0,0.0
1076.0881,397.63184,13139744,0.7375,0.12765957,664.58154,555.56384,-0.0070439056,-0.08197982,-0.083244324,0.0,0.0,0.0
1081.6658,405.1051,13139761,0.725,0.11702127,289.27704,338.80075,-0.0070439056,-0.08197982,-0.083244324,0.0,0.0,0.0
1086.5216,417.10852,13139777,0.75,0.09574468,64.1533,402.0954,-0.0070439056,-0.08197982,-0.083244324,0.0,0.0,0.0
1086.8398,426.21765,13139794,0.75,0.09574468,-45.15069,589.17267,-0.0070439056,-0.08197982,-0.083244324,0.0,0.0,0.0
1084.0583,434.21606,13139811,0.75,0.09574468,-185.87651,620.33514,-0.0070439056,-0.08197982,-0.083244324,0.0,0.0,0.0
1079.6656,439.30212,13139827,0.7625,0.11702127,-372.83246,442.65805,-0.0070439056,-0.08197982,-0.083244324,0.0,0.0,0.0
1067.3054,445.5852,13139844,0.7625,0.10638297,-659.20935,255.33818,-0.0070439056,-0.08197982,-0.083244324,0.0,0.0,0.0
1049.3253,452.07153,13139861,0.75,0.12765957,-1069.5236,241.16971,-0.0070439056,-0.08197982,-0.083244324,0.0,0.0,0.0
1034.6998,454.84607,13139878,0.75,0.12765957,-1274.8969,239.9274,-0.0070439056,-0.08197982,-0.083244324,0.0,0.0,0.0
1022.25256,454.79004,13139894,0.77500004,0.12765957,-1169.4102,87.96908,-0.0070439056,-0.08197982,-0.083244324,0.0,0.0,0.0
1013.3751,452.8169,13139911,0.75,0.10638297,-791.5862,-137.32726,-0.0070439056,-0.08197982,-0.083244324,0.0,0.0,0.0
1007.70447,450.97217,13139928,0.75,0.09574468,-364.5784,-288.4196,-0.0070439056,-0.08197982,-0.083244324,0.0,0.0,0.0
1005.6505,449.45898,13139942,0.375,0.09574468,-101.29071,-299.58823,-0.0070439056,-0.08197982,-0.083244324,0.0,0.0,0.0
1005.6505,449.45898,13139949,0.375,0.09574468,-101.29071,-299.58823,-0.0070439056,-0.08197982,-0.083244324,0.0,0.0,0.0
1096.6208,387.2638,13140199,0.65000004,0.08510638,0.0,0.0,-0.0070439056,-0.08197982,-0.083244324,0.0,0.0,0.0
1096.6208,387.2638,13140229,0.7,0.08510638,0.036683302,0.010835891,-0.0070439056,-0.08197982,-0.083244324,0.0,0.0,0.0
1088.5244,367.71863,13140245,0.725,0.11702127,-591.966,-1434.7711,-0.0070439056,-0.08197982,-0.083244324,0.0,0.0,0.0
1086.2528,360.17712,13140262,0.7375,0.12765957,-426.35046,-1117.769,-0.0070439056,-0.08197982,-0.083244324,0.0,0.0,0.0
1086.1243,353.68408,13140279,0.725,0.12765957,-196.17854,-757.7431,0.010364875,0.078416154,0.07740402,0.0,0.0,0.0
1088.6693,346.28394,13140295,0.75,0.08510638,34.828987,-559.474,0.010364875,0.078416154,0.07740402,0.0,0.0,0.0
1095.0355,337.87036,13140312,0.71250004,0.08510638,386.6272,-332.30536,0.010364875,0.078416154,0.07740402,0.0,0.0,0.0
1105.7064,326.67896,13140329,0.725,0.08510638,691.74225,-450.6993,0.010364875,0.078416154,0.07740402,0.0,0.0,0.0
1116.5479,320.81982,13140346,0.75,0.08510638,839.0407,-578.63544,0.010364875,0.078416154,0.07740402,0.0,0.0,0.0
1126.2899,320.0359,13140362,0.7375,0.09574468,857.6454,-324.98026,0.010364875,0.078416154,0.07740402,0.0,0.0,0.0
1136.9944,324.78162,13140379,0.725,0.08510638,780.9957,130.24622,0.010364875,0.078416154,0.07740402,0.0,0.0,0.0
1146.604,332.17603,13140396,0.7625,0.10638297,622.0116,653.3425,0.010364875,0.078416154,0.07740402,0.0,0.0,0.0
1153.5278,339.53418,13140412,0.7375,0.10638297,501.90237,779.1666,0.010364875,0.078416154,0.07740402,0.0,0.0,0.0
1160.231,352.51648,13140429,0.725,0.09574468,367.85138,803.1089,0.010364875,0.078416154,0.07740402,0.0,0.0,0.0
1163.8335,371.81384,13140446,0.71250004,0.08510638,223.99684,1082.4696,0.010364875,0.078416154,0.07740402,0.0,0.0,0.0
1161.5045,386.7135,13140462,0.725,0.09574468,-25.694818,1240.0024,0.010364875,0.078416154,0.07740402,0.0,0.0,0.0
1155.4452,401.55432,13140479,0.725,0.12765957,-364.4406,1201.231,0.010364875,0.078416154,0.07740402,0.0,0.0,0.0
1149.6671,411.1631,13140496,0.7375,0.08510638,-618.9748,884.8555,0.010364875,0.078416154,0.07740402,0.0,0.0,0.0
1141.4115,422.17493,13140513,0.7375,0.09574468,-692.288,523.648,0.010364875,0.078416154,0.07740402,0.0,0.0,0.0
1131.959,431.3783,13140529,0.725,0.08510638,-666.9743,445.81485,0.010364875,0.078416154,0.07740402,0.0,0.0,0.0
1124.3545,437.59668,13140546,0.7375,0.08510638,-603.2055,364.53577,0.010364875,0.078416154,0.07740402,0.0,0.0,0.0
1119.3856,441.0912,13140563,0.7375,0.09574468,-468.78122,221.42755,0.010364875,0.078416154,0.07740402,0.0,0.0,0.0
1115.3612,441.46252,13140579,0.71250004,0.08510638,-289.0912,30.334362,0.010364875,0.078416154,0.07740402,0.0,0.0,0.0
1113.8912,441.46252,13140596,0.7,0.08510638,-60.376312,-161.16661,0.010364875,0.078416154,0.07740402,0.0,0.0,0.0
1112.8542,440.99817,13140613,0.725,0.08510638,40.97605,-177.75693,0.010364875,0.078416154,0.07740402,0.0,0.0,0.0
1112.6156,439.68542,13140630,0.7,0.08510638,68.142296,-160.64906,0.010364875,0.078416154,0.07740402,0.0,0.0,0.0
1114.6332,439.68542,13140646,0.725,0.08510638,129.84346,-96.8251,0.010364875,0.078416154,0.07740402,0.0,0.0,0.0
1118.613,439.68542,13140663,0.71250004,0.08510638,237.07777,-29.315466,0.010364875,0.078416154,0.07740402,0.0,0.0,0.0
1123.7798,440.4264,13140680,0.71250004,0.09574468,365.97952,24.362732,0.010364875,0.078416154,0.07740402,0.0,0.0,0.0
1129.849,442.27368,13140696,0.725,0.09574468,456.97534,104.8145,0.010364875,0.078416154,0.07740402,0.0,0.0,0.0
1135.0953,445.0088,13140713,0.725,0.11702127,446.80243,162.61131,0.010364875,0.078416154,0.07740402,0.0,0.0,0.0
1141.3701,448.7046,13140730,0.725,0.12765957,401.39084,243.22879,0.010364875,0.078416154,0.07740402,0.0,0.0,0.0
1149.2009,452.3899,13140747,0.725,0.10638297,436.22144,284.63873,0.010364875,0.078416154,0.07740402,0.0,0.0,0.0
1156.8988,456.08337,13140763,0.75,0.10638297,488.19583,278.1669,0.010364875,0.078416154,0.07740402,0.0,0.0,0.0
1165.2614,459.74915,13140780,0.725,0.12765957,537.50934,256.92612,0.010364875,0.078416154,0.07740402,0.0,0.0,0.0
1173.6268,462.23816,13140797,0.725,0.10638297,557.104,202.73578,0.010364875,0.078416154,0.07740402,0.0,0.0,0.0
1181.7144,464.08667,13140813,0.725,0.11702127,519.6119,122.84858,0.024291903,0.030732915,0.013923645,0.0,0.0,0.0
1188.4459,464.5636,13140830,0.7375,0.11702127,465.41208,36.71185,0.024291903,0.030732915,0.013923645,0.0,0.0,0.0
1194.1444,465.45203,13140847,0.75,0.10638297,359.76837,-16.90613,0.024291903,0.030732915,0.013923645,0.0,0.0,0.0
1199.8428,465.45203,13140864,0.7375,0.10638297,286.2741,-33.231304,0.024291903,0.030732915,0.013923645,0.0,0.0,0.0
1202.317,465.45203,13140880,0.71250004,0.10638297,187.56317,-30.623602,0.024291903,0.030732915,0.013923645,0.0,0.0,0.0
1205.4219,467.08386,13140897,0.65000004,0.09574468,114.83071,12.743076,0.024291903,0.030732915,0.013923645,0.0,0.0,0.0
1205.5853,467.22913,13140898,0.175,0.08510638,113.83269,24.664104,0.024291903,0.030732915,0.013923645,0.0,0.0,0.0
1205.5853,467.22913,13140905,0.175,0.08510638,113.83269,24.664104,0.024291903,0.030732915,0.013923645,0.0,0.0,0.0
1108.1171,387.2638,13141147,0.675,0.08510638,0.0,0.0,0.024291903,0.030732915,0.013923645,0.0,0.0,0.0
1108.1171,387.2638,13141164,0.71250004,0.08510638,-4.906204,-1.6889601,0.024291903,0.030732915,0.013923645,0.0,0.0,0.0
1108.1171,387.2638,13141181,0.725,0.08510638,0.09553923,0.033270475,0.024291903,0.030732915,0.013923645,0.0,0.0,0.0
1126.7981,385.25122,13141198,0.7,0.09574468,1150.0239,-123.89759,0.024291903,0.030732915,0.013923645,0.0,0.0,0.0
1146.5385,385.48682,13141214,0.725,0.08510638,1551.0211,-64.81089,0.024291903,0.030732915,0.013923645,0.0,0.0,0.0
1167.2925,385.8595,13141231,0.71250004,0.08510638,1727.6876,-13.886161,0.024291903,0.030732915,0.013923645,0.0,0.0,0.0
1190.5,387.2638,13141248,0.71250004,0.09574468,1724.5544,86.372574,0.024291903,0.030732915,0.013923645,0.0,0.0,0.0
1220.4066,387.63147,13141265,0.65000004,0.08510638,1791.4774,114.3246,0.024291903,0.030732915,0.013923645,0.0,0.0,0.0
1225.5789,387.2638,13141268,0.25,0.08510638,1825.9373,99.485214,0.024291903,0.030732915,0.013923645,0.0,0.0,0.0
1225.5789,387.2638,13141275,0.25,0.08510638,1825.9373,99.485214,0.024291903,0.030732915,0.013923645,0.0,0.0,0.0
