x,y,timestamp,pressure,fingerarea,velocityx,velocityy,accelx,accely,accelz,gyrox,gyroy,gyroz
178.41978,247.7688,71270402,0.7625,0.10638297,0.0,0.0,0.3367172,-0.011861399,0.050395966,0.0,0.0,0.0
178.41978,247.7688,71270432,0.8125,0.10638297,0.005533386,0.0079363985,0.3367172,-0.011861399,0.050395966,0.0,0.0,0.0
178.41978,247.7688,71270449,0.85,0.10638297,0.007327674,0.010641693,0.3367172,-0.011861399,0.050395966,0.0,0.0,0.0
178.41978,247.7688,71270462,0.8625,0.09574468,0.0047202874,0.008709349,0.3367172,-0.011861399,0.050395966,0.0,0.0,0.0
169.83885,225.3479,71270482,0.90000004,0.10638297,-337.06088,-883.3171,0.3367172,-0.011861399,0.050395966,0.0,0.0,0.0
166.73647,216.11694,71270499,0.8875,0.10638297,-370.4613,-998.75775,0.3367172,-0.011861399,0.050395966,0.0,0.0,0.0
164.21286,206.84631,71270516,0.90000004,0.12765957,-328.88312,-964.83887,0.3367172,-0.011861399,0.050395966,0.0,0.0,0.0
162.11682,198.69397,71270532,0.90000004,0.12765957,-183.41422,-674.7697,0.3367172,-0.011861399,0.050395966,0.0,0.0,0.0
159.4742,189.78613,71270549,0.925,0.12765957,-74.7666,-392.44272,0.3367172,-0.011861399,0.050395966,0.0,0.0,0.0
157.253,182.68982,71270566,0.9125,0.11702127,-108.23123,-429.52368,0.3367172,-0.011861399,0.050395966,0.0,0.0,0.0
154.91162,174.85535,71270583,0.9125,0.11702127,-136.82953,-446.4391,0.3367172,-0.011861399,0.050395966,0.0,0.0,0.0
153.62979,167.99146,71270599,0.95,0.11702127,-117.047554,-433.88718,0.3367172,-0.011861399,0.050395966,0.0,0.0,0.0
152.58688,162.43005,71270616,0.9375,0.11702127,-61.344406,-362.3108,0.3367172,-0.011861399,0.050395966,0.0,0.0,0.0
151.55225,159.1383,71270633,0.925,0.11702127,-29.989813,-231.47765,0.3367172,-0.011861399,0.050395966,0.0,0.0,0.0
150.92873,157.27881,71270649,0.8875,0.11702127,-16.512012,-80.67902,0.30137375,-0.009489119,0.10431671,0.0,0.0,0.0
150.92873,155.43005,71270666,0.875,0.11702127,-6.365691,-1.5666349,0.30137375,-0.009489119,0.10431671,0.0,0.0,0.0
151.43326,154.47595,71270683,0.9125,0.11702127,26.914919,13.07315,0.30137375,-0.009489119,0.10431671,0.0,0.0,0.0
153.52222,155.44824,71270699,0.90000004,0.10638297,103.989204,55.12802,0.30137375,-0.009489119,0.10431671,0.0,0.0,0.0
158.38348,159.24341,71270716,0.8875,0.09574468,238.24678,176.5627,0.30137375,-0.009489119,0.10431671,0.0,0.0,0.0
167.54602,166.91321,71270733,0.875,0.10638297,469.16302,414.11298,0.30137375,-0.009489119,0.10431671,0.0,0.0,0.0
180.41153,174.22388,71270750,0.8875,0.12765957,766.73553,588.9614,0.30137375,-0.009489119,0.10431671,0.0,0.0,0.0
192.57321,180.3999,71270766,0.90000004,0.12765957,961.4481,602.93976,0.30137375,-0.009489119,0.10431671,0.0,0.0,0.0
204.61441,187.17468,71270783,0.8875,0.12765957,938.12244,467.4275,0.30137375,-0.009489119,0.10431671,0.0,0.0,0.0
220.45584,193.30908,71270800,0.8875,0.10638297,912.73804,378.66245,0.30137375,-0.009489119,0.10431671,0.0,0.0,0.0
238.52258,196.80444,71270816,0.875,0.10638297,1028.793,283.64505,0.30137375,-0.009489119,0.10431671,0.0,0.0,0.0
252.1626,198.01257,71270833,0.8875,0.12765957,1069.5397,126.31062,0.30137375,-0.009489119,0.10431671,0.0,0.0,0.0
266.14923,195.75977,71270850,0.8875,0.12765957,950.0762,-102.271965,0.30137375,-0.009489119,0.10431671,0.0,0.0,0.0
279.44867,192.04956,71270867,0.8875,0.10638297,771.89386,-326.7175,0.30137375,-0.009489119,0.10431671,0.0,0.0,0.0
291.2567,187.41174,71270883,0.8875,0.12765957,670.1756,-428.3899,0.30137375,-0.009489119,0.10431671,0.0,0.0,0.0
300.12164,181.85864,71270900,0.90000004,0.12765957,584.7571,-449.1473,0.30137375,-0.009489119,0.10431671,0.0,0.0,0.0
305.7443,176.29834,71270917,0.9125,0.11702127,397.73462,-431.14728,0.30137375,-0.009489119,0.10431671,0.0,0.0,0.0
310.31625,168.79956,71270933,0.925,0.11702127,179.1421,-445.41318,0.30137375,-0.009489119,0.10431671,0.0,0.0,0.0
316.84305,154.9292,71270950,0.90000004,0.12765957,146.91406,-644.49414,0.30137375,-0.009489119,0.10431671,0.0,0.0,0.0
320.42245,145.17883,71270967,0.925,0.12765957,175.96469,-799.1165,0.30137375,-0.009489119,0.10431671,0.0,0.0,0.0
322.1014,138.15369,71270983,0.9375,0.12765957,160.54407,-714.5487,0.30137375,-0.009489119,0.10431671,0.0,0.0,0.0
322.37292,132.60535,71271000,0.90000004,0.12765957,15.157758,-422.7741,0.30137375,-0.009489119,0.10431671,0.0,0.0,0.0
322.37292,128.48914,71271017,0.90000004,0.12765957,-111.44407,-152.07088,0.30137375,-0.009489119,0.10431671,0.0,0.0,0.0
322.37292,126.329956,71271034,0.90000004,0.12765957,-118.3153,-27.485508,0.30137375,-0.009489119,0.10431671,0.0,0.0,0.0
322.37292,124.49695,71271050,0.8875,0.12765957,-56.138973,-18.132427,0.30137375,-0.009489119,0.10431671,0.0,0.0,0.0
322.37292,124.266846,71271067,0.875,0.12765957,-13.923985,33.88009,0.30137375,-0.009489119,0.10431671,0.0,0.0,0.0
322.37292,124.266846,71271080,0.875,0.12765957,-2.5390503,68.07986,0.30137375,-0.009489119,0.10431671,0.0,0.0,0.0
322.8918,127.000244,71271100,0.8875,0.12765957,13.621632,139.61385,0.30137375,-0.009489119,0.10431671,0.0,0.0,0.0
324.4945,132.69788,71271117,0.8625,0.12765957,59.81497,288.65308,0.30137375,-0.009489119,0.10431671,0.0,0.0,0.0
326.59357,144.30627,71271134,0.875,0.10638297,125.64769,590.036,0.30137375,-0.009489119,0.10431671,0.0,0.0,0.0
328.76834,160.14893,71271151,0.8625,0.10638297,167.36766,979.00616,0.30137375,-0.009489119,0.10431671,0.0,0.0,0.0
331.3675,174.60352,71271167,0.8625,0.12765957,192.82556,1190.6217,0.20909901,-0.0075912923,0.09945297,0.0,0.0,0.0
334.7265,190.77942,71271184,0.83750004,0.09574468,199.46686,1180.7301,0.20909901,-0.0075912923,0.09945297,0.0,0.0,0.0
340.38287,210.97314,71271201,0.8625,0.09574468,288.8048,1177.3579,0.20909901,-0.0075912923,0.09945297,0.0,0.0,0.0
345.0693,229.12695,71271217,0.8625,0.10638297,358.54517,1206.2782,0.20909901,-0.0075912923,0.09945297,0.0,0.0,0.0
351.19092,249.82532,71271234,0.875,0.10638297,386.01917,1283.5355,0.20909901,-0.0075912923,0.09945297,0.0,0.0,0.0
358.29916,272.07703,71271251,0.85,0.10638297,432.01157,1330.9221,0.20909901,-0.0075912923,0.09945297,0.0,0.0,0.0
364.70413,290.9485,71271268,0.83750004,0.12765957,437.3523,1263.3917,0.20909901,-0.0075912923,0.09945297,0.0,0.0,0.0
372.5942,315.31763,71271284,0.85,0.09574468,480.09882,1346.7161,0.20909901,-0.0075912923,0.09945297,0.0,0.0,0.0
380.88013,336.67102,71271301,0.85,0.12765957,509.99597,1404.0645,0.20909901,-0.0075912923,0.09945297,0.0,0.0,0.0
389.7275,361.77954,71271318,0.85,0.08510638,540.4098,1441.1013,0.20909901,-0.0075912923,0.09945297,0.0,0.0,0.0
399.65378,386.50793,71271334,0.85,0.10638297,604.0764,1533.4596,0.20909901,-0.0075912923,0.09945297,0.0,0.0,0.0
408.31726,407.6256,71271351,0.85,0.10638297,604.1693,1447.0613,0.20909901,-0.0075912923,0.09945297,0.0,0.0,0.0
415.66025,430.1526,71271368,0.83750004,0.11702127,536.70886,1358.0834,0.20909901,-0.0075912923,0.09945297,0.0,0.0,0.0
419.43997,446.07617,71271385,0.825,0.12765957,352.51282,1144.8019,0.20909901,-0.0075912923,0.09945297,0.0,0.0,0.0
422.84003,462.34082,71271401,0.825,0.11702127,135.19597,859.26294,0.20909901,-0.0075912923,0.09945297,0.0,0.0,0.0
423.26242,479.84485,71271418,0.825,0.09574468,-12.519907,845.6562,0.20909901,-0.0075912923,0.09945297,0.0,0.0,0.0
420.88577,495.17883,71271435,0.825,0.11702127,-178.19472,844.77423,0.20909901,-0.0075912923,0.09945297,0.0,0.0,0.0
416.6446,508.4845,71271451,0.83750004,0.12765957,-315.06058,829.9518,0.20909901,-0.0075912923,0.09945297,0.0,0.0,0.0
410.2979,518.37976,71271468,0.8625,0.09574468,-456.76834,665.45404,0.20909901,-0.0075912923,0.09945297,0.0,0.0,0.0
396.95068,532.35425,71271485,0.85,0.08510638,-721.01227,581.73517,0.20909901,-0.0075912923,0.09945297,0.0,0.0,0.0
384.43738,542.6892,71271502,0.85,0.10638297,-937.12866,606.0281,0.20909901,-0.0075912923,0.09945297,0.0,0.0,0.0
370.9013,549.1449,71271518,0.8625,0.10638297,-1017.5388,507.8187,0.20909901,-0.0075912923,0.09945297,0.0,0.0,0.0
354.636,551.765,71271535,0.8875,0.12765957,-1055.4905,244.31848,0.20909901,-0.0075912923,0.09945297,0.0,0.0,0.0
338.85773,552.33374,71271552,0.90000004,0.10638297,-1049.0505,-49.648487,0.20909901,-0.0075912923,0.09945297,0.0,0.0,0.0
327.07428,550.4923,71271568,0.9125,0.11702127,-941.62396,-273.52222,0.20909901,-0.0075912923,0.09945297,0.0,0.0,0.0
317.85156,548.9713,71271585,0.925,0.11702127,-710.8901,-310.27304,0.20909901,-0.0075912923,0.09945297,0.0,0.0,0.0
308.5444,549.38586,71271602,0.8875,0.10638297,-408.61038,-174.31476,0.20909901,-0.0075912923,0.09945297,0.0,0.0,0.0
300.764,550.7484,71271619,0.75,0.09574468,-341.97842,10.9524555,0.20909901,-0.0075912923,0.09945297,0.0,0.0,0.0
299.88025,550.7484,71271622,0.4875,0.12765957,-322.84766,25.729494,0.20909901,-0.0075912923,0.09945297,0.0,0.0,0.0
299.88025,550.7484,71271629,0.4875,0.12765957,-322.84766,25.729494,0.20909901,-0.0075912923,0.09945297,0.0,0.0,0.0
323.87244,373.93628,71271887,0.90000004,0.10638297,0.0,0.0,0.19927922,-0.006073028,0.06356335,0.0,0.0,0.0
323.87244,373.93628,71271919,0.9125,0.10638297,0.0048869983,0.0059347474,0.19927922,-0.006073028,0.06356335,0.0,0.0,0.0
323.87244,373.93628,71271936,0.8875,0.12765957,-0.012229757,-0.016004242,0.19927922,-0.006073028,0.06356335,0.0,0.0,0.0
358.50592,359.9933,71271953,0.875,0.12765957,1707.2405,-690.35626,0.19927922,-0.006073028,0.06356335,0.0,0.0,0.0
384.38742,351.28442,71271969,0.8625,0.10638297,2139.343,-803.8982,0.19927922,-0.006073028,0.06356335,0.0,0.0,0.0
410.1831,344.65662,71271986,0.825,0.12765957,2323.0881,-774.0216,0.19927922,-0.006073028,0.06356335,0.0,0.0,0.0
436.34424,337.83447,71272003,0.7375,0.09574468,2206.3113,-615.97107,0.19927922,-0.006073028,0.06356335,0.0,0.0,0.0
459.58783,332.6184,71272020,0.4125,0.11702127,1546.5369,-276.54297,0.19927922,-0.006073028,0.06356335,0.0,0.0,0.0
461.3277,332.1765,71272023,0.26250002,0.11702127,1446.754,-248.63794,0.19927922,-0.006073028,0.06356335,0.0,0.0,0.0
461.3277,332.1765,71272031,0.26250002,0.11702127,1446.754,-248.63794,0.19927922,-0.006073028,0.06356335,0.0,0.0,0.0
477.82233,387.2638,71272490,0.8,0.11702127,0.0,0.0,0.15942337,0.003141582,-0.0131492615,0.0,0.0,0.0
477.82233,387.2638,71272521,0.825,0.11702127,0.04091975,0.032382093,0.15942337,0.003141582,-0.0131492615,0.0,0.0,0.0
477.82233,387.2638,71272538,0.8125,0.12765957,-0.0023285842,-0.0036495393,0.15942337,0.003141582,-0.0131492615,0.0,0.0,0.0
479.69037,400.5464,71272554,0.825,0.12765957,68.13422,484.3743,0.15942337,0.003141582,-0.0131492615,0.0,0.0,0.0
482.8557,416.72437,71272571,0.825,0.11702127,188.49089,1131.0928,0.15942337,0.003141582,-0.0131492615,0.0,0.0,0.0
487.02417,433.39648,71272588,0.8125,0.10638297,274.98105,1358.6963,0.15942337,0.003141582,-0.0131492615,0.0,0.0,0.0
491.7674,445.97534,71272604,0.825,0.12765957,354.19464,1346.0803,0.15942337,0.003141582,-0.0131492615,0.0,0.0,0.0
495.7356,453.75793,71272621,0.8125,0.10638297,352.28928,872.275,0.15942337,0.003141582,-0.0131492615,0.0,0.0,0.0
504.57758,462.75098,71272638,0.8125,0.09574468,406.24493,379.99713,0.15942337,0.003141582,-0.0131492615,0.0,0.0,0.0
514.19257,470.12097,71272655,0.8125,0.10638297,553.09625,270.18015,0.15942337,0.003141582,-0.0131492615,0.0,0.0,0.0
522.0562,473.0039,71272671,0.8,0.09574468,661.60046,208.69342,0.15942337,0.003141582,-0.0131492615,0.0,0.0,0.0
528.5602,472.92896,71272688,0.8125,0.11702127,574.0702,50.127655,0.15942337,0.003141582,-0.0131492615,0.0,0.0,0.0
533.5502,469.67603,71272705,0.83750004,0.11702127,363.29837,-242.6986,0.15942337,0.003141582,-0.0131492615,0.0,0.0,0.0
537.7847,464.36548,71272721,0.83750004,0.12765957,178.5445,-489.23154,0.15942337,0.003141582,-0.0131492615,0.0,0.0,0.0
542.3567,451.23657,71272738,0.85,0.10638297,147.8861,-713.75006,0.15942337,0.003141582,-0.0131492615,0.0,0.0,0.0
545.7059,434.2201,71272755,0.8625,0.10638297,179.74394,-1069.571,0.15942337,0.003141582,-0.0131492615,0.0,0.0,0.0
546.79987,418.4442,71272772,0.8625,0.12765957,124.20292,-1309.7638,0.1275387,-0.0054867417,0.0054807663,0.0,0.0,0.0
546.2622,408.25244,71272788,0.8625,0.12765957,-15.509621,-1098.7816,0.1275387,-0.0054867417,0.0054807663,0.0,0.0,0.0
544.723,400.04065,71272805,0.8625,0.11702127,-156.89311,-682.3893,0.1275387,-0.0054867417,0.0054807663,0.0,0.0,0.0
543.1818,393.73657,71272822,0.8625,0.11702127,-213.93501,-285.08047,0.1275387,-0.0054867417,0.0054807663,0.0,0.0,0.0
542.12787,391.39783,71272838,0.875,0.11702127,-167.40196,-60.3451,0.1275387,-0.0054867417,0.0054807663,0.0,0.0,0.0
541.30164,389.92932,71272855,0.85,0.11702127,-98.16778,52.519253,0.1275387,-0.0054867417,0.0054807663,0.0,0.0,0.0
541.30164,390.34985,71272872,0.85,0.12765957,-12.233758,128.26588,0.1275387,-0.0054867417,0.0054807663,0.0,0.0,0.0
542.8576,393.08923,71272888,0.8625,0.12765957,59.02694,230.4133,0.1275387,-0.0054867417,0.0054807663,0.0,0.0,0.0
547.3955,401.32886,71272905,0.8625,0.12765957,205.7211,405.76862,0.1275387,-0.0054867417,0.0054807663,0.0,0.0,0.0
553.6426,409.78723,71272922,0.8625,0.10638297,392.93637,639.45514,0.1275387,-0.0054867417,0.0054807663,0.0,0.0,0.0
565.4881,422.4431,71272939,0.8625,0.10638297,650.57404,847.6954,0.1275387,-0.0054867417,0.0054807663,0.0,0.0,0.0
577.95197,432.7788,71272955,0.83750004,0.11702127,882.4617,887.5263,0.1275387,-0.0054867417,0.0054807663,0.0,0.0,0.0
592.48676,441.32117,71272972,0.83750004,0.11702127,1020.54376,749.483,0.1275387,-0.0054867417,0.0054807663,0.0,0.0,0.0
612.72314,447.80054,71272989,0.825,0.12765957,1210.8231,484.44922,0.1275387,-0.0054867417,0.0054807663,0.0,0.0,0.0
630.34235,448.57056,71273005,0.8125,0.11702127,1285.4377,165.24315,0.1275387,-0.0054867417,0.0054807663,0.0,0.0,0.0
644.8906,443.55127,71273022,0.8125,0.10638297,1156.6376,-250.38673,0.1275387,-0.0054867417,0.0054807663,0.0,0.0,0.0
659.44244,432.56726,71273039,0.825,0.08510638,965.4852,-681.365,0.1275387,-0.0054867417,0.0054807663,0.0,0.0,0.0
673.70416,416.91736,71273056,0.825,0.12765957,775.7936,-1090.4873,0.1275387,-0.0054867417,0.0054807663,0.0,0.0,0.0
682.7998,396.76746,71273072,0.85,0.10638297,589.0723,-1366.023,0.1275387,-0.0054867417,0.0054807663,0.0,0.0,0.0
692.06683,366.50854,71273089,0.875,0.12765957,548.50586,-1870.4863,0.1275387,-0.0054867417,0.0054807663,0.0,0.0,0.0
695.86163,341.81287,71273106,0.875,0.12765957,292.3046,-2029.355,0.1275387,-0.0054867417,0.0054807663,0.0,0.0,0.0
697.25085,310.6139,71273122,0.875,0.12765957,16.295877,-2065.2148,0.1275387,-0.0054867417,0.0054807663,0.0,0.0,0.0
697.3684,277.03552,71273139,0.875,0.11702127,-173.49829,-2038.6855,0.1275387,-0.0054867417,0.0054807663,0.0,0.0,0.0
695.83386,244.63794,71273156,0.8625,0.12765957,-284.78824,-2050.3027,0.1275387,-0.0054867417,0.0054807663,0.0,0.0,0.0
692.9119,210.0221,71273173,0.8875,0.11702127,-252.45837,-2202.9846,0.1275387,-0.0054867417,0.0054807663,0.0,0.0,0.0
687.7232,185.44226,71273189,0.90000004,0.12765957,-336.02444,-1895.8903,0.1275387,-0.0054867417,0.0054807663,0.0,0.0,0.0
681.9489,163.24951,71273206,0.9375,0.12765957,-420.30292,-1426.4995,0.1275387,-0.0054867417,0.0054807663,0.0,0.0,0.0
675.1984,148.87329,71273223,0.925,0.12765957,-485.79437,-890.1933,0.1275387,-0.0054867417,0.0054807663,0.0,0.0,0.0
671.8382,143.95435,71273239,0.925,0.12765957,-405.4937,-292.43695,0.1275387,-0.0054867417,0.0054807663,0.0,0.0,0.0
668.1777,140.45801,71273256,0.90000004,0.12765957,-264.17783,148.90424,0.1275387,-0.0054867417,0.0054807663,0.0,0.0,0.0
665.1396,139.37134,71273273,0.90000004,0.12765957,-152.23668,306.29956,0.1275387,-0.0054867417,0.0054807663,0.0,0.0,0.0
661.76355,142.03479,71273290,0.8625,0.12765957,-116.17102,322.40842,0.1275387,-0.0054867417,0.0054807663,0.0,0.0,0.0
658.1052,156.06824,71273306,0.8875,0.10638297,-184.37231,613.91565,0.1275387,-0.0054867417,0.0054807663,0.0,0.0,0.0
657.094,175.44531,71273323,0.875,0.12765957,-159.35333,1232.2169,0.08603095,-0.0043893903,0.05238533,0.0,0.0,0.0
659.75287,201.49402,71273340,0.875,0.12765957,30.550623,1797.8079,0.08603095,-0.0043893903,0.05238533,0.0,0.0,0.0
664.6961,229.43152,71273356,0.90000004,0.12765957,298.885,2121.912,0.08603095,-0.0043893903,0.05238533,0.0,0.0,0.0
671.96405,264.67944,71273373,0.875,0.10638297,540.1192,2255.642,0.08603095,-0.0043893903,0.05238533,0.0,0.0,0.0
680.18463,299.00427,71273390,0.8625,0.12765957,654.39795,2354.5269,0.08603095,-0.0043893903,0.05238533,0.0,0.0,0.0
687.45044,335.0586,71273407,0.85,0.12765957,614.7333,2409.06,0.08603095,-0.0043893903,0.05238533,0.0,0.0,0.0
694.78357,372.1942,71273423,0.8625,0.11702127,536.391,2380.6846,0.08603095,-0.0043893903,0.05238533,0.0,0.0,0.0
699.3698,401.00903,71273440,0.8625,0.12765957,381.6383,2124.6592,0.08603095,-0.0043893903,0.05238533,0.0,0.0,0.0
705.72565,431.56934,71273457,0.85,0.11702127,302.013,1776.6593,0.08603095,-0.0043893903,0.05238533,0.0,0.0,0.0
710.4991,446.8025,71273473,0.8625,0.12765957,260.91898,1271.9501,0.08603095,-0.0043893903,0.05238533,0.0,0.0,0.0
714.9181,458.1797,71273490,0.8625,0.12765957,260.69446,598.9746,0.08603095,-0.0043893903,0.05238533,0.0,0.0,0.0
718.3491,464.25928,71273507,0.8625,0.10638297,226.67693,124.99283,0.08603095,-0.0043893903,0.05238533,0.0,0.0,0.0
721.3121,468.24023,71273524,0.8625,0.10638297,154.66707,-170.01398,0.08603095,-0.0043893903,0.05238533,0.0,0.0,0.0
723.91113,470.4889,71273540,0.875,0.10638297,117.32827,-198.84238,0.08603095,-0.0043893903,0.05238533,0.0,0.0,0.0
725.62646,471.67163,71273557,0.8875,0.10638297,80.959595,-132.78006,0.08603095,-0.0043893903,0.05238533,0.0,0.0,0.0
727.16675,470.91516,71273574,0.90000004,0.12765957,61.54315,-116.71992,0.08603095,-0.0043893903,0.05238533,0.0,0.0,0.0
728.6745,466.51685,71273590,0.8875,0.12765957,49.41347,-211.87016,0.08603095,-0.0043893903,0.05238533,0.0,0.0,0.0
729.7764,455.229,71273607,0.8875,0.12765957,49.684303,-541.45514,0.08603095,-0.0043893903,0.05238533,0.0,0.0,0.0
732.86334,436.80627,71273624,0.8875,0.10638297,112.59108,-1054.1296,0.08603095,-0.0043893903,0.05238533,0.0,0.0,0.0
737.73773,413.4746,71273640,0.8875,0.12765957,204.76817,-1460.7717,0.08603095,-0.0043893903,0.05238533,0.0,0.0,0.0
740.83167,399.98926,71273657,0.875,0.12765957,276.6825,-1533.013,0.08603095,-0.0043893903,0.05238533,0.0,0.0,0.0
745.0209,383.2345,71273674,0.8875,0.11702127,305.03867,-1294.3357,0.08603095,-0.0043893903,0.05238533,0.0,0.0,0.0
748.65173,372.45203,71273691,0.90000004,0.12765957,283.06876,-877.2942,0.08603095,-0.0043893903,0.05238533,0.0,0.0,0.0
750.4896,365.46313,71273707,0.8875,0.12765957,192.26407,-467.6199,0.08603095,-0.0043893903,0.05238533,0.0,0.0,0.0
751.52124,362.76233,71273724,0.8875,0.12765957,64.79997,-119.79542,0.08603095,-0.0043893903,0.05238533,0.0,0.0,0.0
753.06726,361.4972,71273741,0.8875,0.12765957,6.969447,148.63425,0.08603095,-0.0043893903,0.05238533,0.0,0.0,0.0
756.34247,362.15515,71273758,0.875,0.12765957,61.857903,256.61063,0.08603095,-0.0043893903,0.05238533,0.0,0.0,0.0
761.20905,367.98804,71273774,0.8625,0.10638297,216.15784,372.5808,0.08603095,-0.0043893903,0.05238533,0.0,0.0,0.0
769.37897,382.14014,71273791,0.875,0.12765957,422.35886,671.9257,0.08603095,-0.0043893903,0.05238533,0.0,0.0,0.0
775.75366,395.31067,71273808,0.8625,0.10638297,543.65094,1053.6919,0.08603095,-0.0043893903,0.05238533,0.0,0.0,0.0
782.5474,412.07678,71273824,0.8625,0.10638297,531.4358,1246.9159,0.08603095,-0.0043893903,0.05238533,0.0,0.0,0.0
787.1581,428.4099,71273841,0.85,0.10638297,405.9015,1254.8818,0.08603095,-0.0043893903,0.05238533,0.0,0.0,0.0
792.7052,442.54065,71273858,0.85,0.12765957,297.88757,1077.9353,0.06882476,0.004488498,0.105908394,0.0,0.0,0.0
796.6696,449.69727,71273875,0.85,0.12765957,222.19962,717.33344,0.06882476,0.004488498,0.105908394,0.0,0.0,0.0
802.9113,457.094,71273891,0.83750004,0.12765957,264.17093,401.3954,0.06882476,0.004488498,0.105908394,0.0,0.0,0.0
809.86304,464.48364,71273908,0.83750004,0.10638297,359.6852,172.14273,0.06882476,0.004488498,0.105908394,0.0,0.0,0.0
818.94794,468.61438,71273925,0.83750004,0.10638297,512.3835,189.89098,0.06882476,0.004488498,0.105908394,0.0,0.0,0.0
827.33057,469.89453,71273941,0.83750004,0.10638297,598.47156,125.24391,0.06882476,0.004488498,0.105908394,0.0,0.0,0.0
836.7068,466.84766,71273958,0.85,0.12765957,627.9115,-128.31308,0.06882476,0.004488498,0.105908394,0.0,0.0,0.0
844.84467,460.88367,71273975,0.8625,0.12765957,568.571,-435.68216,0.06882476,0.004488498,0.105908394,0.0,0.0,0.0
851.4006,452.56897,71273992,0.8625,0.12765957,467.13165,-652.8498,0.06882476,0.004488498,0.105908394,0.0,0.0,0.0
858.62756,437.19275,71274008,0.8625,0.11702127,388.4935,-870.92255,0.06882476,0.004488498,0.105908394,0.0,0.0,0.0
864.3528,421.47107,71274025,0.875,0.12765957,333.3054,-1137.0754,0.06882476,0.004488498,0.105908394,0.0,0.0,0.0
867.91644,407.6709,71274042,0.875,0.12765957,252.54916,-1163.2881,0.06882476,0.004488498,0.105908394,0.0,0.0,0.0
871.0543,394.65588,71274058,0.875,0.12765957,156.29749,-1008.46515,0.06882476,0.004488498,0.105908394,0.0,0.0,0.0
876.69446,379.26196,71274075,0.8875,0.12765957,164.8809,-866.02246,0.06882476,0.004488498,0.105908394,0.0,0.0,0.0
881.8136,365.8119,71274092,0.8875,0.12765957,234.27182,-788.92505,0.06882476,0.004488498,0.105908394,0.0,0.0,0.0
887.0245,358.5702,71274108,0.875,0.12765957,344.98257,-664.4001,0.06882476,0.004488498,0.105908394,0.0,0.0,0.0
896.91046,349.96667,71274125,0.8625,0.12765957,504.11887,-480.0183,0.06882476,0.004488498,0.105908394,0.0,0.0,0.0
906.02295,343.94482,71274142,0.85,0.12765957,625.65,-279.75345,0.06882476,0.004488498,0.105908394,0.0,0.0,0.0
912.8072,340.48352,71274159,0.85,0.12765957,615.74023,-150.70628,0.06882476,0.004488498,0.105908394,0.0,0.0,0.0
916.9355,338.72656,71274175,0.8625,0.12765957,401.38873,-48.50558,0.06882476,0.004488498,0.105908394,0.0,0.0,0.0
919.3863,338.39612,71274192,0.8625,0.12765957,115.448746,90.06589,0.06882476,0.004488498,0.105908394,0.0,0.0,0.0
921.14923,338.39612,71274209,0.8625,0.12765957,-21.570177,133.69775,0.06882476,0.004488498,0.105908394,0.0,0.0,0.0
921.178,338.39612,71274225,0.875,0.12765957,-69.184555,95.6463,0.06882476,0.004488498,0.105908394,0.0,0.0,0.0
920.67816,339.28455,71274257,0.875,0.12765957,-95.37681,57.659065,0.06882476,0.004488498,0.105908394,0.0,0.0,0.0
918.3943,340.1731,71274276,0.8625,0.12765957,-131.14519,53.357025,0.06882476,0.004488498,0.105908394,0.0,0.0,0.0
913.6125,342.3296,71274292,0.83750004,0.12765957,-234.97626,99.27379,0.06882476,0.004488498,0.105908394,0.0,0.0,0.0
902.8319,347.48962,71274309,0.83750004,0.12765957,-543.62634,235.52179,0.06882476,0.004488498,0.105908394,0.0,0.0,0.0
891.63947,353.97058,71274326,0.8625,0.12765957,-875.13214,472.19357,0.06882476,0.004488498,0.105908394,0.0,0.0,0.0
882.63226,360.92175,71274342,0.8625,0.10638297,-842.2005,529.8134,0.06882476,0.004488498,0.105908394,0.0,0.0,0.0
874.78845,370.5371,71274359,0.85,0.11702127,-680.40326,616.6698,0.06882476,0.004488498,0.105908394,0.0,0.0,0.0
867.2482,383.3402,71274376,0.85,0.12765957,-418.68765,705.55743,0.03905981,-0.004409209,0.036725998,0.0,0.0,0.0
860.2983,397.32043,71274392,0.85,0.12765957,-346.3889,903.53906,0.03905981,-0.004409209,0.036725998,0.0,0.0,0.0
856.40967,410.38025,71274409,0.8625,0.12765957,-277.45047,982.1306,0.03905981,-0.004409209,0.036725998,0.0,0.0,0.0
854.7155,424.38367,71274426,0.83750004,0.11702127,-148.68584,967.9043,0.03905981,-0.004409209,0.036725998,0.0,0.0,0.0
855.228,435.5476,71274443,0.85,0.12765957,62.181633,799.1501,0.03905981,-0.004409209,0.036725998,0.0,0.0,0.0
857.89886,444.60242,71274459,0.85,0.12765957,241.18282,606.6404,0.03905981,-0.004409209,0.036725998,0.0,0.0,0.0
860.38104,449.78467,71274476,0.85,0.12765957,299.44244,391.36603,0.03905981,-0.004409209,0.036725998,0.0,0.0,0.0
866.3703,457.95825,71274493,0.85,0.12765957,363.7165,251.13258,0.03905981,-0.004409209,0.036725998,0.0,0.0,0.0
874.35596,465.15234,71274509,0.85,0.10638297,482.51068,269.7912,0.03905981,-0.004409209,0.036725998,0.0,0.0,0.0
883.04517,471.3849,71274526,0.85,0.09574468,613.29694,377.89868,0.03905981,-0.004409209,0.036725998,0.0,0.0,0.0
891.2621,474.80334,71274543,0.8625,0.10638297,675.79834,345.06662,0.03905981,-0.004409209,0.036725998,0.0,0.0,0.0
897.0237,476.11414,71274559,0.8625,0.10638297,530.7404,129.38206,0.03905981,-0.004409209,0.036725998,0.0,0.0,0.0
901.0136,476.11414,71274576,0.875,0.12765957,284.12054,-87.69429,0.03905981,-0.004409209,0.036725998,0.0,0.0,0.0
904.2831,473.92297,71274593,0.8625,0.12765957,118.13167,-207.53549,0.03905981,-0.004409209,0.036725998,0.0,0.0,0.0
907.9134,469.4839,71274610,0.85,0.12765957,77.72969,-306.806,0.03905981,-0.004409209,0.036725998,0.0,0.0,0.0
911.5281,462.17004,71274626,0.85,0.12765957,129.68669,-450.2532,0.03905981,-0.004409209,0.036725998,0.0,0.0,0.0
918.1564,445.9773,71274643,0.83750004,0.11702127,270.72256,-797.5164,0.03905981,-0.004409209,0.036725998,0.0,0.0,0.0
922.3143,428.29492,71274660,0.8625,0.12765957,350.66364,-1205.0238,0.03905981,-0.004409209,0.036725998,0.0,0.0,0.0
923.7536,412.83203,71274676,0.8625,0.12765957,245.31834,-1316.0911,0.03905981,-0.004409209,0.036725998,0.0,0.0,0.0
924.177,399.87244,71274693,0.875,0.12765957,61.42147,-1117.9966,0.03905981,-0.004409209,0.036725998,0.0,0.0,0.0
924.177,385.33008,71274710,0.875,0.12765957,-93.55161,-875.1581,0.03905981,-0.004409209,0.036725998,0.0,0.0,0.0
923.4701,375.1294,71274727,0.8875,0.12765957,-143.49345,-673.0293,0.03905981,-0.004409209,0.036725998,0.0,0.0,0.0
922.45764,368.71204,71274743,0.90000004,0.12765957,-101.790695,-496.0663,0.03905981,-0.004409209,0.036725998,0.0,0.0,0.0
921.4299,366.38757,71274760,0.8875,0.12765957,-97.65517,-181.22337,0.03905981,-0.004409209,0.036725998,0.0,0.0,0.0
920.8617,364.4889,71274777,0.875,0.12765957,-75.09935,117.63882,0.03905981,-0.004409209,0.036725998,0.0,0.0,0.0
920.1783,364.16272,71274793,0.8625,0.12765957,-50.381805,190.21718,0.03905981,-0.004409209,0.036725998,0.0,0.0,0.0
920.1783,367.11755,71274810,0.85,0.11702127,-10.2468815,208.50594,0.03905981,-0.004409209,0.036725998,0.0,0.0,0.0
921.5573,375.9591,71274827,0.85,0.11702127,41.95252,403.81235,0.03905981,-0.004409209,0.036725998,0.0,0.0,0.0
924.1587,387.19873,71274844,0.85,0.12765957,134.12334,744.18134,0.03905981,-0.004409209,0.036725998,0.0,0.0,0.0
928.2984,397.30994,71274860,0.85,0.12765957,256.4101,908.6149,0.03905981,-0.004409209,0.036725998,0.0,0.0,0.0
935.68774,411.27917,71274877,0.85,0.10638297,412.72266,950.7434,0.03905981,-0.004409209,0.036725998,0.0,0.0,0.0
942.48157,420.33008,71274894,0.825,0.10638297,512.31006,788.0768,0.03905981,-0.004409209,0.036725998,0.0,0.0,0.0
952.76355,433.67407,71274910,0.825,0.10638297,625.5252,724.48456,0.04724785,-0.01952736,-0.0026187897,0.0,0.0,0.0
962.0923,443.6194,71274927,0.8125,0.12765957,688.3465,700.02576,0.04724785,-0.01952736,-0.0026187897,0.0,0.0,0.0
971.3888,450.64624,71274944,0.8,0.12765957,664.446,543.0905,0.04724785,-0.01952736,-0.0026187897,0.0,0.0,0.0
981.99585,455.71313,71274960,0.8125,0.12765957,663.44495,342.31143,0.04724785,-0.01952736,-0.0026187897,0.0,0.0,0.0
991.32007,458.344,71274977,0.8,0.10638297,598.1011,89.453896,0.04724785,-0.01952736,-0.0026187897,0.0,0.0,0.0
1002.77686,458.344,71274994,0.8,0.12765957,625.5854,-89.49348,0.04724785,-0.01952736,-0.0026187897,0.0,0.0,0.0
1013.3268,455.46082,71275011,0.7875,0.12765957,653.41425,-228.85123,0.04724785,-0.01952736,-0.0026187897,0.0,0.0,0.0
1022.1737,449.4336,71275027,0.7875,0.11702127,601.54126,-400.4085,0.04724785,-0.01952736,-0.0026187897,0.0,0.0,0.0
1031.2686,439.2395,71275044,0.8,0.10638297,538.1627,-627.24634,0.04724785,-0.01952736,-0.0026187897,0.0,0.0,0.0
1040.3999,425.9525,71275061,0.8125,0.12765957,487.2716,-862.16156,0.04724785,-0.01952736,-0.0026187897,0.0,0.0,0.0
1048.0186,410.4054,71275077,0.8125,0.12765957,469.59637,-1083.649,0.04724785,-0.01952736,-0.0026187897,0.0,0.0,0.0
1052.965,395.71802,71275094,0.825,0.10638297,396.3878,-1143.0957,0.04724785,-0.01952736,-0.0026187897,0.0,0.0,0.0
1054.9187,380.80078,71275111,0.825,0.10638297,194.81242,-1093.9856,0.04724785,-0.01952736,-0.0026187897,0.0,0.0,0.0
1055.6342,366.94434,71275128,0.83750004,0.12765957,-11.10083,-964.4089,0.04724785,-0.01952736,-0.0026187897,0.0,0.0,0.0
1054.2566,357.48828,71275144,0.83750004,0.12765957,-171.95169,-737.4158,0.04724785,-0.01952736,-0.0026187897,0.0,0.0,0.0
1052.9087,351.00305,71275161,0.85,0.12765957,-222.52979,-423.51523,0.04724785,-0.01952736,-0.0026187897,0.0,0.0,0.0
1051.8848,345.5017,71275178,0.83750004,0.12765957,-176.68898,-200.74829,0.04724785,-0.01952736,-0.0026187897,0.0,0.0,0.0
1050.8262,341.73816,71275194,0.85,0.12765957,-123.42048,-71.331085,0.04724785,-0.01952736,-0.0026187897,0.0,0.0,0.0
1050.3308,339.63098,71275211,0.83750004,0.12765957,-44.488255,-26.133322,0.04724785,-0.01952736,-0.0026187897,0.0,0.0,0.0
1049.7947,337.78943,71275228,0.85,0.12765957,-11.483524,-13.115142,0.04724785,-0.01952736,-0.0026187897,0.0,0.0,0.0
1049.6361,335.87134,71275245,0.85,0.12765957,-9.458266,-12.721715,0.04724785,-0.01952736,-0.0026187897,0.0,0.0,0.0
1049.6361,334.47192,71275261,0.85,0.12765957,7.6665964,-44.301468,0.04724785,-0.01952736,-0.0026187897,0.0,0.0,0.0
1049.6361,334.84204,71275278,0.8625,0.12765957,13.472903,-15.990564,0.04724785,-0.01952736,-0.0026187897,0.0,0.0,0.0
1049.6361,334.84204,71275295,0.8625,0.12765957,12.493327,22.685822,0.04724785,-0.01952736,-0.0026187897,0.0,0.0,0.0
1049.6361,334.84204,71275358,0.85,0.12765957,0.0,0.0,0.04724785,-0.01952736,-0.0026187897,0.0,0.0,0.0
1049.6361,334.84204,71275378,0.8625,0.12765957,0.07734637,0.025228534,0.04724785,-0.01952736,-0.0026187897,0.0,0.0,0.0
1050.6626,336.19873,71275395,0.83750004,0.12765957,80.331245,113.40275,0.04724785,-0.01952736,-0.0026187897,0.0,0.0,0.0
1052.5691,338.6139,71275412,0.825,0.12765957,135.43857,173.02104,0.04724785,-0.01952736,-0.0026187897,0.0,0.0,0.0
1056.7976,343.724,71275428,0.825,0.12765957,243.67957,303.14502,0.04724785,-0.01952736,-0.0026187897,0.0,0.0,0.0
1064.1938,354.0282,71275445,0.825,0.12765957,399.43054,523.431,0.037798278,-0.015621886,0.013905525,0.0,0.0,0.0
1074.2842,371.49707,71275462,0.8125,0.11702127,608.65,904.2472,0.037798278,-0.015621886,0.013905525,0.0,0.0,0.0
1080.453,385.3501,71275478,0.8,0.12765957,691.2056,1221.739,0.037798278,-0.015621886,0.013905525,0.0,0.0,0.0
1087.0048,400.60486,71275495,0.8,0.12765957,552.25366,1223.4081,0.037798278,-0.015621886,0.013905525,0.0,0.0,0.0
1091.0171,414.25708,71275512,0.8125,0.10638297,338.11102,1052.2814,0.037798278,-0.015621886,0.013905525,0.0,0.0,0.0
1094.065,427.30713,71275529,0.8125,0.10638297,145.7504,817.1809,0.037798278,-0.015621886,0.013905525,0.0,0.0,0.0
1094.7667,437.42273,71275545,0.8125,0.12765957,16.27962,643.3595,0.037798278,-0.015621886,0.013905525,0.0,0.0,0.0
1094.7618,444.5177,71275562,0.8125,0.12765957,-46.429604,493.2778,0.037798278,-0.015621886,0.013905525,0.0,0.0,0.0
1093.4003,451.52905,71275579,0.8125,0.12765957,-149.65366,310.9298,0.037798278,-0.015621886,0.013905525,0.0,0.0,0.0
1091.6504,456.937,71275595,0.8,0.12765957,-178.92303,224.93158,0.037798278,-0.015621886,0.013905525,0.0,0.0,0.0
1088.6768,462.6919,71275612,0.8125,0.11702127,-211.79845,221.99794,0.037798278,-0.015621886,0.013905525,0.0,0.0,0.0
1085.4796,467.48645,71275629,0.8125,0.11702127,-244.27199,250.52803,0.037798278,-0.015621886,0.013905525,0.0,0.0,0.0
1083.2825,469.75476,71275646,0.8,0.11702127,-218.47136,183.13214,0.037798278,-0.015621886,0.013905525,0.0,0.0,0.0
1080.741,471.60352,71275662,0.825,0.11702127,-180.15292,90.482475,0.037798278,-0.015621886,0.013905525,0.0,0.0,0.0
1077.6271,473.4486,71275679,0.8,0.10638297,-155.2879,19.741003,0.037798278,-0.015621886,0.013905525,0.0,0.0,0.0
1074.4908,474.41833,71275696,0.8,0.10638297,-174.99269,2.4181435,0.037798278,-0.015621886,0.013905525,0.0,0.0,0.0
1071.4004,474.33704,71275712,0.77500004,0.10638297,-201.48915,-8.179411,0.037798278,-0.015621886,0.013905525,0.0,0.0,0.0
1068.8589,474.33704,71275729,0.625,0.10638297,-193.0924,-23.256504,0.037798278,-0.015621886,0.013905525,0.0,0.0,0.0
1068.1301,474.33704,71275736,0.35,0.12765957,-172.90962,-38.1824,0.037798278,-0.015621886,0.013905525,0.0,0.0,0.0
1068.1301,474.33704,71275743,0.35,0.12765957,-172.90962,-38.1824,0.037798278,-0.015621886,0.013905525,0.0,0.0,0.0
1128.1106,343.72717,71275880,0.825,0.12765957,0.0,0.0,0.037798278,-0.015621886,0.013905525,0.0,0.0,0.0
1128.1106,343.72717,71275896,0.8,0.12765957,-21.862904,-6.644782,0.037798278,-0.015621886,0.013905525,0.0,0.0,0.0
1128.1106,343.72717,71275908,0.8125,0.10638297,-0.11217959,-0.033204675,0.037798278,-0.015621886,0.013905525,0.0,0.0,0.0
1128.1106,343.72717,71275930,0.83750004,0.11702127,-0.048325025,-0.017310545,0.037798278,-0.015621886,0.013905525,0.0,0.0,0.0
1128.1106,343.72717,71275946,0.825,0.11702127,0.057366278,0.017476792,0.037798278,-0.015621886,0.013905525,0.0,0.0,0.0
1128.1106,343.72717,71275980,0.825,0.11702127,0.0406249,0.01220382,0.030238625,0.0035024881,0.011124611,0.0,0.0,0.0
1128.1106,343.72717,71275996,0.8125,0.11702127,-0.023719085,-0.0067156157,0.030238625,0.0035024881,0.011124611,0.0,0.0,0.0
1147.097,334.63916,71276013,0.8125,0.10638297,578.99335,-288.2628,0.030238625,0.0035024881,0.011124611,0.0,0.0,0.0
1158.9208,334.57068,71276030,0.8125,0.12765957,1059.5629,-360.01447,0.030238625,0.0035024881,0.011124611,0.0,0.0,0.0
1169.0525,336.41284,71276047,0.8125,0.12765957,1064.2373,-22.83774,0.030238625,0.0035024881,0.011124611,0.0,0.0,0.0
1179.4911,340.03918,71276063,0.8125,0.12765957,902.1927,197.72002,0.030238625,0.0035024881,0.011124611,0.0,0.0,0.0
1190.7195,342.7787,71276080,0.8,0.12765957,586.45355,413.903,0.030238625,0.0035024881,0.011124611,0.0,0.0,0.0
1200.6459,344.62866,71276097,0.825,0.12765957,508.53278,314.63986,0.030238625,0.0035024881,0.011124611,0.0,0.0,0.0
1209.4664,346.47754,71276113,0.8125,0.12765957,569.8675,132.35152,0.030238625,0.0035024881,0.011124611,0.0,0.0,0.0
1213.3545,347.28113,71276130,0.8125,0.12765957,380.35388,55.622704,0.030238625,0.0035024881,0.011124611,0.0,0.0,0.0
1213.8326,347.28113,71276141,0.8125,0.12765957,172.07983,4.132847,0.030238625,0.0035024881,0.011124611,0.0,0.0,0.0
1212.6827,351.54663,71276164,0.77500004,0.12765957,-182.14546,80.526825,0.030238625,0.0035024881,0.011124611,0.0,0.0,0.0
1208.5537,358.51978,71276180,0.77500004,0.10638297,-369.09674,263.94193,0.030238625,0.0035024881,0.011124611,0.0,0.0,0.0
1199.6238,370.76807,71276197,0.8,0.11702127,-556.1195,639.88403,0.030238625,0.0035024881,0.011124611,0.0,0.0,0.0
1186.0399,388.85266,71276214,0.8,0.12765957,-841.2118,1101.9601,0.030238625,0.0035024881,0.011124611,0.0,0.0,0.0
1169.4863,409.10913,71276230,0.8125,0.10638297,-1149.5693,1431.3351,0.030238625,0.0035024881,0.011124611,0.0,0.0,0.0
1155.6982,428.43616,71276247,0.8125,0.10638297,-1212.0236,1527.0306,0.030238625,0.0035024881,0.011124611,0.0,0.0,0.0
1144.3804,445.62207,71276264,0.8,0.12765957,-965.0157,1317.5531,0.030238625,0.0035024881,0.011124611,0.0,0.0,0.0
1129.2034,472.4906,71276281,0.8,0.11702127,-808.71844,1358.9803,0.030238625,0.0035024881,0.011124611,0.0,0.0,0.0
1121.1656,485.81274,71276297,0.8125,0.10638297,-634.99854,1269.7703,0.030238625,0.0035024881,0.011124611,0.0,0.0,0.0
1113.4182,495.9115,71276314,0.8125,0.12765957,-453.39148,827.5673,0.030238625,0.0035024881,0.011124611,0.0,0.0,0.0
1107.1866,503.27954,71276331,0.8125,0.12765957,-308.82483,379.6458,0.030238625,0.0035024881,0.011124611,0.0,0.0,0.0
1103.2754,507.6183,71276347,0.8125,0.12765957,-148.33511,1.8073628,0.030238625,0.0035024881,0.011124611,0.0,0.0,0.0
1101.2695,509.29968,71276364,0.8125,0.12765957,-53.60714,-118.03545,0.030238625,0.0035024881,0.011124611,0.0,0.0,0.0
1100.3829,509.8772,71276381,0.8,0.12765957,8.973684,-98.91662,0.030238625,0.0035024881,0.011124611,0.0,0.0,0.0
1100.8488,509.46985,71276397,0.8,0.10638297,100.71765,-146.23251,0.030238625,0.0035024881,0.011124611,0.0,0.0,0.0
1103.4652,507.62158,71276414,0.8,0.10638297,170.52458,-184.19344,0.030238625,0.0035024881,0.011124611,0.0,0.0,0.0
1112.0372,504.88196,71276431,0.8,0.12765957,388.0325,-217.51828,0.030238625,0.0035024881,0.011124611,0.0,0.0,0.0
1123.4497,502.41785,71276448,0.8,0.11702127,736.6526,-231.92738,0.030238625,0.0035024881,0.011124611,0.0,0.0,0.0
1138.6604,500.10364,71276464,0.8,0.11702127,1046.1536,-217.58754,0.030238625,0.0035024881,0.011124611,0.0,0.0,0.0
1156.8737,500.10364,71276481,0.7875,0.09574468,1249.4998,-84.16155,0.030238625,0.0035024881,0.011124611,0.0,0.0,0.0
1173.716,500.94397,71276498,0.77500004,0.10638297,1300.7313,27.870405,0.030238625,0.0035024881,0.011124611,0.0,0.0,0.0
1191.1166,500.9922,71276514,0.71250004,0.10638297,1195.5063,99.56708,-0.0158091,0.010802001,-0.0230999,0.0,0.0,0.0
1214.4731,500.9922,71276531,0.6,0.09574468,1271.5039,85.478584,-0.0158091,0.010802001,-0.0230999,0.0,0.0,0.0
1227.9619,500.9922,71276548,0.3125,0.12765957,1121.2196,22.30086,-0.0158091,0.010802001,-0.0230999,0.0,0.0,0.0
1227.9619,500.9922,71276555,0.3125,0.12765957,1121.2196,22.30086,-0.0158091,0.010802001,-0.0230999,0.0,0.0,0.0
1107.1174,430.8004,71276707,0.8625,0.10638297,0.0,0.0,-0.0158091,0.010802001,-0.0230999,0.0,0.0,0.0
1107.1174,430.8004,71276732,0.83750004,0.12765957,0.045605473,0.016852276,-0.0158091,0.010802001,-0.0230999,0.0,0.0,0.0
1107.1174,430.8004,71276749,0.8625,0.12765957,0.008778988,0.004008535,-0.0158091,0.010802001,-0.0230999,0.0,0.0,0.0
1161.2745,410.19116,71276765,0.8125,0.12765957,2881.9695,-1115.9951,-0.0158091,0.010802001,-0.0230999,0.0,0.0,0.0
1214.8796,402.08264,71276782,0.7875,0.10638297,4074.4187,-1070.1816,-0.0158091,0.010802001,-0.0230999,0.0,0.0,0.0
1261.0674,395.26025,71276796,0.4,0.10638297,4499.993,-957.59924,-0.0158091,0.010802001,-0.0230999,0.0,0.0,0.0
1261.0674,395.26025,71276803,0.4,0.10638297,4499.993,-957.59924,-0.0158091,0.010802001,-0.0230999,0.0,0.0,0.0
