x,y,timestamp,pressure,fingerarea,velocityx,velocityy,accelx,accely,accelz,gyrox,gyroy,gyroz
203.41165,253.98828,13143396,0.625,0.09574468,0.0,0.0,-0.013090037,-0.049107805,-0.019639969,0.0,0.0,0.0
203.41165,253.98828,13143420,0.675,0.09574468,-9.464469E-4,-0.0030714353,-0.013090037,-0.049107805,-0.019639969,0.0,0.0,0.0
203.41165,253.98828,13143437,0.71250004,0.08510638,0.0036131341,0.002869146,-0.013090037,-0.049107805,-0.019639969,0.0,0.0,0.0
203.41165,253.98828,13143448,0.725,0.09574468,-0.005333981,-0.007062618,-0.013090037,-0.049107805,-0.019639969,0.0,0.0,0.0
203.41165,253.98828,13143470,0.77500004,0.09574468,-0.0073630996,-0.007632486,-0.010472037,-0.03928624,-0.06371212,0.0,0.0,0.0
203.41165,253.98828,13143504,0.7875,0.08510638,0.0012493324,0.0017771177,-0.010472037,-0.03928624,-0.06371212,0.0,0.0,0.0
203.41165,253.98828,13143520,0.8125,0.08510638,-0.0053174626,-0.0069621056,-0.010472037,-0.03928624,-0.06371212,0.0,0.0,0.0
203.41165,253.98828,13143537,0.825,0.10638297,0.0019020933,0.002901854,-0.010472037,-0.03928624,-0.06371212,0.0,0.0,0.0
203.41165,253.98828,13143554,0.83750004,0.12765957,0.0053737434,0.0063186022,-0.010472037,-0.03928624,-0.06371212,0.0,0.0,0.0
203.41165,253.98828,13143571,0.825,0.12765957,0.0043694414,0.0049519576,-0.010472037,-0.03928624,-0.06371212,0.0,0.0,0.0
203.41165,253.98828,13143584,0.85,0.10638297,-6.084464E-4,1.8015379E-4,-0.010472037,-0.03928624,-0.06371212,0.0,0.0,0.0
203.41165,253.98828,13143604,0.85,0.09574468,0.009174207,0.011440223,-0.010472037,-0.03928624,-0.06371212,0.0,0.0,0.0
188.00623,236.99109,13143621,0.8625,0.08510638,-426.6205,-470.69916,-0.010472037,-0.03928624,-0.06371212,0.0,0.0,0.0
181.75269,225.9524,13143637,0.83750004,0.08510638,-705.16864,-880.8891,-0.010472037,-0.03928624,-0.06371212,0.0,0.0,0.0
180.26569,216.19592,13143654,0.83750004,0.08510638,-588.49133,-1019.1614,-0.010472037,-0.03928624,-0.06371212,0.0,0.0,0.0
181.62747,208.96802,13143671,0.875,0.09574468,-167.18408,-800.8964,-0.010472037,-0.03928624,-0.06371212,0.0,0.0,0.0
184.35298,201.79712,13143688,0.8625,0.12765957,396.50418,-345.9735,-0.010472037,-0.03928624,-0.06371212,0.0,0.0,0.0
186.68999,196.63916,13143704,0.8625,0.12765957,341.07816,-281.05682,-0.010472037,-0.03928624,-0.06371212,0.0,0.0,0.0
190.9226,190.5393,13143721,0.8625,0.12765957,322.61743,-240.17839,-0.010472037,-0.03928624,-0.06371212,0.0,0.0,0.0
195.68579,184.76721,13143738,0.8625,0.11702127,322.30872,-290.66394,-0.010472037,-0.03928624,-0.06371212,0.0,0.0,0.0
200.39767,179.81152,13143754,0.875,0.11702127,344.6204,-292.44183,-0.010472037,-0.03928624,-0.06371212,0.0,0.0,0.0
204.53098,175.24939,13143771,0.8625,0.09574468,327.52625,-280.3544,-0.010472037,-0.03928624,-0.06371212,0.0,0.0,0.0
208.69443,172.34167,13143788,0.875,0.10638297,272.49237,-215.80978,-0.010472037,-0.03928624,-0.06371212,0.0,0.0,0.0
213.35965,171.35754,13143805,0.875,0.10638297,241.66917,-84.182304,-0.010472037,-0.03928624,-0.06371212,0.0,0.0,0.0
218.0282,173.18848,13143821,0.875,0.10638297,271.31784,87.67187,-0.010472037,-0.03928624,-0.06371212,0.0,0.0,0.0
223.26556,176.94458,13143838,0.875,0.10638297,303.57852,267.8456,-0.010472037,-0.03928624,-0.06371212,0.0,0.0,0.0
231.18356,182.61426,13143855,0.875,0.12765957,403.76837,420.44058,-0.010472037,-0.03928624,-0.06371212,0.0,0.0,0.0
239.71054,190.29211,13143871,0.875,0.10638297,510.9226,534.03534,-0.010472037,-0.03928624,-0.06371212,0.0,0.0,0.0
246.6973,197.55542,13143888,0.875,0.09574468,544.2488,576.6304,-0.010472037,-0.03928624,-0.06371212,0.0,0.0,0.0
254.47748,206.2406,13143905,0.85,0.09574468,519.5402,581.33295,-0.010472037,-0.03928624,-0.06371212,0.0,0.0,0.0
262.29703,214.60254,13143922,0.8625,0.10638297,461.2444,571.60944,-0.010472037,-0.03928624,-0.06371212,0.0,0.0,0.0
273.40924,223.19897,13143938,0.85,0.09574468,545.54865,555.9719,-0.010472037,-0.03928624,-0.06371212,0.0,0.0,0.0
285.7241,228.57361,13143955,0.8625,0.10638297,726.4913,461.59674,-0.010472037,-0.03928624,-0.06371212,0.0,0.0,0.0
297.10556,231.5697,13143972,0.875,0.12765957,811.4424,250.22383,-0.010472037,-0.03928624,-0.06371212,0.0,0.0,0.0
307.30362,233.42517,13143988,0.85,0.12765957,776.7897,46.37552,-0.010472037,-0.03928624,-0.06371212,0.0,0.0,0.0
317.94568,234.44116,13144005,0.8625,0.12765957,647.41943,-62.19286,0.007622376,0.06457099,0.013030052,0.0,0.0,0.0
331.42984,234.44116,13144022,0.8625,0.12765957,672.6056,-86.30957,0.007622376,0.06457099,0.013030052,0.0,0.0,0.0
347.62152,233.46313,13144038,0.83750004,0.10638297,869.163,-94.701965,0.007622376,0.06457099,0.013030052,0.0,0.0,0.0
358.35828,231.61475,13144055,0.85,0.11702127,892.2749,-143.51416,0.007622376,0.06457099,0.013030052,0.0,0.0,0.0
367.55957,227.74731,13144072,0.83750004,0.10638297,735.57135,-230.13753,0.007622376,0.06457099,0.013030052,0.0,0.0,0.0
377.30002,223.97644,13144089,0.8625,0.08510638,519.73895,-288.38666,0.007622376,0.06457099,0.013030052,0.0,0.0,0.0
388.66965,218.25964,13144105,0.85,0.08510638,487.35583,-361.1591,0.007622376,0.06457099,0.013030052,0.0,0.0,0.0
397.2888,212.71265,13144122,0.83750004,0.08510638,582.2055,-396.70004,0.007622376,0.06457099,0.013030052,0.0,0.0,0.0
405.30646,207.18152,13144139,0.85,0.10638297,544.1166,-396.62347,0.007622376,0.06457099,0.013030052,0.0,0.0,0.0
410.3093,201.62878,13144155,0.83750004,0.11702127,372.79358,-374.9067,0.007622376,0.06457099,0.013030052,0.0,0.0,0.0
413.40002,197.64917,13144172,0.83750004,0.12765957,137.79916,-297.97656,0.007622376,0.06457099,0.013030052,0.0,0.0,0.0
415.2423,193.92676,13144189,0.85,0.12765957,16.759655,-220.94658,0.007622376,0.06457099,0.013030052,0.0,0.0,0.0
416.2692,190.276,13144206,0.83750004,0.12765957,-54.579147,-175.4807,0.007622376,0.06457099,0.013030052,0.0,0.0,0.0
416.84216,186.5343,13144222,0.83750004,0.12765957,-65.09068,-169.4901,0.007622376,0.06457099,0.013030052,0.0,0.0,0.0
416.32492,182.84619,13144239,0.8625,0.10638297,-59.345963,-201.20992,0.007622376,0.06457099,0.013030052,0.0,0.0,0.0
415.28235,181.0238,13144256,0.85,0.10638297,-94.95848,-170.23146,0.007622376,0.06457099,0.013030052,0.0,0.0,0.0
413.143,179.17603,13144272,0.83750004,0.10638297,-140.81195,-105.43962,0.007622376,0.06457099,0.013030052,0.0,0.0,0.0
408.10785,177.31506,13144289,0.8625,0.10638297,-253.35883,-64.98743,0.007622376,0.06457099,0.013030052,0.0,0.0,0.0
402.87845,175.45593,13144306,0.85,0.09574468,-360.73465,-62.333363,0.007622376,0.06457099,0.013030052,0.0,0.0,0.0
396.30963,175.80005,13144323,0.8625,0.10638297,-454.68622,-31.50669,0.007622376,0.06457099,0.013030052,0.0,0.0,0.0
390.09894,176.245,13144339,0.85,0.10638297,-478.8538,28.152464,0.007622376,0.06457099,0.013030052,0.0,0.0,0.0
385.07053,178.0326,13144356,0.85,0.12765957,-400.76953,119.42384,0.007622376,0.06457099,0.013030052,0.0,0.0,0.0
381.36996,179.93677,13144373,0.85,0.12765957,-285.93192,174.84499,0.007622376,0.06457099,0.013030052,0.0,0.0,0.0
377.74985,183.32861,13144389,0.8625,0.12765957,-177.99411,209.91737,0.007622376,0.06457099,0.013030052,0.0,0.0,0.0
373.24106,191.1095,13144406,0.8625,0.11702127,-164.4564,363.69482,0.007622376,0.06457099,0.013030052,0.0,0.0,0.0
369.12,200.09546,13144423,0.875,0.11702127,-207.08025,556.4885,0.007622376,0.06457099,0.013030052,0.0,0.0,0.0
365.89862,210.33362,13144440,0.875,0.11702127,-230.70827,735.0777,0.007622376,0.06457099,0.013030052,0.0,0.0,0.0
363.80444,220.46936,13144456,0.875,0.10638297,-173.58713,771.2297,0.007622376,0.06457099,0.013030052,0.0,0.0,0.0
362.76462,228.8982,13144473,0.8625,0.12765957,-68.248886,650.0505,0.007622376,0.06457099,0.013030052,0.0,0.0,0.0
361.2497,239.17432,13144490,0.875,0.12765957,-20.051586,582.45734,0.007622376,0.06457099,0.013030052,0.0,0.0,0.0
359.36237,251.6128,13144506,0.875,0.10638297,-29.17505,637.02155,0.007622376,0.06457099,0.013030052,0.0,0.0,0.0
357.9898,266.0725,13144523,0.875,0.10638297,-68.237366,812.76654,0.007622376,0.06457099,0.013030052,0.0,0.0,0.0
356.63565,277.72327,13144540,0.875,0.10638297,-104.72263,918.14557,0.030097902,0.0036568046,0.09042454,0.0,0.0,0.0
355.59732,288.7975,13144556,0.875,0.12765957,-79.20094,778.99994,0.030097902,0.0036568046,0.09042454,0.0,0.0,0.0
354.05823,300.96338,13144573,0.8875,0.10638297,-72.64359,662.2683,0.030097902,0.0036568046,0.09042454,0.0,0.0,0.0
352.67615,315.735,13144590,0.875,0.08510638,-62.85241,713.6259,0.030097902,0.0036568046,0.09042454,0.0,0.0,0.0
350.98398,330.46545,13144607,0.875,0.10638297,-91.894295,885.71387,0.030097902,0.0036568046,0.09042454,0.0,0.0,0.0
349.5298,342.69666,13144623,0.8875,0.12765957,-102.68846,916.67664,0.030097902,0.0036568046,0.09042454,0.0,0.0,0.0
347.4819,357.89465,13144640,0.8625,0.10638297,-106.27089,841.73883,0.030097902,0.0036568046,0.09042454,0.0,0.0,0.0
345.86017,374.85193,13144657,0.8625,0.10638297,-108.49801,932.7923,0.030097902,0.0036568046,0.09042454,0.0,0.0,0.0
344.8656,388.53955,13144673,0.875,0.12765957,-95.69815,967.94183,0.030097902,0.0036568046,0.09042454,0.0,0.0,0.0
344.36575,400.67883,13144690,0.8625,0.12765957,-55.788063,870.67267,0.030097902,0.0036568046,0.09042454,0.0,0.0,0.0
342.75433,411.9563,13144707,0.8625,0.10638297,-38.89636,692.6368,0.030097902,0.0036568046,0.09042454,0.0,0.0,0.0
341.7131,425.3291,13144724,0.875,0.08510638,-46.838524,617.80695,0.030097902,0.0036568046,0.09042454,0.0,0.0,0.0
339.27756,436.4508,13144740,0.875,0.10638297,-93.43487,650.37415,0.030097902,0.0036568046,0.09042454,0.0,0.0,0.0
336.1873,444.85327,13144757,0.8625,0.12765957,-187.3075,622.5306,0.030097902,0.0036568046,0.09042454,0.0,0.0,0.0
332.62537,451.22913,13144774,0.875,0.12765957,-238.71677,411.1222,0.030097902,0.0036568046,0.09042454,0.0,0.0,0.0
327.9752,457.6283,13144790,0.85,0.10638297,-298.3391,250.35779,0.030097902,0.0036568046,0.09042454,0.0,0.0,0.0
324.49768,461.953,13144807,0.8625,0.11702127,-289.85956,181.49979,0.030097902,0.0036568046,0.09042454,0.0,0.0,0.0
319.86136,466.7959,13144824,0.875,0.11702127,-274.09424,188.03287,0.030097902,0.0036568046,0.09042454,0.0,0.0,0.0
314.34268,472.14502,13144841,0.875,0.08510638,-299.28067,236.76039,0.030097902,0.0036568046,0.09042454,0.0,0.0,0.0
307.98474,477.4287,13144857,0.8875,0.08510638,-363.33746,286.2225,0.030097902,0.0036568046,0.09042454,0.0,0.0,0.0
300.8685,483.2323,13144874,0.8625,0.08510638,-451.24237,337.7636,0.030097902,0.0036568046,0.09042454,0.0,0.0,0.0
294.05164,486.94397,13144891,0.875,0.09574468,-472.71057,303.84875,0.030097902,0.0036568046,0.09042454,0.0,0.0,0.0
286.647,489.60547,13144907,0.83750004,0.08510638,-465.03195,208.30612,0.030097902,0.0036568046,0.09042454,0.0,0.0,0.0
280.6379,490.3302,13144924,0.875,0.08510638,-423.90765,65.63337,0.030097902,0.0036568046,0.09042454,0.0,0.0,0.0
275.08817,490.3302,13144941,0.875,0.09574468,-368.6529,-55.13481,0.030097902,0.0036568046,0.09042454,0.0,0.0,0.0
270.34436,490.3302,13144958,0.875,0.09574468,-302.2029,-105.969894,0.030097902,0.0036568046,0.09042454,0.0,0.0,0.0
266.65555,490.3302,13144974,0.875,0.09574468,-204.69127,-75.64822,0.030097902,0.0036568046,0.09042454,0.0,0.0,0.0
263.56076,490.3302,13144991,0.875,0.09574468,-145.08565,-25.482824,0.030097902,0.0036568046,0.09042454,0.0,0.0,0.0
261.27054,489.77734,13145008,0.875,0.09574468,-106.056305,-9.340785,0.030097902,0.0036568046,0.09042454,0.0,0.0,0.0
259.19086,487.92883,13145024,0.875,0.09574468,-80.601906,-69.47205,0.030097902,0.0036568046,0.09042454,0.0,0.0,0.0
257.49606,486.77612,13145041,0.875,0.09574468,-72.67909,-120.635315,0.030097902,0.0036568046,0.09042454,0.0,0.0,0.0
255.96204,485.11914,13145058,0.875,0.08510638,-63.102505,-129.06873,0.030097902,0.0036568046,0.09042454,0.0,0.0,0.0
254.9177,484.15112,13145074,0.8875,0.08510638,-53.59233,-98.58933,0.024078324,0.018925443,0.008339882,0.0,0.0,0.0
253.87436,483.18506,13145091,0.875,0.08510638,-45.667976,-55.943752,0.024078324,0.018925443,0.008339882,0.0,0.0,0.0
252.83408,482.22437,13145108,0.875,0.08510638,-41.586254,-46.027767,0.024078324,0.018925443,0.008339882,0.0,0.0,0.0
251.7879,481.44507,13145125,0.8625,0.08510638,-49.528465,-53.86641,0.024078324,0.018925443,0.008339882,0.0,0.0,0.0
250.76862,481.21838,13145141,0.875,0.08510638,-56.869724,-25.810564,0.024078324,0.018925443,0.008339882,0.0,0.0,0.0
249.89651,479.3678,13145158,0.875,0.08510638,-59.60626,-51.37725,0.024078324,0.018925443,0.008339882,0.0,0.0,0.0
249.68237,477.8911,13145175,0.8625,0.08510638,-33.022892,-86.787895,0.024078324,0.018925443,0.008339882,0.0,0.0,0.0
249.14514,476.55554,13145191,0.875,0.08510638,-11.78421,-103.46061,0.024078324,0.018925443,0.008339882,0.0,0.0,0.0
248.49857,475.40613,13145208,0.875,0.08510638,-13.217726,-108.16469,0.024078324,0.018925443,0.008339882,0.0,0.0,0.0
247.64722,475.2256,13145224,0.8625,0.10638297,-31.721432,-54.513218,0.024078324,0.018925443,0.008339882,0.0,0.0,0.0
247.89716,474.10767,13145242,0.8625,0.10638297,-26.9418,-24.690197,0.024078324,0.018925443,0.008339882,0.0,0.0,0.0
247.89716,474.33704,13145258,0.875,0.10638297,2.3094482,-1.6996657,0.024078324,0.018925443,0.008339882,0.0,0.0,0.0
247.89716,474.33704,13145275,0.875,0.10638297,18.277235,22.002428,0.024078324,0.018925443,0.008339882,0.0,0.0,0.0
247.89716,474.33704,13145308,0.8625,0.10638297,4.731249,14.610781,0.024078324,0.018925443,0.008339882,0.0,0.0,0.0
247.89716,474.33704,13145325,0.875,0.10638297,0.0064261537,-1.8358773,0.024078324,0.018925443,0.008339882,0.0,0.0,0.0
247.89716,474.33704,13145342,0.875,0.10638297,-0.005015489,-0.012237267,0.024078324,0.018925443,0.008339882,0.0,0.0,0.0
247.89716,474.33704,13145354,0.8875,0.10638297,0.021956833,0.040846072,0.024078324,0.018925443,0.008339882,0.0,0.0,0.0
247.89716,474.33704,13145425,0.875,0.10638297,0.015570797,0.033719596,0.024078324,0.018925443,0.008339882,0.0,0.0,0.0
247.89716,474.33704,13145442,0.8875,0.10638297,-0.03144608,-0.055363495,0.024078324,0.018925443,0.008339882,0.0,0.0,0.0
247.89716,474.33704,13145459,0.90000004,0.10638297,-0.008091633,-0.017240185,0.024078324,0.018925443,0.008339882,0.0,0.0,0.0
247.89716,474.33704,13145474,0.8875,0.10638297,0.018905334,0.03819418,0.024078324,0.018925443,0.008339882,0.0,0.0,0.0
247.89716,474.33704,13145509,0.8875,0.10638297,-0.001065063,-0.0021672146,0.024078324,0.018925443,0.008339882,0.0,0.0,0.0
247.89716,473.30066,13145542,0.8625,0.10638297,0.0056167655,-28.072134,0.024078324,0.018925443,0.008339882,0.0,0.0,0.0
246.74219,471.67163,13145576,0.8625,0.10638297,-41.9277,-76.09159,0.024078324,0.018925443,0.008339882,0.0,0.0,0.0
245.8978,471.3197,13145592,0.85,0.10638297,-61.41125,-58.07926,0.024078324,0.018925443,0.008339882,0.0,0.0,0.0
245.16193,469.47498,13145609,0.85,0.10638297,-57.558216,-71.49878,0.011262655,-0.016859643,0.0226717,0.0,0.0,0.0
244.12036,467.62354,13145626,0.85,0.10638297,-64.81267,-108.3572,0.011262655,-0.016859643,0.0226717,0.0,0.0,0.0
242.46085,465.7849,13145643,0.83750004,0.09574468,-78.19585,-144.28322,0.011262655,-0.016859643,0.0226717,0.0,0.0,0.0
239.3359,463.93335,13145659,0.8625,0.10638297,-146.05792,-141.81268,0.011262655,-0.016859643,0.0226717,0.0,0.0,0.0
236.65204,462.12122,13145676,0.85,0.10638297,-210.14516,-117.63414,0.011262655,-0.016859643,0.0226717,0.0,0.0,0.0
234.04855,460.2516,13145693,0.8625,0.10638297,-216.70114,-109.04637,0.011262655,-0.016859643,0.0226717,0.0,0.0,0.0
232.46704,458.4016,13145709,0.875,0.10638297,-159.16122,-109.53475,0.011262655,-0.016859643,0.0226717,0.0,0.0,0.0
231.39221,456.5487,13145726,0.8875,0.12765957,-73.17819,-112.573074,0.011262655,-0.016859643,0.0226717,0.0,0.0,0.0
230.34903,454.69434,13145743,0.8625,0.12765957,-31.799929,-112.98704,0.011262655,-0.016859643,0.0226717,0.0,0.0,0.0
229.31412,454.79004,13145760,0.8875,0.12765957,-26.056534,-57.934425,0.011262655,-0.016859643,0.0226717,0.0,0.0,0.0
228.2774,454.79004,13145776,0.8625,0.12765957,-38.609962,6.66567,0.011262655,-0.016859643,0.0226717,0.0,0.0,0.0
227.65375,454.79004,13145786,0.8625,0.12765957,-48.663128,34.803123,0.011262655,-0.016859643,0.0226717,0.0,0.0,0.0
227.90366,454.79004,13145810,0.8625,0.12765957,-10.870253,46.94925,0.011262655,-0.016859643,0.0226717,0.0,0.0,0.0
227.90366,454.79004,13145826,0.875,0.10638297,24.27648,9.398004,0.011262655,-0.016859643,0.0226717,0.0,0.0,0.0
227.90366,454.79004,13145843,0.85,0.10638297,31.615656,-0.007387373,0.011262655,-0.016859643,0.0226717,0.0,0.0,0.0
227.90366,454.79004,13145860,0.71250004,0.10638297,14.990694,0.016699297,0.011262655,-0.016859643,0.0226717,0.0,0.0,0.0
227.90366,454.79004,13145863,0.3375,0.10638297,13.411053,0.030614771,0.011262655,-0.016859643,0.0226717,0.0,0.0,0.0
227.90366,454.79004,13145871,0.3375,0.10638297,13.411053,0.030614771,0.011262655,-0.016859643,0.0226717,0.0,0.0,0.0
309.87698,389.04077,13146202,0.7625,0.08510638,0.0,0.0,0.009010121,-0.013487719,-0.01386261,0.0,0.0,0.0
309.87698,389.04077,13146228,0.8125,0.09574468,0.028258096,0.033889778,0.009010121,-0.013487719,-0.01386261,0.0,0.0,0.0
309.87698,389.04077,13146244,0.83750004,0.09574468,0.011453775,0.014732295,0.009010121,-0.013487719,-0.01386261,0.0,0.0,0.0
309.87698,389.04077,13146254,0.825,0.09574468,0.019208297,0.023574756,0.009010121,-0.013487719,-0.01386261,0.0,0.0,0.0
317.13214,387.79272,13146278,0.825,0.08510638,177.73163,-30.590649,0.009010121,-0.013487719,-0.01386261,0.0,0.0,0.0
340.68573,385.48682,13146294,0.825,0.08510638,915.19366,-117.90039,0.009010121,-0.013487719,-0.01386261,0.0,0.0,0.0
357.98563,384.59827,13146311,0.825,0.09574468,1504.145,-134.72818,0.009010121,-0.013487719,-0.01386261,0.0,0.0,0.0
376.04443,383.70972,13146328,0.825,0.08510638,1603.54,-95.77807,0.009010121,-0.013487719,-0.01386261,0.0,0.0,0.0
394.82883,382.1123,13146345,0.77500004,0.08510638,1415.5696,-64.946175,0.009010121,-0.013487719,-0.01386261,0.0,0.0,0.0
408.84476,378.37878,13146354,0.32500002,0.09574468,1341.9192,-111.240166,0.009010121,-0.013487719,-0.01386261,0.0,0.0,0.0
408.84476,378.37878,13146361,0.32500002,0.09574468,1341.9192,-111.240166,0.009010121,-0.013487719,-0.01386261,0.0,0.0,0.0
479.82166,389.92932,13147606,0.4625,0.09574468,0.0,0.0,-0.007033527,-0.01503215,0.019927979,0.0,0.0,0.0
479.82166,389.92932,13147631,0.58750004,0.09574468,0.0620867,0.050916463,-0.007033527,-0.01503215,0.019927979,0.0,0.0,0.0
479.82166,389.92932,13147648,0.6625,0.08510638,0.017620564,0.017758304,-0.007033527,-0.01503215,0.019927979,0.0,0.0,0.0
479.82166,389.92932,13147665,0.6875,0.08510638,-0.0037612633,-0.0034286063,-0.007033527,-0.01503215,0.019927979,0.0,0.0,0.0
479.82166,389.92932,13147681,0.7375,0.07446808,-9.829231E-4,5.0844774E-6,-0.007033527,-0.01503215,0.019927979,0.0,0.0,0.0
479.82166,389.92932,13147698,0.7625,0.08510638,-0.016164016,-0.013231016,-0.007033527,-0.01503215,0.019927979,0.0,0.0,0.0
479.82166,389.92932,13147715,0.75,0.08510638,-0.016342787,-0.014640098,-0.007033527,-0.01503215,0.019927979,0.0,0.0,0.0
479.82166,389.92932,13147731,0.77500004,0.08510638,6.797984E-4,8.0541905E-4,-0.007033527,-0.01503215,0.019927979,0.0,0.0,0.0
479.82166,389.92932,13147746,0.77500004,0.08510638,0.022831393,0.019276528,0.010373175,0.003974274,-5.722046E-5,0.0,0.0,0.0
479.82166,389.92932,13147782,0.77500004,0.09574468,-0.01657642,-0.013407194,0.010373175,0.003974274,-5.722046E-5,0.0,0.0,0.0
479.82166,389.92932,13147794,0.7875,0.10638297,-0.0052209035,-0.004400105,0.010373175,0.003974274,-5.722046E-5,0.0,0.0,0.0
469.32507,401.47986,13147814,0.7875,0.08510638,-301.42792,331.75378,0.010373175,0.003974274,-5.722046E-5,0.0,0.0,0.0
459.58148,417.18884,13147832,0.7875,0.08510638,-648.1005,844.0608,0.010373175,0.003974274,-5.722046E-5,0.0,0.0,0.0
457.6703,430.10693,13147848,0.77500004,0.08510638,-416.61127,1107.957,0.010373175,0.003974274,-5.722046E-5,0.0,0.0,0.0
459.7055,437.54504,13147865,0.7875,0.08510638,-85.73208,917.4014,0.010373175,0.003974274,-5.722046E-5,0.0,0.0,0.0
462.7517,445.77075,13147882,0.77500004,0.12765957,279.99057,627.4408,0.010373175,0.003974274,-5.722046E-5,0.0,0.0,0.0
465.83997,449.92163,13147899,0.77500004,0.12765957,428.65707,176.58502,0.010373175,0.003974274,-5.722046E-5,0.0,0.0,0.0
469.99335,454.9397,13147915,0.77500004,0.11702127,378.61206,108.56411,0.010373175,0.003974274,-5.722046E-5,0.0,0.0,0.0
474.46136,458.61987,13147932,0.7875,0.11702127,308.2224,120.414665,0.010373175,0.003974274,-5.722046E-5,0.0,0.0,0.0
480.53137,461.66406,13147949,0.77500004,0.10638297,346.8786,130.29971,0.010373175,0.003974274,-5.722046E-5,0.0,0.0,0.0
487.6167,463.51904,13147965,0.77500004,0.10638297,422.19275,94.31571,0.010373175,0.003974274,-5.722046E-5,0.0,0.0,0.0
495.37512,462.88452,13147982,0.7875,0.09574468,496.82614,0.82122976,0.010373175,0.003974274,-5.722046E-5,0.0,0.0,0.0
503.6848,460.17847,13147999,0.77500004,0.10638297,547.7757,-149.19406,0.010373175,0.003974274,-5.722046E-5,0.0,0.0,0.0
511.53534,455.5078,13148016,0.77500004,0.10638297,547.4807,-321.3643,0.010373175,0.003974274,-5.722046E-5,0.0,0.0,0.0
518.25275,449.95337,13148032,0.7625,0.08510638,486.97974,-440.10233,0.010373175,0.003974274,-5.722046E-5,0.0,0.0,0.0
524.3856,440.43457,13148049,0.7875,0.09574468,400.888,-578.56,0.010373175,0.003974274,-5.722046E-5,0.0,0.0,0.0
530.205,428.8817,13148066,0.7625,0.11702127,322.19733,-721.0763,0.010373175,0.003974274,-5.722046E-5,0.0,0.0,0.0
537.38196,416.79468,13148082,0.7625,0.12765957,315.95892,-836.5071,0.010373175,0.003974274,-5.722046E-5,0.0,0.0,0.0
542.09735,405.04272,13148099,0.7625,0.10638297,347.57,-894.8186,0.010373175,0.003974274,-5.722046E-5,0.0,0.0,0.0
546.85046,393.79272,13148116,0.7875,0.08510638,302.29523,-767.2802,0.010373175,0.003974274,-5.722046E-5,0.0,0.0,0.0
551.13007,382.92407,13148133,0.77500004,0.08510638,241.36932,-662.45404,0.010373175,0.003974274,-5.722046E-5,0.0,0.0,0.0
554.79095,372.77026,13148149,0.7875,0.08510638,184.76529,-592.14484,0.010373175,0.003974274,-5.722046E-5,0.0,0.0,0.0
557.51794,365.15222,13148166,0.7875,0.09574468,148.21173,-492.8901,0.010373175,0.003974274,-5.722046E-5,0.0,0.0,0.0
558.2961,359.3661,13148183,0.8,0.10638297,93.48305,-391.11057,0.010373175,0.003974274,-5.722046E-5,0.0,0.0,0.0
558.2961,354.52405,13148199,0.7875,0.10638297,-29.296833,-221.25153,0.010373175,0.003974274,-5.722046E-5,0.0,0.0,0.0
557.79535,350.8318,13148216,0.8,0.12765957,-91.618454,-150.84721,0.010373175,0.003974274,-5.722046E-5,0.0,0.0,0.0
556.7585,348.99036,13148233,0.8,0.10638297,-119.27827,-80.905334,0.010373175,0.003974274,-5.722046E-5,0.0,0.0,0.0
555.7148,348.16968,13148250,0.7875,0.12765957,-115.665794,-10.487668,0.010373175,0.003974274,-5.722046E-5,0.0,0.0,0.0
555.6792,348.16968,13148266,0.7875,0.12765957,-66.1383,59.73505,0.010373175,0.003974274,-5.722046E-5,0.0,0.0,0.0
554.6468,348.16968,13148283,0.7875,0.12765957,-47.43642,85.723,0.008298546,0.03517942,-4.5776367E-5,0.0,0.0,0.0
554.1088,348.50488,13148300,0.7875,0.12765957,-30.846615,77.11601,0.008298546,0.03517942,-4.5776367E-5,0.0,0.0,0.0
553.57,351.64404,13148316,0.8125,0.10638297,-33.52169,122.53006,0.008298546,0.03517942,-4.5776367E-5,0.0,0.0,0.0
552.5238,355.8507,13148333,0.8,0.10638297,-52.55597,239.32509,0.008298546,0.03517942,-4.5776367E-5,0.0,0.0,0.0
552.29803,361.93103,13148350,0.7875,0.08510638,-38.82891,393.07437,0.008298546,0.03517942,-4.5776367E-5,0.0,0.0,0.0
552.7979,369.88123,13148366,0.8,0.08510638,1.4584879,522.0611,0.008298546,0.03517942,-4.5776367E-5,0.0,0.0,0.0
553.1732,379.04907,13148383,0.8125,0.08510638,43.512405,606.3815,0.008298546,0.03517942,-4.5776367E-5,0.0,0.0,0.0
553.7125,386.65906,13148400,0.8,0.10638297,59.244522,615.24634,0.008298546,0.03517942,-4.5776367E-5,0.0,0.0,0.0
554.7702,394.1797,13148417,0.8125,0.12765957,70.73252,555.2401,0.008298546,0.03517942,-4.5776367E-5,0.0,0.0,0.0
556.3222,401.5703,13148433,0.7875,0.09574468,85.56398,456.97266,0.008298546,0.03517942,-4.5776367E-5,0.0,0.0,0.0
557.3469,408.94678,13148450,0.8,0.08510638,96.68773,409.27048,0.008298546,0.03517942,-4.5776367E-5,0.0,0.0,0.0
560.05865,419.2965,13148467,0.7875,0.08510638,131.8854,498.93884,0.008298546,0.03517942,-4.5776367E-5,0.0,0.0,0.0
562.68024,429.27673,13148483,0.77500004,0.08510638,169.33864,616.5273,0.008298546,0.03517942,-4.5776367E-5,0.0,0.0,0.0
565.7704,438.43176,13148500,0.8,0.10638297,205.97154,654.67645,0.008298546,0.03517942,-4.5776367E-5,0.0,0.0,0.0
568.1998,444.32434,13148517,0.8,0.12765957,208.6727,540.58057,0.008298546,0.03517942,-4.5776367E-5,0.0,0.0,0.0
570.2862,448.12097,13148534,0.7875,0.12765957,152.46793,264.55804,0.008298546,0.03517942,-4.5776367E-5,0.0,0.0,0.0
572.36816,450.48364,13148550,0.7875,0.12765957,112.49063,55.561928,0.008298546,0.03517942,-4.5776367E-5,0.0,0.0,0.0
574.4379,453.2743,13148567,0.7875,0.12765957,97.21148,-8.408344,0.008298546,0.03517942,-4.5776367E-5,0.0,0.0,0.0
577.83,456.29468,13148584,0.7875,0.12765957,143.86261,59.07041,0.008298546,0.03517942,-4.5776367E-5,0.0,0.0,0.0
580.5076,458.17737,13148600,0.7875,0.11702127,187.26959,112.57269,0.008298546,0.03517942,-4.5776367E-5,0.0,0.0,0.0
583.11633,460.0194,13148617,0.77500004,0.11702127,188.63034,118.913895,0.008298546,0.03517942,-4.5776367E-5,0.0,0.0,0.0
586.7307,460.1211,13148634,0.77500004,0.12765957,195.48845,43.422466,0.008298546,0.03517942,-4.5776367E-5,0.0,0.0,0.0
590.7883,460.1211,13148651,0.77500004,0.12765957,228.595,-29.745886,0.008298546,0.03517942,-4.5776367E-5,0.0,0.0,0.0
594.5339,459.1217,13148667,0.77500004,0.12765957,251.43224,-76.53351,0.008298546,0.03517942,-4.5776367E-5,0.0,0.0,0.0
599.6776,457.28015,13148684,0.77500004,0.12765957,304.54956,-133.26588,0.008298546,0.03517942,-4.5776367E-5,0.0,0.0,0.0
605.1058,454.3014,13148701,0.77500004,0.09574468,328.76245,-187.78386,0.008298546,0.03517942,-4.5776367E-5,0.0,0.0,0.0
611.7558,450.36096,13148717,0.7625,0.09574468,375.21634,-249.50877,0.008298546,0.03517942,-4.5776367E-5,0.0,0.0,0.0
618.583,445.2456,13148734,0.77500004,0.08510638,447.30338,-321.84988,0.008298546,0.03517942,-4.5776367E-5,0.0,0.0,0.0
625.3341,437.3756,13148751,0.75,0.08510638,469.82007,-450.81183,0.008298546,0.03517942,-4.5776367E-5,0.0,0.0,0.0
632.0772,427.2389,13148768,0.75,0.09574468,464.65384,-631.2106,0.008298546,0.03517942,-4.5776367E-5,0.0,0.0,0.0
638.1451,417.40942,13148784,0.75,0.12765957,393.99362,-724.7984,0.008298546,0.03517942,-4.5776367E-5,0.0,0.0,0.0
644.916,407.21997,13148801,0.75,0.10638297,362.8629,-728.8681,0.008298546,0.03517942,-4.5776367E-5,0.0,0.0,0.0
652.1336,395.49475,13148818,0.7625,0.08510638,390.4482,-696.8534,-0.009361163,0.012143537,0.0159626,0.0,0.0,0.0
660.3929,381.61963,13148834,0.7625,0.08510638,458.93875,-783.9173,-0.009361163,0.012143537,0.0159626,0.0,0.0,0.0
667.2919,369.43823,13148851,0.7625,0.09574468,488.7512,-844.54974,-0.009361163,0.012143537,0.0159626,0.0,0.0,0.0
675.02997,355.68298,13148868,0.7625,0.10638297,476.167,-862.9314,-0.009361163,0.012143537,0.0159626,0.0,0.0,0.0
685.35236,331.47217,13148884,0.75,0.08510638,545.9511,-1156.43,-0.009361163,0.012143537,0.0159626,0.0,0.0,0.0
692.4513,310.5598,13148901,0.75,0.12765957,538.65173,-1414.9283,-0.009361163,0.012143537,0.0159626,0.0,0.0,0.0
696.72,292.15137,13148918,0.75,0.09574468,405.3373,-1439.0964,-0.009361163,0.012143537,0.0159626,0.0,0.0,0.0
700.3241,268.56543,13148935,0.77500004,0.09574468,226.59355,-1433.057,-0.009361163,0.012143537,0.0159626,0.0,0.0,0.0
704.2124,252.05676,13148951,0.7625,0.12765957,98.33859,-1199.8994,-0.009361163,0.012143537,0.0159626,0.0,0.0,0.0
706.5587,238.18713,13148968,0.77500004,0.10638297,87.75153,-952.7704,-0.009361163,0.012143537,0.0159626,0.0,0.0,0.0
708.3675,224.15027,13148985,0.77500004,0.09574468,86.03826,-745.88116,-0.009361163,0.012143537,0.0159626,0.0,0.0,0.0
709.24695,211.17334,13149001,0.77500004,0.08510638,41.59673,-607.085,-0.009361163,0.012143537,0.0159626,0.0,0.0,0.0
709.24695,201.71045,13149018,0.77500004,0.12765957,-24.220291,-566.0406,-0.009361163,0.012143537,0.0159626,0.0,0.0,0.0
707.45685,192.72302,13149035,0.77500004,0.12765957,-90.60553,-473.22327,-0.009361163,0.012143537,0.0159626,0.0,0.0,0.0
705.3797,186.81238,13149052,0.7625,0.11702127,-178.5125,-348.83313,-0.009361163,0.012143537,0.0159626,0.0,0.0,0.0
703.7396,183.78027,13149068,0.77500004,0.11702127,-184.33485,-147.76588,-0.009361163,0.012143537,0.0159626,0.0,0.0,0.0
701.10455,180.9591,13149085,0.7875,0.11702127,-179.36285,-52.827843,-0.009361163,0.012143537,0.0159626,0.0,0.0,0.0
696.9316,179.21216,13149102,0.7875,0.10638297,-219.3985,9.4781,-0.009361163,0.012143537,0.0159626,0.0,0.0,0.0
692.7972,179.354,13149118,0.825,0.12765957,-269.18677,57.73071,-0.009361163,0.012143537,0.0159626,0.0,0.0,0.0
688.0039,180.68677,13149135,0.8,0.12765957,-303.44733,89.39813,-0.009361163,0.012143537,0.0159626,0.0,0.0,0.0
684.1714,184.48804,13149152,0.8,0.12765957,-302.31528,213.1699,-0.009361163,0.012143537,0.0159626,0.0,0.0,0.0
678.8237,194.33972,13149169,0.8125,0.09574468,-300.7794,495.49228,-0.009361163,0.012143537,0.0159626,0.0,0.0,0.0
673.6531,205.89282,13149185,0.7875,0.08510638,-349.3374,793.715,-0.009361163,0.012143537,0.0159626,0.0,0.0,0.0
669.79736,217.42639,13149202,0.8,0.09574468,-321.09833,960.3572,-0.009361163,0.012143537,0.0159626,0.0,0.0,0.0
666.67267,226.3573,13149219,0.8,0.10638297,-214.2621,842.46564,-0.009361163,0.012143537,0.0159626,0.0,0.0,0.0
662.1548,236.9491,13149235,0.8,0.12765957,-167.42078,617.31195,-0.009361163,0.012143537,0.0159626,0.0,0.0,0.0
658.4408,248.81067,13149252,0.7875,0.10638297,-190.92744,582.3825,-0.009361163,0.012143537,0.0159626,0.0,0.0,0.0
655.3416,263.39648,13149269,0.8125,0.08510638,-213.19583,747.7832,-0.009361163,0.012143537,0.0159626,0.0,0.0,0.0
652.7365,274.57788,13149286,0.7875,0.10638297,-177.35324,838.83496,-0.009361163,0.012143537,0.0159626,0.0,0.0,0.0
651.1568,283.69653,13149302,0.7875,0.12765957,-100.31033,733.7674,-0.009361163,0.012143537,0.0159626,0.0,0.0,0.0
649.074,293.938,13149319,0.77500004,0.11702127,-67.13165,571.6019,-0.009361163,0.012143537,0.0159626,0.0,0.0,0.0
647.0078,306.24634,13149336,0.7875,0.09574468,-83.05169,552.5165,-0.009361163,0.012143537,0.0159626,0.0,0.0,0.0
645.4058,320.53333,13149352,0.7625,0.09574468,-88.35499,701.6309,-0.03948894,-0.02228517,-0.019229889,0.0,0.0,0.0
644.2681,332.5514,13149369,0.77500004,0.11702127,-89.88577,847.02594,-0.03948894,-0.02228517,-0.019229889,0.0,0.0,0.0
644.2681,343.7107,13149386,0.77500004,0.12765957,-25.047894,821.4417,-0.03948894,-0.02228517,-0.019229889,0.0,0.0,0.0
643.7683,355.30444,13149403,0.77500004,0.11702127,13.052012,696.19476,-0.03948894,-0.02228517,-0.019229889,0.0,0.0,0.0
643.7683,369.724,13149419,0.77500004,0.09574468,27.9506,705.0906,-0.03948894,-0.02228517,-0.019229889,0.0,0.0,0.0
643.26843,383.20325,13149436,0.7875,0.11702127,11.953533,821.2291,-0.03948894,-0.02228517,-0.019229889,0.0,0.0,0.0
643.26843,392.64636,13149453,0.77500004,0.12765957,-12.645327,774.62506,-0.03948894,-0.02228517,-0.019229889,0.0,0.0,0.0
643.26843,401.37207,13149469,0.77500004,0.12765957,-2.1654785,581.81976,-0.03948894,-0.02228517,-0.019229889,0.0,0.0,0.0
643.26843,411.08826,13149486,0.7625,0.11702127,6.336305,423.51056,-0.03948894,-0.02228517,-0.019229889,0.0,0.0,0.0
643.26843,419.43164,13149503,0.7625,0.09574468,7.8708477,423.3492,-0.03948894,-0.02228517,-0.019229889,0.0,0.0,0.0
643.7683,426.82324,13149519,0.77500004,0.09574468,21.018724,445.60245,-0.03948894,-0.02228517,-0.019229889,0.0,0.0,0.0
643.7683,434.25085,13149536,0.77500004,0.09574468,17.097685,427.25668,-0.03948894,-0.02228517,-0.019229889,0.0,0.0,0.0
643.7683,438.6538,13149553,0.7875,0.11702127,9.340641,315.11035,-0.03948894,-0.02228517,-0.019229889,0.0,0.0,0.0
643.7683,442.98328,13149570,0.77500004,0.11702127,-1.327149,216.183,-0.03948894,-0.02228517,-0.019229889,0.0,0.0,0.0
644.2681,446.69653,13149586,0.7625,0.12765957,5.3095837,160.7491,-0.03948894,-0.02228517,-0.019229889,0.0,0.0,0.0
644.53076,450.39282,13149603,0.77500004,0.12765957,23.690887,140.22504,-0.03948894,-0.02228517,-0.019229889,0.0,0.0,0.0
645.5697,454.0863,13149620,0.77500004,0.12765957,49.73531,178.666,-0.03948894,-0.02228517,-0.019229889,0.0,0.0,0.0
646.60754,457.77588,13149636,0.7625,0.11702127,73.527214,205.06844,-0.03948894,-0.02228517,-0.019229889,0.0,0.0,0.0
648.02545,462.14282,13149653,0.75,0.11702127,89.00699,231.72046,-0.03948894,-0.02228517,-0.019229889,0.0,0.0,0.0
649.6634,465.9746,13149670,0.7625,0.08510638,112.00628,250.36594,-0.03948894,-0.02228517,-0.019229889,0.0,0.0,0.0
650.5161,467.67334,13149683,0.77500004,0.08510638,106.91079,218.27522,-0.03948894,-0.02228517,-0.019229889,0.0,0.0,0.0
651.00995,467.22913,13149703,0.7625,0.08510638,56.747616,45.78976,-0.03948894,-0.02228517,-0.019229889,0.0,0.0,0.0
651.80396,467.22913,13149720,0.7625,0.08510638,23.489485,-80.731544,-0.03948894,-0.02228517,-0.019229889,0.0,0.0,0.0
652.8099,467.22913,13149737,0.77500004,0.10638297,23.18312,-115.95096,-0.03948894,-0.02228517,-0.019229889,0.0,0.0,0.0
654.3866,466.12427,13149753,0.7625,0.10638297,71.410164,-87.654396,-0.03948894,-0.02228517,-0.019229889,0.0,0.0,0.0
657.6943,463.16504,13149770,0.77500004,0.10638297,154.74472,-124.60622,-0.03948894,-0.02228517,-0.019229889,0.0,0.0,0.0
663.3604,457.04272,13149787,0.7625,0.09574468,293.0366,-314.34253,-0.03948894,-0.02228517,-0.019229889,0.0,0.0,0.0
670.3475,448.33215,13149804,0.7625,0.08510638,444.3949,-536.7873,-0.03948894,-0.02228517,-0.019229889,0.0,0.0,0.0
678.9237,437.68604,13149820,0.77500004,0.08510638,578.89703,-727.8616,-0.03948894,-0.02228517,-0.019229889,0.0,0.0,0.0
686.44464,428.0204,13149837,0.7625,0.09574468,608.0627,-783.4136,-0.03948894,-0.02228517,-0.019229889,0.0,0.0,0.0
692.8554,419.42383,13149854,0.7625,0.11702127,516.07544,-692.22485,-0.03948894,-0.02228517,-0.019229889,0.0,0.0,0.0
699.55273,411.6947,13149870,0.7625,0.12765957,397.4398,-524.24274,-0.03948894,-0.02228517,-0.019229889,0.0,0.0,0.0
708.26117,403.3418,13149887,0.77500004,0.10638297,390.9671,-412.91025,0.016408846,-0.0018281341,-0.01538372,0.0,0.0,0.0
718.84985,395.51477,13149904,0.77500004,0.09574468,529.35205,-420.45575,0.016408846,-0.0018281341,-0.01538372,0.0,0.0,0.0
726.2979,389.88635,13149921,0.77500004,0.08510638,609.39777,-399.028,0.016408846,-0.0018281341,-0.01538372,0.0,0.0,0.0
733.52765,385.34033,13149937,0.77500004,0.08510638,541.6722,-307.3995,0.016408846,-0.0018281341,-0.01538372,0.0,0.0,0.0
739.6683,382.6936,13149954,0.8,0.09574468,399.4833,-161.59613,0.016408846,-0.0018281341,-0.01538372,0.0,0.0,0.0
743.6993,380.83838,13149971,0.7875,0.09574468,238.55466,-38.128845,0.016408846,-0.0018281341,-0.01538372,0.0,0.0,0.0
747.2187,381.0443,13149987,0.7875,0.09574468,157.76501,47.708008,0.016408846,-0.0018281341,-0.01538372,0.0,0.0,0.0
749.14484,382.29773,13150004,0.8,0.09574468,87.82487,123.65586,0.016408846,-0.0018281341,-0.01538372,0.0,0.0,0.0
750.4777,384.14368,13150021,0.7875,0.11702127,20.38446,178.26643,0.016408846,-0.0018281341,-0.01538372,0.0,0.0,0.0
751.7741,386.44812,13150038,0.7875,0.11702127,2.9154289,200.18037,0.016408846,-0.0018281341,-0.01538372,0.0,0.0,0.0
753.55493,391.07495,13150054,0.7875,0.12765957,32.965233,264.5868,0.016408846,-0.0018281341,-0.01538372,0.0,0.0,0.0
753.7325,396.2992,13150071,0.7875,0.12765957,42.549404,340.21606,0.016408846,-0.0018281341,-0.01538372,0.0,0.0,0.0
753.7325,402.7926,13150088,0.77500004,0.11702127,4.1745496,417.6032,0.016408846,-0.0018281341,-0.01538372,0.0,0.0,0.0
753.23267,412.55505,13150104,0.7875,0.09574468,-45.06095,562.74304,0.016408846,-0.0018281341,-0.01538372,0.0,0.0,0.0
752.25336,421.7705,13150121,0.77500004,0.09574468,-89.28584,663.4144,0.016408846,-0.0018281341,-0.01538372,0.0,0.0,0.0
752.233,431.02026,13150138,0.77500004,0.09574468,-61.816257,659.1872,0.016408846,-0.0018281341,-0.01538372,0.0,0.0,0.0
752.233,438.23865,13150154,0.77500004,0.11702127,-21.419298,576.24677,0.016408846,-0.0018281341,-0.01538372,0.0,0.0,0.0
751.12946,444.68152,13150171,0.7875,0.12765957,-23.613768,424.05963,0.016408846,-0.0018281341,-0.01538372,0.0,0.0,0.0
750.07794,450.2893,13150188,0.7875,0.12765957,-47.068275,300.34354,0.016408846,-0.0018281341,-0.01538372,0.0,0.0,0.0
750.23364,454.63513,13150205,0.7875,0.12765957,-44.398148,228.56201,0.016408846,-0.0018281341,-0.01538372,0.0,0.0,0.0
750.23364,458.21973,13150221,0.77500004,0.11702127,-21.92927,163.3878,0.016408846,-0.0018281341,-0.01538372,0.0,0.0,0.0
750.23364,461.91077,13150238,0.77500004,0.11702127,24.588848,169.41615,0.016408846,-0.0018281341,-0.01538372,0.0,0.0,0.0
750.23364,464.17896,13150255,0.77500004,0.09574468,23.7952,138.62503,0.016408846,-0.0018281341,-0.01538372,0.0,0.0,0.0
750.23364,466.55237,13150271,0.7875,0.09574468,4.7534947,99.0987,0.016408846,-0.0018281341,-0.01538372,0.0,0.0,0.0
750.23364,468.72913,13150288,0.8,0.09574468,-0.041667793,94.40807,0.016408846,-0.0018281341,-0.01538372,0.0,0.0,0.0
750.23364,469.45044,13150293,0.7875,0.09574468,-0.07897966,93.96813,0.016408846,-0.0018281341,-0.01538372,0.0,0.0,0.0
750.23364,469.89453,13150322,0.8125,0.09574468,-0.01859663,18.323433,0.016408846,-0.0018281341,-0.01538372,0.0,0.0,0.0
750.23364,469.89453,13150338,0.7875,0.09574468,0.008129393,-29.149334,0.016408846,-0.0018281341,-0.01538372,0.0,0.0,0.0
750.23364,469.89453,13150351,0.7875,0.09574468,0.04563165,-59.25743,0.016408846,-0.0018281341,-0.01538372,0.0,0.0,0.0
750.9834,469.89453,13150371,0.7875,0.09574468,21.411993,-42.044,0.016408846,-0.0018281341,-0.01538372,0.0,0.0,0.0
750.73346,469.89453,13150403,0.8,0.09574468,7.2003036,-0.009175393,0.013127074,-0.0014625043,0.019692421,0.0,0.0,0.0
750.73346,469.89453,13150422,0.77500004,0.09574468,-4.447081,-0.00954899,0.013127074,-0.0014625043,0.019692421,0.0,0.0,0.0
750.73346,469.89453,13150433,0.7875,0.09574468,-12.578999,0.03413599,0.013127074,-0.0014625043,0.019692421,0.0,0.0,0.0
750.73346,469.89453,13150472,0.8,0.09574468,-0.010152677,-0.005123427,0.013127074,-0.0014625043,0.019692421,0.0,0.0,0.0
750.73346,469.89453,13150479,0.7875,0.09574468,-0.0072511923,-0.004045037,0.013127074,-0.0014625043,0.019692421,0.0,0.0,0.0
750.73346,469.89453,13150522,0.77500004,0.09574468,-0.017195778,-0.011604664,0.013127074,-0.0014625043,0.019692421,0.0,0.0,0.0
750.73346,469.89453,13150539,0.7875,0.09574468,-0.023438528,-0.014660383,0.013127074,-0.0014625043,0.019692421,0.0,0.0,0.0
750.73346,469.89453,13150556,0.7875,0.09574468,0.04630176,0.030402116,0.013127074,-0.0014625043,0.019692421,0.0,0.0,0.0
750.73346,469.89453,13150560,0.77500004,0.09574468,0.021192044,0.01196817,0.013127074,-0.0014625043,0.019692421,0.0,0.0,0.0
750.73346,469.89453,13150588,0.7875,0.09574468,-0.01430582,-0.008470069,0.013127074,-0.0014625043,0.019692421,0.0,0.0,0.0
750.73346,469.89453,13150601,0.77500004,0.09574468,-0.035813585,-0.021271843,0.013127074,-0.0014625043,0.019692421,0.0,0.0,0.0
751.47864,469.89453,13150621,0.7625,0.09574468,20.010773,0.029075217,0.013127074,-0.0014625043,0.019692421,0.0,0.0,0.0
751.2333,469.89453,13150639,0.7875,0.09574468,15.422266,0.013273912,0.013127074,-0.0014625043,0.019692421,0.0,0.0,0.0
751.9681,469.89453,13150656,0.7875,0.09574468,26.35731,-0.008068284,0.013127074,-0.0014625043,0.019692421,0.0,0.0,0.0
753.00824,469.89453,13150673,0.7875,0.09574468,51.46909,-0.046532482,0.013127074,-0.0014625043,0.019692421,0.0,0.0,0.0
754.01733,469.89453,13150689,0.7875,0.09574468,71.59445,-0.011989034,0.013127074,-0.0014625043,0.019692421,0.0,0.0,0.0
755.01996,469.89453,13150706,0.7875,0.09574468,83.75934,-0.006573887,0.013127074,-0.0014625043,0.019692421,0.0,0.0,0.0
755.48193,469.89453,13150711,0.7875,0.09574468,85.2505,0.0054417276,0.013127074,-0.0014625043,0.019692421,0.0,0.0,0.0
755.7318,469.89453,13150739,0.7875,0.09574468,24.45588,-0.027057936,0.013127074,-0.0014625043,0.019692421,0.0,0.0,0.0
756.70215,469.89453,13150756,0.7875,0.09574468,12.351784,-0.033509295,0.013127074,-0.0014625043,0.019692421,0.0,0.0,0.0
758.1884,469.89453,13150773,0.77500004,0.08510638,46.04608,0.01140983,0.013127074,-0.0014625043,0.019692421,0.0,0.0,0.0
760.332,469.89453,13150789,0.77500004,0.10638297,122.40733,0.026723009,0.013127074,-0.0014625043,0.019692421,0.0,0.0,0.0
764.1025,467.95166,13150806,0.7625,0.10638297,204.61142,-52.31713,0.013127074,-0.0014625043,0.019692421,0.0,0.0,0.0
770.354,464.78442,13150823,0.75,0.10638297,338.9286,-159.53648,0.013127074,-0.0014625043,0.019692421,0.0,0.0,0.0
778.97644,458.12,13150840,0.7625,0.12765957,507.5588,-326.8705,0.013127074,-0.0014625043,0.019692421,0.0,0.0,0.0
790.3773,448.50745,13150856,0.7375,0.08510638,713.0544,-564.5446,0.013127074,-0.0014625043,0.019692421,0.0,0.0,0.0
798.7233,439.9762,13150873,0.75,0.09574468,755.725,-702.37854,0.013127074,-0.0014625043,0.019692421,0.0,0.0,0.0
808.377,429.3235,13150890,0.77500004,0.08510638,637.808,-725.8439,0.013127074,-0.0014625043,0.019692421,0.0,0.0,0.0
819.859,419.40186,13150906,0.7625,0.09574468,615.76996,-683.8236,0.013127074,-0.0014625043,0.019692421,0.0,0.0,0.0
836.3454,408.93286,13150923,0.7625,0.10638297,817.6674,-668.069,0.013127074,-0.0014625043,0.019692421,0.0,0.0,0.0
851.8212,400.45703,13150940,0.75,0.12765957,1069.1904,-613.90826,0.013127074,-0.0014625043,0.019692421,0.0,0.0,0.0
870.22534,390.64136,13150957,0.7625,0.08510638,1163.8489,-539.85315,0.01850167,-0.0011700094,0.015753746,0.0,0.0,0.0
888.8433,380.36023,13150973,0.75,0.08510638,1217.227,-534.7153,0.01850167,-0.0011700094,0.015753746,0.0,0.0,0.0
902.4252,373.8374,13150990,0.75,0.09574468,1077.9182,-507.07867,0.01850167,-0.0011700094,0.015753746,0.0,0.0,0.0
912.16656,372.05127,13151007,0.7625,0.09574468,774.1481,-281.50705,0.01850167,-0.0011700094,0.015753746,0.0,0.0,0.0
919.8832,371.27075,13151023,0.75,0.08510638,439.7977,-6.919789,0.01850167,-0.0011700094,0.015753746,0.0,0.0,0.0
926.2075,372.39514,13151040,0.75,0.08510638,181.17612,218.90263,0.01850167,-0.0011700094,0.015753746,0.0,0.0,0.0
930.1957,375.4414,13151057,0.7625,0.08510638,110.95811,311.63528,0.01850167,-0.0011700094,0.015753746,0.0,0.0,0.0
933.10583,378.25745,13151074,0.77500004,0.08510638,75.08424,312.88382,0.01850167,-0.0011700094,0.015753746,0.0,0.0,0.0
935.68677,381.5005,13151090,0.8,0.09574468,57.72607,294.92963,0.01850167,-0.0011700094,0.015753746,0.0,0.0,0.0
936.9512,383.31592,13151107,0.77500004,0.09574468,21.045408,205.66101,0.01850167,-0.0011700094,0.015753746,0.0,0.0,0.0
938.0046,385.18835,13151124,0.77500004,0.09574468,8.711039,115.69685,0.01850167,-0.0011700094,0.015753746,0.0,0.0,0.0
938.6723,385.48682,13151140,0.7625,0.09574468,2.182648,36.466106,0.01850167,-0.0011700094,0.015753746,0.0,0.0,0.0
939.422,386.81946,13151157,0.7625,0.10638297,-5.193368,9.614136,0.01850167,-0.0011700094,0.015753746,0.0,0.0,0.0
939.1721,386.37524,13151174,0.77500004,0.09574468,-12.830208,-17.812155,0.01850167,-0.0011700094,0.015753746,0.0,0.0,0.0
939.67194,386.37524,13151191,0.7875,0.10638297,-3.7241077,-32.987206,0.01850167,-0.0011700094,0.015753746,0.0,0.0,0.0
939.67194,386.37524,13151207,0.8,0.09574468,-7.5042787,-26.841639,0.01850167,-0.0011700094,0.015753746,0.0,0.0,0.0
939.67194,386.37524,13151219,0.75,0.09574468,-6.964664,-17.312227,0.01850167,-0.0011700094,0.015753746,0.0,0.0,0.0
939.67194,386.37524,13151241,0.77500004,0.09574468,-6.8922505,-8.970364,0.01850167,-0.0011700094,0.015753746,0.0,0.0,0.0
939.67194,386.37524,13151257,0.7875,0.09574468,-8.914753,0.014684269,0.01850167,-0.0011700094,0.015753746,0.0,0.0,0.0
939.67194,386.37524,13151274,0.75,0.08510638,0.0058300006,0.0033254912,0.01850167,-0.0011700094,0.015753746,0.0,0.0,0.0
939.67194,386.37524,13151291,0.75,0.09574468,0.041545864,0.018590476,0.01850167,-0.0011700094,0.015753746,0.0,0.0,0.0
939.67194,386.37524,13151307,0.7875,0.09574468,-0.012967785,-0.0048132255,0.01850167,-0.0011700094,0.015753746,0.0,0.0,0.0
939.2683,386.37524,13151324,0.7625,0.08510638,-9.200285,0.012183494,0.01850167,-0.0011700094,0.015753746,0.0,0.0,0.0
938.33057,386.37524,13151341,0.7625,0.08510638,-44.064114,0.0052046557,0.01850167,-0.0011700094,0.015753746,0.0,0.0,0.0
936.94977,386.37524,13151358,0.7625,0.08510638,-78.033165,0.036185034,0.01850167,-0.0011700094,0.015753746,0.0,0.0,0.0
934.4528,386.37524,13151374,0.7625,0.08510638,-134.7774,-0.016893132,0.01850167,-0.0011700094,0.015753746,0.0,0.0,0.0
929.4042,386.37524,13151391,0.75,0.09574468,-245.454,-0.017964102,0.01850167,-0.0011700094,0.015753746,0.0,0.0,0.0
922.1502,387.27075,13151408,0.7375,0.09574468,-419.98004,22.281994,0.01850167,-0.0011700094,0.015753746,0.0,0.0,0.0
914.3413,389.1161,13151424,0.75,0.10638297,-554.74304,83.962265,0.01850167,-0.0011700094,0.015753746,0.0,0.0,0.0
905.9582,390.96082,13151441,0.75,0.10638297,-615.2417,138.68797,0.01850167,-0.0011700094,0.015753746,0.0,0.0,0.0
896.55194,393.93103,13151458,0.75,0.10638297,-631.77563,185.87566,0.01850167,-0.0011700094,0.015753746,0.0,0.0,0.0
888.8258,396.75415,13151475,0.77500004,0.12765957,-571.29987,206.1188,-0.04119867,-0.016936012,-0.019396782,0.0,0.0,0.0
882.52026,400.396,13151491,0.7375,0.12765957,-464.25644,224.83856,-0.04119867,-0.016936012,-0.019396782,0.0,0.0,0.0
876.056,404.95337,13151508,0.7625,0.11702127,-371.06427,285.9762,-0.04119867,-0.016936012,-0.019396782,0.0,0.0,0.0
871.831,409.1527,13151525,0.77500004,0.09574468,-265.0946,302.42776,-0.04119867,-0.016936012,-0.019396782,0.0,0.0,0.0
865.3245,420.79895,13151541,0.77500004,0.09574468,-267.8944,491.23816,-0.04119867,-0.016936012,-0.019396782,0.0,0.0,0.0
860.7025,432.2611,13151558,0.77500004,0.08510638,-279.90128,734.91046,-0.04119867,-0.016936012,-0.019396782,0.0,0.0,0.0
857.5899,441.19226,13151575,0.7625,0.10638297,-219.4271,816.4202,-0.04119867,-0.016936012,-0.019396782,0.0,0.0,0.0
856.2817,448.87207,13151592,0.7625,0.12765957,-123.35142,680.7411,-0.04119867,-0.016936012,-0.019396782,0.0,0.0,0.0
856.19916,457.25854,13151608,0.75,0.10638297,28.462425,476.34213,-0.04119867,-0.016936012,-0.019396782,0.0,0.0,0.0
857.7208,465.5504,13151625,0.75,0.09574468,144.8099,396.92688,-0.04119867,-0.016936012,-0.019396782,0.0,0.0,0.0
860.85095,472.92334,13151642,0.7625,0.09574468,226.79614,430.51724,-0.04119867,-0.016936012,-0.019396782,0.0,0.0,0.0
863.8738,478.2058,13151658,0.75,0.09574468,283.54333,397.95786,-0.04119867,-0.016936012,-0.019396782,0.0,0.0,0.0
868.81586,481.88635,13151675,0.75,0.08510638,322.74606,252.90797,-0.04119867,-0.016936012,-0.019396782,0.0,0.0,0.0
876.11523,485.28003,13151692,0.7625,0.08510638,406.43597,135.20581,-0.04119867,-0.016936012,-0.019396782,0.0,0.0,0.0
884.9093,485.8877,13151709,0.75,0.08510638,538.1379,22.57669,-0.04119867,-0.016936012,-0.019396782,0.0,0.0,0.0
894.96796,484.29565,13151725,0.75,0.08510638,680.4858,-94.40149,-0.04119867,-0.016936012,-0.019396782,0.0,0.0,0.0
904.74786,478.53113,13151742,0.7375,0.09574468,728.00183,-301.5917,-0.04119867,-0.016936012,-0.019396782,0.0,0.0,0.0
913.77344,472.0332,13151759,0.7375,0.11702127,656.1819,-522.41614,-0.04119867,-0.016936012,-0.019396782,0.0,0.0,0.0
922.0698,464.65942,13151775,0.7375,0.12765957,538.68805,-614.2849,-0.04119867,-0.016936012,-0.019396782,0.0,0.0,0.0
929.7064,455.86597,13151792,0.7375,0.09574468,447.38306,-616.8567,-0.04119867,-0.016936012,-0.019396782,0.0,0.0,0.0
935.8272,446.51978,13151809,0.725,0.08510638,366.20578,-609.374,-0.04119867,-0.016936012,-0.019396782,0.0,0.0,0.0
941.5127,433.8285,13151826,0.7375,0.08510638,299.2371,-677.57446,-0.04119867,-0.016936012,-0.019396782,0.0,0.0,0.0
946.2139,422.70605,13151842,0.75,0.09574468,259.66492,-803.2897,-0.04119867,-0.016936012,-0.019396782,0.0,0.0,0.0
950.11096,411.458,13151859,0.7375,0.12765957,207.19542,-785.8342,-0.04119867,-0.016936012,-0.019396782,0.0,0.0,0.0
953.3475,400.6803,13151876,0.7375,0.08510638,172.56604,-730.6646,-0.04119867,-0.016936012,-0.019396782,0.0,0.0,0.0
954.0305,392.51135,13151892,0.75,0.08510638,82.491356,-585.44366,-0.04119867,-0.016936012,-0.019396782,0.0,0.0,0.0
952.98846,385.10205,13151909,0.7375,0.08510638,-65.79022,-425.73645,-0.04119867,-0.016936012,-0.019396782,0.0,0.0,0.0
950.7711,380.3385,13151926,0.77500004,0.08510638,-186.25977,-305.2885,-0.04119867,-0.016936012,-0.019396782,0.0,0.0,0.0
947.90405,376.58374,13151942,0.75,0.08510638,-268.9762,-137.67519,-0.04119867,-0.016936012,-0.019396782,0.0,0.0,0.0
943.4958,373.4143,13151959,0.7625,0.08510638,-298.57248,-112.09494,-0.04119867,-0.016936012,-0.019396782,0.0,0.0,0.0
938.00665,373.04773,13151976,0.77500004,0.08510638,-358.316,-21.407366,-0.04119867,-0.016936012,-0.019396782,0.0,0.0,0.0
932.13226,375.14587,13151993,0.75,0.09574468,-405.93613,111.64426,-0.04119867,-0.016936012,-0.019396782,0.0,0.0,0.0
926.70087,378.8943,13152009,0.75,0.09574468,-416.5354,279.7355,-0.01695893,0.018451184,0.016482353,0.0,0.0,0.0
922.41486,383.39355,13152026,0.75,0.11702127,-344.50525,389.34714,-0.01695893,0.018451184,0.016482353,0.0,0.0,0.0
917.21857,390.75952,13152043,0.75,0.12765957,-279.70743,473.54605,-0.01695893,0.018451184,0.016482353,0.0,0.0,0.0
913.5679,398.12585,13152059,0.7625,0.12765957,-234.98524,537.2556,-0.01695893,0.018451184,0.016482353,0.0,0.0,0.0
911.54834,403.61072,13152076,0.75,0.10638297,-160.85045,498.3983,-0.01695893,0.018451184,0.016482353,0.0,0.0,0.0
910.0721,408.0885,13152093,0.7375,0.08510638,-85.76972,389.41995,-0.01695893,0.018451184,0.016482353,0.0,0.0,0.0
910.1816,413.90247,13152110,0.75,0.08510638,20.939877,284.91153,-0.01695893,0.018451184,0.016482353,0.0,0.0,0.0
911.5452,419.3319,13152126,0.7625,0.09574468,115.91095,257.89914,-0.01695893,0.018451184,0.016482353,0.0,0.0,0.0
913.10614,424.4485,13152143,0.7625,0.09574468,162.77348,320.366,-0.01695893,0.018451184,0.016482353,0.0,0.0,0.0
915.19366,427.27075,13152160,0.7375,0.09574468,183.79047,256.7958,-0.01695893,0.018451184,0.016482353,0.0,0.0,0.0
918.3845,430.98315,13152176,0.7625,0.09574468,196.4826,177.18564,-0.01695893,0.018451184,0.016482353,0.0,0.0,0.0
922.85645,433.1742,13152193,0.75,0.08510638,256.16223,110.10308,-0.01695893,0.018451184,0.016482353,0.0,0.0,0.0
927.85504,434.99988,13152210,0.7625,0.08510638,326.66547,71.83139,-0.01695893,0.018451184,0.016482353,0.0,0.0,0.0
933.2143,436.13147,13152227,0.7625,0.08510638,380.4701,59.135155,-0.01695893,0.018451184,0.016482353,0.0,0.0,0.0
938.48334,436.13147,13152243,0.75,0.08510638,382.4537,-5.4843736,-0.01695893,0.018451184,0.016482353,0.0,0.0,0.0
943.1755,436.13147,13152260,0.7625,0.08510638,330.78378,-45.555515,-0.01695893,0.018451184,0.016482353,0.0,0.0,0.0
948.37885,435.24292,13152277,0.75,0.08510638,305.88617,-75.67256,-0.01695893,0.018451184,0.016482353,0.0,0.0,0.0
952.4682,433.33252,13152293,0.75,0.08510638,269.30835,-119.54704,-0.01695893,0.018451184,0.016482353,0.0,0.0,0.0
956.6483,431.47498,13152310,0.77500004,0.08510638,243.07346,-142.65991,-0.01695893,0.018451184,0.016482353,0.0,0.0,0.0
959.0222,429.5952,13152327,0.7625,0.09574468,184.1784,-154.50258,-0.01695893,0.018451184,0.016482353,0.0,0.0,0.0
960.74243,427.79297,13152344,0.7625,0.09574468,98.86247,-143.76717,-0.01695893,0.018451184,0.016482353,0.0,0.0,0.0
963.85583,425.94812,13152360,0.7375,0.09574468,87.3629,-120.99315,-0.01695893,0.018451184,0.016482353,0.0,0.0,0.0
966.1854,424.11694,13152377,0.75,0.09574468,117.19327,-111.95293,-0.01695893,0.018451184,0.016482353,0.0,0.0,0.0
968.8812,420.83252,13152394,0.7625,0.09574468,150.56502,-146.77098,-0.01695893,0.018451184,0.016482353,0.0,0.0,0.0
973.2069,417.26257,13152410,0.7375,0.10638297,211.37817,-209.83202,-0.01695893,0.018451184,0.016482353,0.0,0.0,0.0
978.4503,413.5343,13152427,0.75,0.10638297,287.29596,-256.20703,-0.01695893,0.018451184,0.016482353,0.0,0.0,0.0
983.6127,409.16895,13152444,0.7375,0.12765957,359.4209,-276.85056,-0.01695893,0.018451184,0.016482353,0.0,0.0,0.0
989.35095,403.5276,13152460,0.75,0.12765957,389.52994,-315.71872,-0.01695893,0.018451184,0.016482353,0.0,0.0,0.0
995.1721,397.01587,13152477,0.75,0.08510638,381.79047,-387.9675,-0.01695893,0.018451184,0.016482353,0.0,0.0,0.0
999.8761,388.6432,13152494,0.725,0.08510638,341.95203,-498.83896,-0.01695893,0.018451184,0.016482353,0.0,0.0,0.0
1005.9614,372.96936,13152511,0.75,0.10638297,349.26376,-790.61664,-0.01695893,0.018451184,0.016482353,0.0,0.0,0.0
1008.3992,361.94324,13152527,0.75,0.12765957,256.23242,-911.9716,-0.01695893,0.018451184,0.016482353,0.0,0.0,0.0
1008.64954,355.19006,13152544,0.7375,0.12765957,80.5831,-764.43915,-0.029567152,-0.0012390465,-0.018814087,0.0,0.0,0.0
1009.1493,349.78052,13152561,0.7625,0.12765957,-51.615807,-456.2319,-0.029567152,-0.0012390465,-0.018814087,0.0,0.0,0.0
1008.64954,345.97083,13152577,0.75,0.10638297,-141.67522,-95.45987,-0.029567152,-0.0012390465,-0.018814087,0.0,0.0,0.0
1008.64954,343.2312,13152594,0.75,0.10638297,-82.78473,-43.137882,-0.029567152,-0.0012390465,-0.018814087,0.0,0.0,0.0
1008.44507,341.58667,13152611,0.75,0.10638297,-36.757027,-17.91691,-0.029567152,-0.0012390465,-0.018814087,0.0,0.0,0.0
1007.6498,339.59644,13152628,0.77500004,0.10638297,-40.77938,-18.380657,-0.029567152,-0.0012390465,-0.018814087,0.0,0.0,0.0
1007.28296,338.39612,13152644,0.77500004,0.10638297,-32.218147,-30.446783,-0.029567152,-0.0012390465,-0.018814087,0.0,0.0,0.0
1006.65015,338.39612,13152661,0.77500004,0.10638297,-44.554913,-16.294188,-0.029567152,-0.0012390465,-0.018814087,0.0,0.0,0.0
1005.6837,338.39612,13152678,0.7625,0.10638297,-51.41636,29.152924,-0.029567152,-0.0012390465,-0.018814087,0.0,0.0,0.0
1005.6505,339.29443,13152694,0.7625,0.12765957,-32.61728,72.97302,-0.029567152,-0.0012390465,-0.018814087,0.0,0.0,0.0
1007.79565,342.12292,13152711,0.75,0.12765957,44.91262,143.97571,-0.029567152,-0.0012390465,-0.018814087,0.0,0.0,0.0
1013.7617,348.7931,13152728,0.7375,0.11702127,245.95581,308.80322,-0.029567152,-0.0012390465,-0.018814087,0.0,0.0,0.0
1026.9027,360.39465,13152745,0.75,0.09574468,635.01416,613.0654,-0.029567152,-0.0012390465,-0.018814087,0.0,0.0,0.0
1042.585,374.48633,13152761,0.7375,0.08510638,997.9516,903.92645,-0.029567152,-0.0012390465,-0.018814087,0.0,0.0,0.0
1059.6581,386.74854,13152778,0.75,0.10638297,1298.0496,1061.1401,-0.029567152,-0.0012390465,-0.018814087,0.0,0.0,0.0
1071.3228,396.53748,13152795,0.725,0.12765957,1186.6124,884.5238,-0.029567152,-0.0012390465,-0.018814087,0.0,0.0,0.0
1080.6747,406.27625,13152811,0.725,0.10638297,775.64264,622.5567,-0.029567152,-0.0012390465,-0.018814087,0.0,0.0,0.0
1087.2211,415.86853,13152828,0.725,0.08510638,365.01257,468.0051,-0.029567152,-0.0012390465,-0.018814087,0.0,0.0,0.0
1094.868,431.85938,13152845,0.7375,0.08510638,161.2437,657.0165,-0.029567152,-0.0012390465,-0.018814087,0.0,0.0,0.0
1096.6208,439.08167,13152861,0.7375,0.10638297,138.47818,742.2138,-0.029567152,-0.0012390465,-0.018814087,0.0,0.0,0.0
1095.2637,444.63684,13152878,0.7375,0.12765957,-44.74267,519.0324,-0.029567152,-0.0012390465,-0.018814087,0.0,0.0,0.0
1092.1755,449.39587,13152895,0.7375,0.12765957,-288.03702,235.53102,-0.029567152,-0.0012390465,-0.018814087,0.0,0.0,0.0
1081.3291,455.8407,13152912,0.75,0.12765957,-616.7249,131.28555,-0.029567152,-0.0012390465,-0.018814087,0.0,0.0,0.0
1062.3234,461.34167,13152928,0.7375,0.09574468,-1073.0011,227.92354,-0.029567152,-0.0012390465,-0.018814087,0.0,0.0,0.0
1042.4915,463.86584,13152945,0.7375,0.11702127,-1448.1448,266.85553,-0.029567152,-0.0012390465,-0.018814087,0.0,0.0,0.0
1030.0131,464.78638,13152962,0.75,0.10638297,-1426.546,112.1071,-0.029567152,-0.0012390465,-0.018814087,0.0,0.0,0.0
1019.9038,465.45203,13152978,0.75,0.10638297,-1014.87915,-32.80663,-0.029567152,-0.0012390465,-0.018814087,0.0,0.0,0.0
1014.9968,465.45203,13152995,0.7375,0.09574468,-322.02905,-99.28188,-0.029567152,-0.0012390465,-0.018814087,0.0,0.0,0.0
1011.42285,466.34058,13153012,0.6875,0.08510638,22.070274,-33.260136,-0.029567152,-0.0012390465,-0.018814087,0.0,0.0,0.0
1009.6492,466.34058,13153024,0.16250001,0.07446808,102.03228,-10.437994,-0.029567152,-0.0012390465,-0.018814087,0.0,0.0,0.0
1009.6492,466.34058,13153031,0.16250001,0.07446808,102.03228,-10.437994,-0.029567152,-0.0012390465,-0.018814087,0.0,0.0,0.0
1101.1194,377.49023,13153363,0.425,0.06382979,0.0,0.0,-0.023653723,-9.912401E-4,-0.015050888,0.0,0.0,0.0
1101.1194,377.49023,13153380,0.5625,0.06382979,-2.4950416,-0.86308396,-0.023653723,-9.912401E-4,-0.015050888,0.0,0.0,0.0
1101.1194,377.49023,13153396,0.65000004,0.09574468,-0.12181912,-0.042088427,-0.023653723,-9.912401E-4,-0.015050888,0.0,0.0,0.0
1102.8956,350.89014,13153413,0.71250004,0.09574468,107.11969,-1687.4785,-0.023653723,-9.912401E-4,-0.015050888,0.0,0.0,0.0
1107.061,340.3236,13153430,0.725,0.08510638,244.85323,-1349.3008,-0.023653723,-9.912401E-4,-0.015050888,0.0,0.0,0.0
1113.1716,333.9037,13153446,0.7375,0.08510638,372.3186,-929.0494,-0.023653723,-9.912401E-4,-0.015050888,0.0,0.0,0.0
1124.0394,326.4336,13153463,0.75,0.09574468,646.85724,-435.39618,-0.023653723,-9.912401E-4,-0.015050888,0.0,0.0,0.0
1138.4196,324.6831,13153480,0.75,0.09574468,906.14276,-16.096619,-0.023653723,-9.912401E-4,-0.015050888,0.0,0.0,0.0
1157.2944,332.08325,13153497,0.7375,0.08510638,1219.4493,226.19196,-0.023653723,-9.912401E-4,-0.015050888,0.0,0.0,0.0
1172.9717,344.70886,13153513,0.725,0.12765957,1312.6752,833.4237,-0.023653723,-9.912401E-4,-0.015050888,0.0,0.0,0.0
1182.624,359.7755,13153530,0.725,0.09574468,990.8977,1264.5465,-0.023653723,-9.912401E-4,-0.015050888,0.0,0.0,0.0
1192.2783,384.49097,13153547,0.71250004,0.09574468,632.3613,1628.5575,-0.023653723,-9.912401E-4,-0.015050888,0.0,0.0,0.0
1193.1104,399.40662,13153563,0.7,0.12765957,144.2733,1521.5181,-0.023653723,-9.912401E-4,-0.015050888,0.0,0.0,0.0
1186.8779,416.1704,13153580,0.71250004,0.08510638,-359.1083,1211.7163,-0.023653723,-9.912401E-4,-0.015050888,0.0,0.0,0.0
1177.4828,428.78723,13153597,0.725,0.08510638,-764.3852,919.856,-0.023653723,-9.912401E-4,-0.015050888,0.0,0.0,0.0
1157.5674,440.76953,13153613,0.725,0.10638297,-1265.6646,639.00366,-0.0029229745,0.0152070075,0.0039596558,0.0,0.0,0.0
1136.0151,448.68127,13153630,0.71250004,0.12765957,-1616.5585,474.25946,-0.0029229745,0.0152070075,0.0039596558,0.0,0.0,0.0
1118.5278,452.76965,13153647,0.7375,0.10638297,-1611.5968,260.6827,-0.0029229745,0.0152070075,0.0039596558,0.0,0.0,0.0
1110.0281,453.01306,13153664,0.7375,0.12765957,-1067.8384,-64.22033,-0.0029229745,0.0152070075,0.0039596558,0.0,0.0,0.0
1106.8635,453.01306,13153680,0.7375,0.12765957,-317.71313,-213.15388,-0.0029229745,0.0152070075,0.0039596558,0.0,0.0,0.0
1107.2047,453.5348,13153697,0.71250004,0.10638297,263.9863,-213.34715,-0.0029229745,0.0152070075,0.0039596558,0.0,0.0,0.0
1119.8318,458.06628,13153714,0.7,0.12765957,737.4657,-1.4916339,-0.0029229745,0.0152070075,0.0039596558,0.0,0.0,0.0
1144.9033,465.43018,13153730,0.725,0.10638297,1445.6829,345.15988,-0.0029229745,0.0152070075,0.0039596558,0.0,0.0,0.0
1173.73,474.44702,13153747,0.7375,0.08510638,2138.6711,623.58044,-0.0029229745,0.0152070075,0.0039596558,0.0,0.0,0.0
1195.4656,482.5011,13153764,0.7375,0.08510638,2283.3625,712.93866,-0.0029229745,0.0152070075,0.0039596558,0.0,0.0,0.0
1213.9443,490.26868,13153781,0.725,0.08510638,1777.0367,636.0829,-0.0029229745,0.0152070075,0.0039596558,0.0,0.0,0.0
1224.3722,495.8346,13153797,0.7375,0.10638297,865.111,437.6524,-0.0029229745,0.0152070075,0.0039596558,0.0,0.0,0.0
1231.4237,499.42053,13153814,0.725,0.10638297,270.5862,256.9046,-0.0029229745,0.0152070075,0.0039596558,0.0,0.0,0.0
1234.2548,501.15088,13153831,0.71250004,0.11702127,-61.754566,86.13765,-0.0029229745,0.0152070075,0.0039596558,0.0,0.0,0.0
1235.0758,500.9922,13153847,0.6625,0.10638297,-212.92332,-58.54709,-0.0029229745,0.0152070075,0.0039596558,0.0,0.0,0.0
1235.0758,500.9922,13153853,0.3375,0.10638297,-250.77481,-101.29696,-0.0029229745,0.0152070075,0.0039596558,0.0,0.0,0.0
1235.0758,500.9922,13153860,0.3375,0.10638297,-250.77481,-101.29696,-0.0029229745,0.0152070075,0.0039596558,0.0,0.0,0.0
1143.1057,408.5879,13154030,0.725,0.12765957,0.0,0.0,-0.0029229745,0.0152070075,0.0039596558,0.0,0.0,0.0
1143.1057,408.5879,13154062,0.75,0.12765957,4.5039525E-4,6.062138E-4,-0.0029229745,0.0152070075,0.0039596558,0.0,0.0,0.0
1167.6816,407.69934,13154081,0.75,0.12765957,1789.8656,-67.43662,-0.0029229745,0.0152070075,0.0039596558,3.355443E-6,0.0,0.0
1185.9602,409.8136,13154098,0.71250004,0.11702127,1611.0339,76.367615,-0.0029229745,0.0152070075,0.0039596558,3.355443E-6,0.0,0.0
1211.5746,415.891,13154115,0.71250004,0.08510638,1772.0469,305.57025,-0.0029229745,0.0152070075,0.0039596558,3.355443E-6,0.0,0.0
1231.7745,421.58484,13154131,0.6375,0.08510638,1491.3375,542.0221,-0.0029229745,0.0152070075,0.0039596558,3.355443E-6,0.0,0.0
1233.0764,421.9154,13154134,0.25,0.09574468,1379.9015,511.91586,-0.0029229745,0.0152070075,0.0039596558,3.355443E-6,0.0,0.0
1233.0764,421.9154,13154142,0.25,0.09574468,1379.9015,511.91586,-0.0029229745,0.0152070075,0.0039596558,3.355443E-6,0.0,0.0
