x,y,timestamp,pressure,fingerarea,velocityx,velocityy,accelx,accely,accelz,gyrox,gyroy,gyroz
236.90073,312.62952,126490319,0.8,0.08510638,0.0,0.0,-0.02147764,-0.01547651,0.012755394,0.0,0.0,0.0
214.61682,299.81396,126490342,0.7875,0.12765957,-3394.3428,-1952.0725,-0.02147764,-0.01547651,0.012755394,0.0,0.0,0.0
200.5386,288.75183,126490359,0.8,0.10638297,-1401.859,-1027.0714,-0.02147764,-0.01547651,0.012755394,0.0,0.0,0.0
185.75159,272.64807,126490376,0.8125,0.08510638,-1071.1078,-1123.297,-0.02147764,-0.01547651,0.012755394,0.0,0.0,0.0
177.32596,260.0404,126490393,0.825,0.12765957,-684.82776,-1038.0105,-0.02147764,-0.01547651,0.012755394,0.0,0.0,0.0
172.74028,251.88904,126490409,0.83750004,0.12765957,-319.64017,-787.70465,-0.02147764,-0.01547651,0.012755394,0.0,0.0,0.0
171.42206,248.04956,126490426,0.8625,0.12765957,167.97905,-304.2973,-0.02147764,-0.01547651,0.012755394,0.0,0.0,0.0
178.8831,249.15576,126490443,0.85,0.09574468,424.63022,109.577736,-0.02147764,-0.01547651,0.012755394,0.0,0.0,0.0
203.66537,260.82605,126490459,0.83750004,0.09574468,1122.9961,605.1249,-0.02147764,-0.01547651,0.012755394,0.0,0.0,0.0
239.0037,272.44775,126490476,0.8125,0.08510638,2168.2385,1040.3801,-0.02147764,-0.01547651,0.012755394,0.0,0.0,0.0
274.4121,269.87183,126490493,0.77500004,0.08510638,2854.46,733.0296,-0.02147764,-0.01547651,0.012755394,0.0,0.0,0.0
302.7535,254.9159,126490510,0.7875,0.11702127,2719.3538,-253.72702,-0.02147764,-0.01547651,0.012755394,0.0,0.0,0.0
326.8291,238.3075,126490526,0.7625,0.09574468,2000.5815,-1252.5258,-0.02147764,-0.01547651,0.012755394,0.0,0.0,0.0
337.0234,225.28027,126490543,0.7625,0.08510638,987.1553,-1619.906,-0.02147764,-0.01547651,0.012755394,0.0,0.0,0.0
339.86722,219.0321,126490560,0.8,0.08510638,95.49764,-1130.8657,-0.02147764,-0.01547651,0.012755394,0.0,0.0,0.0
339.86722,217.5597,126490576,0.8125,0.08510638,-474.96246,-335.91486,-0.02147764,-0.01547651,0.012755394,0.0,0.0,0.0
337.585,222.07251,126490593,0.825,0.10638297,-624.2045,361.46027,-0.02147764,-0.01547651,0.012755394,0.0,0.0,0.0
329.69623,246.94641,126490610,0.83750004,0.12765957,-629.82007,1117.1191,-0.02147764,-0.01547651,0.012755394,0.0,0.0,0.0
325.5467,296.2328,126490627,0.825,0.12765957,-611.0943,2579.5488,-0.02147764,-0.01547651,0.012755394,0.0,0.0,0.0
331.38916,357.6267,126490643,0.825,0.12765957,-217.71231,4169.7676,-0.02147764,-0.01547651,0.012755394,0.0,0.0,0.0
345.38458,422.58716,126490660,0.825,0.10638297,535.70123,5114.4087,-0.02147764,-0.01547651,0.012755394,0.0,0.0,0.0
361.6251,478.10754,126490677,0.7875,0.10638297,1255.5999,4780.039,-0.02147764,-0.01547651,0.012755394,0.0,0.0,0.0
373.86377,509.00598,126490693,0.77500004,0.10638297,1364.1284,3123.6113,-0.02147764,-0.01547651,0.012755394,0.0,0.0,0.0
384.7224,531.11584,126490710,0.77500004,0.08510638,1021.115,1465.3673,-0.02147764,-0.01547651,0.012755394,0.0,0.0,0.0
389.10422,541.72424,126490727,0.7875,0.08510638,503.70013,156.95058,0.0148178935,0.0036187917,-0.03779602,0.0,0.0,0.0
389.85095,547.8434,126490744,0.7875,0.09574468,27.81128,-474.18878,0.0148178935,0.0036187917,-0.03779602,0.0,0.0,0.0
385.71478,552.20325,126490760,0.8,0.12765957,-349.9712,-478.24786,0.0148178935,0.0036187917,-0.03779602,0.0,0.0,0.0
370.0177,558.01953,126490777,0.7875,0.12765957,-808.98224,-204.69957,0.0148178935,0.0036187917,-0.03779602,0.0,0.0,0.0
342.13757,561.4104,126490794,0.7875,0.10638297,-1587.4875,85.29758,0.0148178935,0.0036187917,-0.03779602,0.0,0.0,0.0
316.11725,559.5211,126490810,0.77500004,0.11702127,-2152.9097,22.345375,0.0148178935,0.0036187917,-0.03779602,0.0,0.0,0.0
295.6179,554.6162,126490827,0.675,0.09574468,-2121.0376,-279.18008,0.0148178935,0.0036187917,-0.03779602,0.0,0.0,0.0
294.38202,554.30237,126490830,0.425,0.08510638,-1993.1259,-310.9211,0.0148178935,0.0036187917,-0.03779602,0.0,0.0,0.0
294.38202,554.30237,126490838,0.425,0.08510638,-1993.1259,-310.9211,0.0148178935,0.0036187917,-0.03779602,0.0,0.0,0.0
297.8809,466.34058,126490934,0.7875,0.10638297,0.0,0.0,0.0148178935,0.0036187917,-0.03779602,0.0,0.0,0.0
297.8809,466.34058,126490961,0.8,0.12765957,-0.0070996922,-0.010041279,0.0148178935,0.0036187917,-0.03779602,0.0,0.0,0.0
333.00998,458.49683,126490978,0.8125,0.10638297,2600.2146,-581.5113,0.0148178935,0.0036187917,-0.03779602,0.0,0.0,0.0
356.5217,454.4956,126490994,0.8,0.12765957,2307.2441,-429.7078,0.0148178935,0.0036187917,-0.03779602,0.0,0.0,0.0
380.06332,447.14478,126491011,0.7625,0.10638297,2049.9385,-467.31665,0.0148178935,0.0036187917,-0.03779602,0.0,0.0,0.0
398.6986,435.02588,126491028,0.725,0.08510638,1733.8158,-651.48737,0.0148178935,0.0036187917,-0.03779602,0.0,0.0,0.0
409.4024,426.6084,126491044,0.675,0.08510638,813.8051,-713.79755,0.0148178935,0.0036187917,-0.03779602,0.0,0.0,0.0
417.00244,422.80396,126491061,0.7625,0.09574468,380.41623,-607.843,0.0148178935,0.0036187917,-0.03779602,0.0,0.0,0.0
423.07114,425.67468,126491078,0.8,0.09574468,38.26575,-83.358604,0.0148178935,0.0036187917,-0.03779602,0.0,0.0,0.0
431.92358,438.19556,126491095,0.8,0.10638297,56.402103,604.6221,0.0148178935,0.0036187917,-0.03779602,0.0,0.0,0.0
450.44287,463.83374,126491111,0.8,0.08510638,644.0326,1488.6958,0.0148178935,0.0036187917,-0.03779602,0.0,0.0,0.0
471.2177,492.3297,126491128,0.7625,0.12765957,1236.1259,2133.9583,0.0148178935,0.0036187917,-0.03779602,0.0,0.0,0.0
494.71887,511.32568,126491145,0.75,0.10638297,1642.5492,2112.1868,0.0148178935,0.0036187917,-0.03779602,0.0,0.0,0.0
515.10126,516.3363,126491161,0.71250004,0.10638297,1672.9958,1247.4036,0.0148178935,0.0036187917,-0.03779602,0.0,0.0,0.0
528.9932,511.5708,126491178,0.71250004,0.12765957,1275.3662,-3.2705948,0.0148178935,0.0036187917,-0.03779602,0.0,0.0,0.0
541.1528,491.34656,126491195,0.71250004,0.08510638,775.59094,-1202.9019,0.0148178935,0.0036187917,-0.03779602,0.0,0.0,0.0
549.52423,458.11926,126491211,0.7375,0.10638297,402.2408,-2368.7803,0.0148178935,0.0036187917,-0.03779602,0.0,0.0,0.0
551.8626,438.84058,126491228,0.7375,0.08510638,96.813675,-2485.2266,0.0148178935,0.0036187917,-0.03779602,0.0,0.0,0.0
553.11646,430.87878,126491245,0.75,0.08510638,-117.60329,-1581.7482,0.0148178935,0.0036187917,-0.03779602,0.0,0.0,0.0
553.6595,428.38037,126491262,0.7625,0.08510638,-244.8976,-294.11517,0.0148178935,0.0036187917,-0.03779602,0.0,0.0,0.0
555.9805,426.5453,126491278,0.7625,0.08510638,-152.16615,562.25195,0.0148178935,0.0036187917,-0.03779602,0.0,0.0,0.0
559.5685,424.6819,126491295,0.75,0.08510638,106.76129,433.80637,0.011854321,-0.029104967,0.0017633438,0.0,0.0,0.0
564.17566,424.58093,126491312,0.7625,0.08510638,257.15167,174.84625,0.011854321,-0.029104967,0.0017633438,0.0,0.0,0.0
572.0754,430.16406,126491328,0.77500004,0.09574468,437.10992,201.20436,0.011854321,-0.029104967,0.0017633438,0.0,0.0,0.0
585.1912,445.1604,126491345,0.75,0.12765957,704.6942,651.4442,0.011854321,-0.029104967,0.0017633438,0.0,0.0,0.0
605.82434,466.6388,126491362,0.7375,0.08510638,1135.644,1298.5776,0.011854321,-0.029104967,0.0017633438,0.0,0.0,0.0
623.42773,479.65894,126491379,0.6875,0.08510638,1409.0995,1496.4891,0.011854321,-0.029104967,0.0017633438,0.0,0.0,0.0
637.52673,482.71045,126491395,0.6875,0.09574468,1319.875,993.9703,0.011854321,-0.029104967,0.0017633438,0.0,0.0,0.0
648.08795,474.97998,126491412,0.7,0.10638297,823.4607,-264.96997,0.011854321,-0.029104967,0.0017633438,0.0,0.0,0.0
656.3512,452.96777,126491429,0.7,0.10638297,438.29694,-1307.4457,0.011854321,-0.029104967,0.0017633438,0.0,0.0,0.0
655.7903,411.1809,126491445,0.7,0.10638297,83.264915,-2501.259,0.011854321,-0.029104967,0.0017633438,0.0,0.0,0.0
646.9828,345.87756,126491462,0.725,0.11702127,-481.46274,-4004.466,0.011854321,-0.029104967,0.0017633438,0.0,0.0,0.0
640.40247,292.68994,126491479,0.725,0.12765957,-863.85474,-4775.544,0.011854321,-0.029104967,0.0017633438,0.0,0.0,0.0
636.98,272.62683,126491496,0.77500004,0.09574468,-806.86035,-3634.829,0.011854321,-0.029104967,0.0017633438,0.0,0.0,0.0
634.3281,264.8015,126491512,0.7625,0.08510638,-426.17645,-1227.0675,0.011854321,-0.029104967,0.0017633438,0.0,0.0,0.0
632.76105,261.07715,126491529,0.77500004,0.10638297,-38.393486,674.01263,0.011854321,-0.029104967,0.0017633438,0.0,0.0,0.0
631.71826,259.2235,126491546,0.77500004,0.08510638,46.664715,1137.4036,0.011854321,-0.029104967,0.0017633438,0.0,0.0,0.0
631.27234,262.49536,126491562,0.7875,0.08510638,31.163313,755.2999,0.011854321,-0.029104967,0.0017633438,0.0,0.0,0.0
630.91565,291.9519,126491579,0.7875,0.12765957,17.42535,1115.0001,0.011854321,-0.029104967,0.0017633438,0.0,0.0,0.0
635.21484,355.34924,126491596,0.77500004,0.12765957,135.17119,2915.9978,0.011854321,-0.029104967,0.0017633438,0.0,0.0,0.0
641.76184,419.28076,126491613,0.7625,0.11702127,329.81885,4671.265,0.011854321,-0.029104967,0.0017633438,0.0,0.0,0.0
652.2039,467.89856,126491629,0.7375,0.11702127,654.953,5051.3477,0.011854321,-0.029104967,0.0017633438,0.0,0.0,0.0
662.905,496.32776,126491646,0.7375,0.10638297,856.98236,3305.0337,0.011854321,-0.029104967,0.0017633438,0.0,0.0,0.0
675.5315,513.75525,126491663,0.725,0.10638297,875.46,983.00903,0.011854321,-0.029104967,0.0017633438,0.0,0.0,0.0
692.07355,527.3257,126491679,0.71250004,0.09574468,976.7881,-127.53232,0.011854321,-0.029104967,0.0017633438,0.0,0.0,0.0
705.6142,530.31274,126491696,0.71250004,0.08510638,1005.8667,-434.1299,0.011854321,-0.029104967,0.0017633438,0.0,0.0,0.0
716.686,523.7562,126491713,0.7,0.09574468,907.5736,-590.7492,0.011854321,-0.029104967,0.0017633438,0.0,0.0,0.0
728.9503,488.61023,126491730,0.6875,0.08510638,708.60645,-1411.479,0.011854321,-0.029104967,0.0017633438,0.0,0.0,0.0
732.2935,453.87793,126491746,0.71250004,0.08510638,381.37158,-2776.1992,0.011854321,-0.029104967,0.0017633438,0.0,0.0,0.0
733.8754,432.375,126491763,0.7375,0.08510638,74.73631,-2846.5732,0.011854321,-0.029104967,0.0017633438,0.0,0.0,0.0
735.3516,426.84448,126491780,0.7375,0.08510638,-103.14168,-1710.7671,0.011854321,-0.029104967,0.0017633438,0.0,0.0,0.0
738.87024,424.2998,126491796,0.75,0.09574468,-112.45631,-208.31252,0.011854321,-0.029104967,0.0017633438,0.0,0.0,0.0
745.6694,428.83936,126491813,0.75,0.09574468,121.40736,849.2957,0.011854321,-0.029104967,0.0017633438,0.0,0.0,0.0
756.5359,439.70325,126491830,0.7625,0.10638297,585.4058,1027.4467,0.011854321,-0.029104967,0.0017633438,0.0,0.0,0.0
772.67035,455.62878,126491847,0.77500004,0.10638297,961.4943,1167.3936,-0.006516546,0.04071603,-0.062589645,0.0,0.0,0.0
789.3716,473.28955,126491863,0.7375,0.08510638,1236.7349,1381.8134,-0.006516546,0.04071603,-0.062589645,0.0,0.0,0.0
806.0014,490.58423,126491880,0.7,0.09574468,1260.4963,1408.1025,-0.006516546,0.04071603,-0.062589645,0.0,0.0,0.0
819.54193,499.70728,126491897,0.625,0.10638297,1112.6571,1060.7477,-0.006516546,0.04071603,-0.062589645,0.0,0.0,0.0
820.2108,500.10364,126491898,0.32500002,0.10638297,1059.8425,976.8349,-0.006516546,0.04071603,-0.062589645,0.0,0.0,0.0
820.2108,500.10364,126491909,0.32500002,0.10638297,1059.8425,976.8349,-0.006516546,0.04071603,-0.062589645,0.0,0.0,0.0
885.6895,446.79346,126491963,0.7,0.09574468,0.0,0.0,-0.006516546,0.04071603,-0.062589645,0.0,0.0,0.0
885.6895,446.79346,126491980,0.71250004,0.08510638,-0.7958987,-0.3833199,-0.006516546,0.04071603,-0.062589645,0.0,0.0,0.0
885.6895,446.79346,126491997,0.71250004,0.08510638,0.011940427,0.003207145,-0.006516546,0.04071603,-0.062589645,0.0,0.0,0.0
885.6895,446.79346,126492014,0.725,0.08510638,-0.012471246,-0.006349652,-0.006516546,0.04071603,-0.062589645,0.0,0.0,0.0
883.11475,420.89258,126492030,0.75,0.12765957,-95.85019,-1214.6084,-0.006516546,0.04071603,-0.062589645,0.0,0.0,0.0
877.4072,413.448,126492047,0.725,0.12765957,-287.44247,-1170.5753,-0.006516546,0.04071603,-0.062589645,0.0,0.0,0.0
868.5428,410.36487,126492064,0.7375,0.12765957,-555.08997,-730.8525,-0.006516546,0.04071603,-0.062589645,0.0,0.0,0.0
859.6835,412.44666,126492081,0.75,0.10638297,-719.3102,-74.380005,-0.006516546,0.04071603,-0.062589645,0.0,0.0,0.0
851.8514,420.9862,126492097,0.7625,0.08510638,-656.1668,799.2096,-0.006516546,0.04071603,-0.062589645,0.0,0.0,0.0
847.78827,442.2859,126492114,0.7625,0.10638297,-474.86862,1167.2202,-0.006516546,0.04071603,-0.062589645,0.0,0.0,0.0
854.55365,468.1725,126492131,0.7375,0.10638297,23.149948,1788.1232,-0.006516546,0.04071603,-0.062589645,0.0,0.0,0.0
866.65894,484.95557,126492147,0.7375,0.09574468,684.4769,1916.8308,-0.006516546,0.04071603,-0.062589645,0.0,0.0,0.0
886.34686,498.69177,126492164,0.7,0.09574468,1351.922,1396.8036,-0.006516546,0.04071603,-0.062589645,0.0,0.0,0.0
901.193,499.0774,126492181,0.6875,0.09574468,1534.9442,456.73166,-0.006516546,0.04071603,-0.062589645,0.0,0.0,0.0
909.06036,487.8806,126492198,0.6875,0.09574468,1118.8713,-587.561,-0.006516546,0.04071603,-0.062589645,0.0,0.0,0.0
916.8344,460.85815,126492214,0.71250004,0.11702127,598.36487,-1700.1244,-0.006516546,0.04071603,-0.062589645,0.0,0.0,0.0
917.67914,453.21008,126492231,0.725,0.09574468,60.12076,-1843.4116,-0.006516546,0.04071603,-0.062589645,0.0,0.0,0.0
917.91693,450.81323,126492248,0.7375,0.11702127,-214.00189,-906.35956,-0.006516546,0.04071603,-0.062589645,0.0,0.0,0.0
920.77856,450.34753,126492264,0.7375,0.12765957,-174.49341,83.07847,-0.006516546,0.04071603,-0.062589645,0.0,0.0,0.0
929.77344,452.91663,126492281,0.7375,0.12765957,137.23051,608.0859,-0.006516546,0.04071603,-0.062589645,0.0,0.0,0.0
942.3057,455.67847,126492298,0.71250004,0.10638297,713.94165,460.68808,-0.006516546,0.04071603,-0.062589645,0.0,0.0,0.0
953.23663,454.97388,126492314,0.7,0.12765957,977.0865,245.03906,-0.006516546,0.04071603,-0.062589645,0.0,0.0,0.0
959.8417,451.46606,126492331,0.71250004,0.11702127,833.6712,-23.9725,-0.006516546,0.04071603,-0.062589645,0.0,0.0,0.0
964.54675,446.0299,126492348,0.7,0.09574468,432.62692,-333.53296,-0.006516546,0.04071603,-0.062589645,0.0,0.0,0.0
969.2562,441.39575,126492365,0.71250004,0.09574468,137.30522,-479.8791,-0.006516546,0.04071603,-0.062589645,0.0,0.0,0.0
976.6455,438.70117,126492381,0.71250004,0.08510638,182.17278,-367.06305,-0.006516546,0.04071603,-0.062589645,0.0,0.0,0.0
989.0858,439.86694,126492398,0.725,0.08510638,493.485,-105.44978,-0.006516546,0.04071603,-0.062589645,0.0,0.0,0.0
1006.0714,446.9806,126492415,0.71250004,0.12765957,933.4704,287.8161,-0.006516546,0.04071603,-0.062589645,0.0,0.0,0.0
1022.3873,460.1443,126492431,0.7,0.11702127,1200.4652,742.6834,-0.005213231,-0.015427172,0.013928413,0.0,0.0,0.0
1038.0215,483.90002,126492448,0.6875,0.09574468,1268.7625,1344.2996,-0.005213231,-0.015427172,0.013928413,0.0,0.0,0.0
1052.9343,511.7544,126492465,0.6625,0.09574468,1058.8302,1966.0062,-0.005213231,-0.015427172,0.013928413,0.0,0.0,0.0
1056.134,522.65906,126492482,0.6625,0.08510638,575.0573,1728.4275,-0.005213231,-0.015427172,0.013928413,0.0,0.0,0.0
1053.6384,528.23755,126492498,0.65000004,0.08510638,-73.15653,845.25305,-0.005213231,-0.015427172,0.013928413,0.0,0.0,0.0
1042.7876,529.4243,126492515,0.675,0.09574468,-762.9161,-132.38614,-0.005213231,-0.015427172,0.013928413,0.0,0.0,0.0
1027.1392,525.4508,126492532,0.7,0.08510638,-1264.1887,-648.9714,-0.005213231,-0.015427172,0.013928413,0.0,0.0,0.0
1011.677,514.05725,126492548,0.675,0.10638297,-1458.4502,-854.3139,-0.005213231,-0.015427172,0.013928413,0.0,0.0,0.0
996.13245,486.72925,126492565,0.425,0.08510638,-1288.9408,-1412.6678,-0.005213231,-0.015427172,0.013928413,0.0,0.0,0.0
994.1542,473.4486,126492576,0.275,0.12765957,-1127.0481,-1740.6442,-0.005213231,-0.015427172,0.013928413,0.0,0.0,0.0
994.1542,473.4486,126492581,0.275,0.12765957,-1127.0481,-1740.6442,-0.005213231,-0.015427172,0.013928413,0.0,0.0,0.0
1028.643,397.03735,126492629,0.6875,0.11702127,0.0,0.0,-0.005213231,-0.015427172,0.013928413,0.0,0.0,0.0
1028.643,397.03735,126492649,0.71250004,0.11702127,-0.14912167,-0.058204718,-0.005213231,-0.015427172,0.013928413,0.0,0.0,0.0
1055.9244,396.99072,126492665,0.71250004,0.10638297,2566.187,-28.65595,-0.005213231,-0.015427172,0.013928413,0.0,0.0,0.0
1073.4266,404.9485,126492682,0.71250004,0.12765957,1931.9833,440.75427,-0.005213231,-0.015427172,0.013928413,0.0,0.0,0.0
1091.2288,421.1526,126492699,0.725,0.08510638,1566.7628,1004.35455,-0.005213231,-0.015427172,0.013928413,0.0,0.0,0.0
1110.1456,443.36206,126492716,0.71250004,0.10638297,1348.6399,1467.9604,-0.005213231,-0.015427172,0.013928413,0.0,0.0,0.0
1127.6354,477.3999,126492732,0.7,0.08510638,868.298,2000.0181,-0.005213231,-0.015427172,0.013928413,0.0,0.0,0.0
1137.1576,505.4978,126492749,0.6875,0.12765957,732.0938,2406.7341,-0.005213231,-0.015427172,0.013928413,0.0,0.0,0.0
1146.4001,529.80383,126492766,0.6625,0.08510638,546.2298,2168.8982,-0.005213231,-0.015427172,0.013928413,0.0,0.0,0.0
1152.7346,540.2036,126492782,0.6375,0.08510638,272.3809,1308.073,-0.005213231,-0.015427172,0.013928413,0.0,0.0,0.0
1160.1057,544.7855,126492799,0.6375,0.08510638,172.75989,293.2032,-0.005213231,-0.015427172,0.013928413,0.0,0.0,0.0
1166.5369,544.5288,126492816,0.38750002,0.08510638,260.9337,-438.8784,-0.005213231,-0.015427172,0.013928413,0.0,0.0,0.0
1167.5978,544.5288,126492823,0.16250001,0.06382979,255.14075,-625.01025,-0.005213231,-0.015427172,0.013928413,0.0,0.0,0.0
1167.5978,544.5288,126492830,0.16250001,0.06382979,255.14075,-625.01025,-0.005213231,-0.015427172,0.013928413,0.0,0.0,0.0
1074.628,492.9956,126492959,0.7375,0.09574468,0.0,0.0,-0.005213231,-0.015427172,0.013928413,0.0,0.0,0.0
1074.628,492.9956,126492983,0.75,0.09574468,0.08187454,0.03840348,0.027829409,0.01965826,0.011142731,0.0,0.0,0.0
1100.6803,481.4182,126493000,0.7,0.08510638,2066.9753,-918.45935,0.027829409,0.01965826,0.011142731,0.0,0.0,0.0
1159.7979,459.9336,126493016,0.4,0.10638297,4209.5293,-1622.2942,0.027829409,0.01965826,0.011142731,0.0,0.0,0.0
1159.7979,459.9336,126493023,0.4,0.10638297,4209.5293,-1622.2942,0.027829409,0.01965826,0.011142731,0.0,0.0,0.0
