x,y,timestamp,pressure,fingerarea,velocityx,velocityy,accelx,accely,accelz,gyrox,gyroy,gyroz
582.2883,107.385254,77258853,0.77500004,0.09574468,0.0,0.0,-0.018021837,0.010170937,-0.027985573,0.0,0.0,0.0
582.2883,107.385254,77258884,0.85,0.08510638,0.02306146,0.004655928,-0.018021837,0.010170937,-0.027985573,0.0,0.0,0.0
582.2883,107.385254,77258901,0.875,0.08510638,0.024885852,0.0053720684,-0.018021837,0.010170937,-0.027985573,0.0,0.0,0.0
582.2883,107.385254,77258918,0.875,0.08510638,0.027442468,0.00550275,-0.018021837,0.010170937,-0.027985573,0.0,0.0,0.0
582.2883,107.385254,77258934,0.90000004,0.10638297,-0.024268033,-0.0041941716,-0.018021837,0.010170937,-0.027985573,0.0,0.0,0.0
582.2883,107.385254,77258951,0.9125,0.12765957,0.0341732,0.0064616124,-0.018021837,0.010170937,-0.027985573,0.0,0.0,0.0
582.2883,107.385254,77258968,0.90000004,0.12765957,-0.020245472,-0.0038515874,-0.018021837,0.010170937,-0.027985573,0.0,0.0,0.0
580.58984,130.47778,77258984,0.925,0.12765957,-47.559868,679.8915,-0.018021837,0.010170937,-0.027985573,0.0,0.0,0.0
579.7891,138.17712,77259001,0.925,0.10638297,-81.75393,999.1752,-0.018021837,0.010170937,-0.027985573,0.0,0.0,0.0
579.7891,145.59778,77259018,0.9375,0.08510638,-62.616955,909.86664,-0.018021837,0.010170937,-0.027985573,0.0,0.0,0.0
579.7891,153.8899,77259035,0.96250004,0.08510638,-8.901856,544.2002,-0.018021837,0.010170937,-0.027985573,0.0,0.0,0.0
579.7891,162.15247,77259051,0.95,0.10638297,33.38931,262.92404,-0.018021837,0.010170937,-0.027985573,0.0,0.0,0.0
579.7891,169.52844,77259068,0.975,0.10638297,23.41416,463.94736,-0.018021837,0.010170937,-0.027985573,0.0,0.0,0.0
579.7891,179.21606,77259085,0.96250004,0.12765957,5.551345,508.61856,-0.018021837,0.010170937,-0.027985573,0.0,0.0,0.0
579.7891,189.60437,77259101,0.95,0.10638297,0.017111605,592.3576,-0.018021837,0.010170937,-0.027985573,0.0,0.0,0.0
579.2893,200.66357,77259118,0.96250004,0.08510638,-14.675904,679.8868,-0.018021837,0.010170937,-0.027985573,0.0,0.0,0.0
579.8264,211.7378,77259135,0.975,0.09574468,-3.9437554,731.1015,-0.018021837,0.010170937,-0.027985573,0.0,0.0,0.0
580.3711,220.8092,77259152,0.95,0.10638297,22.688314,670.8398,-0.018021837,0.010170937,-0.027985573,0.0,0.0,0.0
580.7888,230.255,77259168,0.95,0.12765957,47.878395,564.5176,-0.018021837,0.010170937,-0.027985573,0.0,0.0,0.0
581.28864,241.54395,77259185,0.95,0.11702127,55.185143,567.37494,-0.018021837,0.010170937,-0.027985573,0.0,0.0,0.0
582.9834,252.5166,77259202,0.96250004,0.09574468,69.72879,609.28876,-0.018021837,0.010170937,-0.027985573,0.0,0.0,0.0
584.2588,264.9148,77259218,0.95,0.09574468,86.19792,747.59955,-0.018021837,0.010170937,-0.027985573,0.0,0.0,0.0
585.5662,276.0138,77259235,0.9375,0.11702127,105.18581,791.2202,-0.018021837,0.010170937,-0.027985573,0.0,0.0,0.0
587.10034,285.76416,77259252,0.90000004,0.12765957,108.063194,670.85364,0.017582528,-0.007863253,-0.0063877106,0.0,0.0,0.0
588.13824,300.4862,77259269,0.9125,0.11702127,82.2295,688.5341,0.017582528,-0.007863253,-0.0063877106,0.0,0.0,0.0
589.571,318.5249,77259285,0.9125,0.09574468,66.80158,898.31116,0.017582528,-0.007863253,-0.0063877106,0.0,0.0,0.0
590.72363,332.29504,77259302,0.9125,0.11702127,71.52531,1077.6448,0.017582528,-0.007863253,-0.0063877106,0.0,0.0,0.0
590.7855,344.34106,77259319,0.90000004,0.12765957,45.266598,995.2229,0.017582528,-0.007863253,-0.0063877106,0.0,0.0,0.0
590.7855,355.45215,77259335,0.95,0.09574468,-3.2917612,711.67596,0.017582528,-0.007863253,-0.0063877106,0.0,0.0,0.0
591.2854,365.7008,77259352,0.9375,0.09574468,-13.872379,514.51465,0.017582528,-0.007863253,-0.0063877106,0.0,0.0,0.0
592.3918,377.93018,77259369,0.9125,0.09574468,13.717557,546.96814,0.017582528,-0.007863253,-0.0063877106,0.0,0.0,0.0
593.4282,394.25696,77259386,0.875,0.12765957,63.114544,778.8557,0.017582528,-0.007863253,-0.0063877106,0.0,0.0,0.0
594.4841,429.9004,77259402,0.8625,0.09574468,87.33635,1478.0255,0.017582528,-0.007863253,-0.0063877106,0.0,0.0,0.0
591.40936,469.29187,77259419,0.8625,0.09574468,-13.766282,2414.1897,0.017582528,-0.007863253,-0.0063877106,0.0,0.0,0.0
586.4884,496.26062,77259436,0.875,0.11702127,-252.40974,2759.715,0.017582528,-0.007863253,-0.0063877106,0.0,0.0,0.0
582.4109,511.21838,77259452,0.90000004,0.10638297,-404.01822,1857.1765,0.017582528,-0.007863253,-0.0063877106,0.0,0.0,0.0
579.637,521.6594,77259469,0.95,0.08510638,-366.11682,563.734,0.017582528,-0.007863253,-0.0063877106,0.0,0.0,0.0
577.0454,530.2937,77259486,0.9375,0.08510638,-210.17006,-138.77155,0.017582528,-0.007863253,-0.0063877106,0.0,0.0,0.0
574.9696,537.6736,77259503,0.95,0.08510638,-82.45185,-89.268585,0.017582528,-0.007863253,-0.0063877106,0.0,0.0,0.0
573.33453,543.40955,77259519,0.95,0.09574468,-62.091496,147.15419,0.017582528,-0.007863253,-0.0063877106,0.0,0.0,0.0
571.7981,548.07166,77259536,0.9375,0.09574468,-62.531784,197.02325,0.017582528,-0.007863253,-0.0063877106,0.0,0.0,0.0
570.21564,550.8845,77259553,0.925,0.09574468,-66.032005,132.97243,0.017582528,-0.007863253,-0.0063877106,0.0,0.0,0.0
568.1346,552.666,77259569,0.925,0.10638297,-90.92519,56.393456,0.017582528,-0.007863253,-0.0063877106,0.0,0.0,0.0
564.2874,554.52747,77259586,0.9375,0.10638297,-167.84203,16.498348,0.017582528,-0.007863253,-0.0063877106,0.0,0.0,0.0
558.92535,556.3887,77259603,0.9125,0.10638297,-288.598,30.640017,0.017582528,-0.007863253,-0.0063877106,0.0,0.0,0.0
553.62665,558.20325,77259619,0.9125,0.12765957,-374.75638,67.04783,0.017582528,-0.007863253,-0.0063877106,0.0,0.0,0.0
546.8976,560.0559,77259636,0.8875,0.12765957,-440.0325,102.41648,0.017582528,-0.007863253,-0.0063877106,0.0,0.0,0.0
536.8893,562.76965,77259653,0.90000004,0.12765957,-549.3293,138.0042,0.017582528,-0.007863253,-0.0063877106,0.0,0.0,0.0
523.0121,564.6212,77259670,0.9125,0.10638297,-763.1731,143.5937,0.017582528,-0.007863253,-0.0063877106,0.0,0.0,0.0
509.16705,565.8529,77259686,0.90000004,0.10638297,-978.9145,117.64669,0.017582528,-0.007863253,-0.0063877106,0.0,0.0,0.0
498.77588,564.33545,77259703,0.90000004,0.12765957,-917.25415,-3.4900205,0.017582528,-0.007863253,-0.0063877106,0.0,0.0,0.0
488.93048,560.7634,77259720,0.875,0.12765957,-725.1546,-183.76173,0.017582528,-0.007863253,-0.0063877106,0.0,0.0,0.0
480.4917,554.45374,77259736,0.8875,0.11702127,-496.5499,-385.05667,0.017582528,-0.007863253,-0.0063877106,0.0,0.0,0.0
472.14178,545.2013,77259753,0.8625,0.08510638,-391.74707,-594.0313,0.017582528,-0.007863253,-0.0063877106,0.0,0.0,0.0
465.46167,534.1073,77259770,0.8875,0.10638297,-380.3277,-762.34827,0.017582528,-0.007863253,-0.0063877106,0.0,0.0,0.0
456.6197,514.4758,77259787,0.8875,0.09574468,-424.96243,-1087.7722,-0.001933977,0.009709403,-0.005109787,0.0,0.0,0.0
451.72247,493.03613,77259803,0.90000004,0.08510638,-378.4451,-1372.1066,-0.001933977,0.009709403,-0.005109787,0.0,0.0,0.0
450.61786,473.59106,77259820,0.90000004,0.10638297,-190.64291,-1513.8945,-0.001933977,0.009709403,-0.005109787,0.0,0.0,0.0
451.77533,453.50574,77259837,0.9125,0.09574468,61.35979,-1476.2621,-0.001933977,0.009709403,-0.005109787,0.0,0.0,0.0
454.36176,436.2771,77259853,0.90000004,0.08510638,299.6399,-1183.5231,-0.001933977,0.009709403,-0.005109787,0.0,0.0,0.0
457.734,422.25256,77259870,0.90000004,0.09574468,355.21243,-950.5314,-0.001933977,0.009709403,-0.005109787,0.0,0.0,0.0
461.65863,410.37097,77259887,0.8875,0.12765957,341.16934,-656.15704,-0.001933977,0.009709403,-0.005109787,0.0,0.0,0.0
466.05115,399.85388,77259904,0.8875,0.10638297,316.13412,-474.7686,-0.001933977,0.009709403,-0.005109787,0.0,0.0,0.0
472.61597,384.4989,77259920,0.9125,0.09574468,350.1098,-535.61725,-0.001933977,0.009709403,-0.005109787,0.0,0.0,0.0
479.6043,370.70422,77259937,0.8875,0.09574468,452.1111,-808.2373,-0.001933977,0.009709403,-0.005109787,0.0,0.0,0.0
486.84717,358.78845,77259954,0.90000004,0.12765957,503.87244,-862.5617,-0.001933977,0.009709403,-0.005109787,0.0,0.0,0.0
495.76147,345.77747,77259970,0.90000004,0.08510638,550.7425,-810.99493,-0.001933977,0.009709403,-0.005109787,0.0,0.0,0.0
504.69458,332.70105,77259987,0.90000004,0.08510638,570.107,-726.13916,-0.001933977,0.009709403,-0.005109787,0.0,0.0,0.0
513.41437,319.98926,77260004,0.90000004,0.10638297,579.31384,-724.1838,-0.001933977,0.009709403,-0.005109787,0.0,0.0,0.0
522.95123,305.59082,77260021,0.875,0.12765957,600.2078,-829.19574,-0.001933977,0.009709403,-0.005109787,0.0,0.0,0.0
532.4153,292.35486,77260037,0.90000004,0.09574468,595.4792,-844.5043,-0.001933977,0.009709403,-0.005109787,0.0,0.0,0.0
540.9094,278.67505,77260054,0.8875,0.08510638,566.93085,-853.37274,-0.001933977,0.009709403,-0.005109787,0.0,0.0,0.0
549.5186,266.13464,77260071,0.9125,0.08510638,520.93176,-812.07367,-0.001933977,0.009709403,-0.005109787,0.0,0.0,0.0
557.438,255.7124,77260087,0.90000004,0.10638297,474.1486,-693.1562,-0.001933977,0.009709403,-0.005109787,0.0,0.0,0.0
565.9994,245.49231,77260104,0.9125,0.12765957,452.4803,-562.14703,-0.001933977,0.009709403,-0.005109787,0.0,0.0,0.0
575.14087,235.66711,77260121,0.90000004,0.11702127,493.70612,-490.3876,-0.001933977,0.009709403,-0.005109787,0.0,0.0,0.0
583.6422,225.43262,77260138,0.90000004,0.09574468,525.7405,-510.0537,-0.001933977,0.009709403,-0.005109787,0.0,0.0,0.0
592.5504,215.15466,77260154,0.925,0.09574468,530.7748,-570.1536,-0.001933977,0.009709403,-0.005109787,0.0,0.0,0.0
600.60284,205.6532,77260171,0.925,0.10638297,507.90543,-586.7036,-0.001933977,0.009709403,-0.005109787,0.0,0.0,0.0
608.2353,196.54602,77260188,0.9125,0.12765957,478.54935,-575.78687,-0.001933977,0.009709403,-0.005109787,0.0,0.0,0.0
616.7075,187.32043,77260204,0.8875,0.10638297,474.62668,-550.98413,-0.001933977,0.009709403,-0.005109787,0.0,0.0,0.0
625.49536,177.9978,77260221,0.90000004,0.09574468,504.66055,-538.3317,-0.001933977,0.009709403,-0.005109787,0.0,0.0,0.0
631.74976,169.9679,77260238,0.8875,0.09574468,471.9818,-515.8529,-0.001933977,0.009709403,-0.005109787,0.0,0.0,0.0
638.287,162.7091,77260254,0.9125,0.09574468,401.01794,-458.56573,-0.001933977,0.009709403,-0.005109787,0.0,0.0,0.0
644.5302,156.24048,77260271,0.9125,0.09574468,328.4181,-378.32965,-0.001933977,0.009709403,-0.005109787,0.0,0.0,0.0
650.8495,149.5149,77260288,0.8875,0.10638297,314.49655,-343.8898,-0.001933977,0.009709403,-0.005109787,0.0,0.0,0.0
656.9797,144.06653,77260305,0.8875,0.12765957,348.83936,-312.05304,-0.001933977,0.009709403,-0.005109787,0.0,0.0,0.0
662.603,139.0686,77260321,0.8875,0.12765957,357.77884,-291.38986,-0.0015471801,-0.008232474,-0.004087448,0.0,0.0,0.0
667.2766,135.27295,77260338,0.9125,0.12765957,294.05627,-223.72696,-0.0015471801,-0.008232474,-0.004087448,0.0,0.0,0.0
671.1398,131.5166,77260355,0.9125,0.12765957,242.55524,-177.94164,-0.0015471801,-0.008232474,-0.004087448,0.0,0.0,0.0
675.771,127.81152,77260371,0.8875,0.10638297,212.74547,-173.41826,-0.0015471801,-0.008232474,-0.004087448,0.0,0.0,0.0
679.9346,125.07617,77260388,0.90000004,0.09574468,219.81166,-164.3821,-0.0015471801,-0.008232474,-0.004087448,0.0,0.0,0.0
682.4285,123.22473,77260405,0.8875,0.09574468,199.82303,-127.29575,-0.0015471801,-0.008232474,-0.004087448,0.0,0.0,0.0
683.89215,121.35803,77260422,0.90000004,0.09574468,117.27571,-79.344444,-0.0015471801,-0.008232474,-0.004087448,0.0,0.0,0.0
684.75494,119.50537,77260438,0.9125,0.09574468,34.558613,-61.218616,-0.0015471801,-0.008232474,-0.004087448,0.0,0.0,0.0
685.95404,117.69287,77260455,0.90000004,0.09574468,-19.178528,-74.05407,-0.0015471801,-0.008232474,-0.004087448,0.0,0.0,0.0
686.99426,115.84375,77260472,0.90000004,0.09574468,12.35551,-111.748276,-0.0015471801,-0.008232474,-0.004087448,0.0,0.0,0.0
687.53186,113.99963,77260488,0.90000004,0.09574468,31.763264,-111.861885,-0.0015471801,-0.008232474,-0.004087448,0.0,0.0,0.0
689.0721,112.15015,77260505,0.9125,0.09574468,58.062115,-110.31346,-0.0015471801,-0.008232474,-0.004087448,0.0,0.0,0.0
690.0944,111.82776,77260522,0.9125,0.09574468,73.91356,-71.1313,-0.0015471801,-0.008232474,-0.004087448,0.0,0.0,0.0
690.7032,111.82776,77260539,0.9125,0.09574468,63.666843,-5.7297435,-0.0015471801,-0.008232474,-0.004087448,0.0,0.0,0.0
690.753,111.82776,77260555,0.9375,0.09574468,28.685383,43.41397,-0.0015471801,-0.008232474,-0.004087448,0.0,0.0,0.0
690.753,111.82776,77260570,0.925,0.09574468,-5.2785273,53.72893,-0.0015471801,-0.008232474,-0.004087448,0.0,0.0,0.0
690.753,111.82776,77260588,0.9125,0.09574468,-33.22634,33.665405,-0.0015471801,-0.008232474,-0.004087448,0.0,0.0,0.0
690.753,111.82776,77260604,0.925,0.09574468,-24.160593,2.9946022,-0.0015471801,-0.008232474,-0.004087448,0.0,0.0,0.0
690.753,111.82776,77260622,0.9125,0.09574468,-6.710986,-0.002661192,-0.0015471801,-0.008232474,-0.004087448,0.0,0.0,0.0
690.753,111.82776,77260639,0.9375,0.09574468,0.009132829,0.0012113126,-0.0015471801,-0.008232474,-0.004087448,0.0,0.0,0.0
690.753,111.82776,77260650,0.925,0.09574468,-0.05665395,-0.0090894345,-0.0015471801,-0.008232474,-0.004087448,0.0,0.0,0.0
690.753,111.82776,77260672,0.9125,0.09574468,-0.021979269,-0.0036126508,-0.0015471801,-0.008232474,-0.004087448,0.0,0.0,0.0
690.753,111.82776,77260684,0.925,0.09574468,-0.0061342497,-6.154562E-4,-0.0015471801,-0.008232474,-0.004087448,0.0,0.0,0.0
690.753,111.82776,77260701,0.9375,0.09574468,0.013988339,0.0019781708,-0.0015471801,-0.008232474,-0.004087448,0.0,0.0,0.0
690.753,111.82776,77260722,0.925,0.09574468,0.043356296,0.007205898,-0.0015471801,-0.008232474,-0.004087448,0.0,0.0,0.0
690.753,111.82776,77260765,0.9375,0.09574468,0.0,0.0,-0.0015471801,-0.008232474,-0.004087448,0.0,0.0,0.0
690.753,111.82776,77260802,0.9375,0.09574468,0.04374538,0.007486899,-0.0015471801,-0.008232474,-0.004087448,0.0,0.0,0.0
690.753,111.82776,77260839,0.96250004,0.09574468,-0.001156954,-7.192662E-5,-0.0015471801,-0.008232474,-0.004087448,0.0,0.0,0.0
690.753,111.82776,77260856,0.925,0.09574468,0.001960732,1.878049E-4,-0.017237745,0.009414017,0.012729645,0.0,0.0,0.0
690.753,111.82776,77260889,0.95,0.09574468,0.0051988484,0.0010582244,-0.017237745,0.009414017,0.012729645,0.0,0.0,0.0
690.753,111.82776,77260910,0.9375,0.09574468,-0.003398738,-7.9872186E-4,-0.017237745,0.009414017,0.012729645,0.0,0.0,0.0
690.753,111.82776,77260940,0.95,0.09574468,0.004029333,0.0012136716,-0.017237745,0.009414017,0.012729645,0.0,0.0,0.0
690.753,111.82776,77260955,0.9375,0.09574468,0.0099457465,0.0015092932,-0.017237745,0.009414017,0.012729645,0.0,0.0,0.0
690.753,111.82776,77260973,0.95,0.09574468,-0.031422623,-0.0054096016,-0.017237745,0.009414017,0.012729645,0.0,0.0,0.0
691.2528,111.82776,77260990,0.95,0.09574468,19.777372,0.0030906799,-0.017237745,0.009414017,0.012729645,0.0,0.0,0.0
691.7622,111.82776,77261006,0.96250004,0.09574468,30.440535,-0.009719002,-0.017237745,0.009414017,0.012729645,0.0,0.0,0.0
691.7527,111.82776,77261023,0.95,0.09574468,23.889566,0.0028341475,-0.017237745,0.009414017,0.012729645,0.0,0.0,0.0
691.7527,111.82776,77261040,0.96250004,0.09574468,9.254,-0.0024534652,-0.017237745,0.009414017,0.012729645,0.0,0.0,0.0
691.7527,111.82776,77261057,0.96250004,0.09574468,-11.4183655,0.0012623243,-0.017237745,0.009414017,0.012729645,0.0,0.0,0.0
692.97375,113.10986,77261090,0.96250004,0.11702127,28.95797,31.030296,-0.017237745,0.009414017,0.012729645,0.0,0.0,0.0
693.2522,114.9375,77261107,0.95,0.11702127,48.45399,103.33676,-0.017237745,0.009414017,0.012729645,0.0,0.0,0.0
693.752,115.381836,77261123,0.95,0.11702127,36.484436,104.2581,-0.017237745,0.009414017,0.012729645,0.0,0.0,0.0
694.25183,116.87036,77261140,0.9375,0.11702127,28.112633,91.97139,-0.017237745,0.009414017,0.012729645,0.0,0.0,0.0
694.7517,118.68762,77261157,0.9375,0.11702127,25.7901,81.89652,-0.017237745,0.009414017,0.012729645,0.0,0.0,0.0
694.7517,119.82434,77261174,0.95,0.11702127,13.436029,93.820145,-0.017237745,0.009414017,0.012729645,0.0,0.0,0.0
694.7517,119.82434,77261188,0.925,0.12765957,4.0179935,65.80228,-0.017237745,0.009414017,0.012729645,0.0,0.0,0.0
696.2536,123.38684,77261207,0.9125,0.12765957,38.427708,96.321465,-0.017237745,0.009414017,0.012729645,0.0,0.0,0.0
697.83905,127.089355,77261224,0.90000004,0.12765957,78.974976,174.64719,-0.017237745,0.009414017,0.012729645,0.0,0.0,0.0
699.4117,131.8053,77261240,0.9375,0.12765957,119.23216,288.57053,-0.017237745,0.009414017,0.012729645,0.0,0.0,0.0
700.9818,136.43616,77261257,0.96250004,0.11702127,128.42043,355.47714,-0.017237745,0.009414017,0.012729645,0.0,0.0,0.0
701.9239,142.07886,77261274,0.925,0.09574468,98.80788,374.0794,-0.017237745,0.009414017,0.012729645,0.0,0.0,0.0
703.144,149.12292,77261291,0.9125,0.09574468,65.9182,403.52325,-0.017237745,0.009414017,0.012729645,0.0,0.0,0.0
705.22656,158.80286,77261307,0.9125,0.09574468,84.15039,542.17523,-0.017237745,0.009414017,0.012729645,0.0,0.0,0.0
707.297,167.09058,77261324,0.925,0.10638297,122.03027,632.1383,-0.017237745,0.009414017,0.012729645,0.0,0.0,0.0
709.0643,175.0647,77261341,0.90000004,0.12765957,143.27295,591.3817,-0.017237745,0.009414017,0.012729645,0.0,0.0,0.0
710.10455,183.42224,77261357,0.9125,0.12765957,107.00028,515.7849,-0.017237745,0.009414017,0.012729645,0.0,0.0,0.0
711.1275,190.94812,77261374,0.9125,0.10638297,51.213867,436.8885,-0.017237745,0.009414017,0.012729645,0.0,0.0,0.0
711.74615,199.8822,77261391,0.925,0.08510638,24.59942,467.27054,0.002209805,0.007531211,0.026184082,0.0,0.0,0.0
712.2231,209.35962,77261407,0.9375,0.08510638,5.675304,543.0659,0.002209805,0.007531211,0.026184082,0.0,0.0,0.0
712.74585,217.70825,77261424,0.9375,0.10638297,15.346109,561.351,0.002209805,0.007531211,0.026184082,0.0,0.0,0.0
712.74585,225.11548,77261441,0.925,0.12765957,3.327742,514.5642,0.002209805,0.007531211,0.026184082,0.0,0.0,0.0
712.74585,230.51404,77261458,0.95,0.12765957,-8.434696,388.4301,0.002209805,0.007531211,0.026184082,3.355443E-6,0.0,0.0
712.0976,238.16162,77261474,0.95,0.12765957,-27.252483,328.16296,0.002209805,0.007531211,0.026184082,3.355443E-6,0.0,0.0
710.2996,244.9148,77261491,0.96250004,0.11702127,-81.50908,336.50983,0.002209805,0.007531211,0.026184082,3.355443E-6,0.0,0.0
709.02985,252.36401,77261508,0.95,0.09574468,-116.462326,409.49164,0.002209805,0.007531211,0.026184082,3.355443E-6,0.0,0.0
707.7378,260.2423,77261524,0.9375,0.09574468,-124.764305,499.79007,0.002209805,0.007531211,0.026184082,0.0,0.0,0.0
706.4486,267.6659,77261541,0.925,0.09574468,-105.02918,492.8335,0.002209805,0.007531211,0.026184082,0.0,0.0,0.0
705.41046,274.4475,77261558,0.9125,0.11702127,-67.01565,456.89758,0.002209805,0.007531211,0.026184082,0.0,0.0,0.0
704.37744,279.95618,77261575,0.925,0.11702127,-51.799763,349.85034,0.002209805,0.007531211,0.026184082,0.0,0.0,0.0
702.9346,286.2035,77261591,0.9125,0.12765957,-56.857525,296.58127,0.002209805,0.007531211,0.026184082,0.0,0.0,0.0
700.8462,293.62817,77261608,0.90000004,0.12765957,-94.147316,348.80118,0.002209805,0.007531211,0.026184082,0.0,0.0,0.0
698.7507,301.96594,77261625,0.925,0.11702127,-139.7626,447.8798,0.002209805,0.007531211,0.026184082,0.0,0.0,0.0
697.71045,309.36182,77261641,0.9375,0.09574468,-123.65824,520.0838,0.002209805,0.007531211,0.026184082,0.0,0.0,0.0
696.162,317.4685,77261658,0.925,0.09574468,-92.26538,518.98846,0.002209805,0.007531211,0.026184082,0.0,0.0,0.0
694.63525,325.89685,77261675,0.9125,0.11702127,-76.10963,515.669,0.002209805,0.007531211,0.026184082,0.0,0.0,0.0
692.4492,333.25415,77261692,0.90000004,0.12765957,-96.39107,485.7638,0.002209805,0.007531211,0.026184082,0.0,0.0,0.0
690.36115,340.6776,77261708,0.9125,0.12765957,-129.82495,457.09427,0.002209805,0.007531211,0.026184082,0.0,0.0,0.0
688.2796,347.65662,77261725,0.9125,0.12765957,-141.45233,415.63022,0.002209805,0.007531211,0.026184082,0.0,0.0,0.0
685.43134,353.67456,77261742,0.9125,0.10638297,-152.13174,351.078,0.002209805,0.007531211,0.026184082,0.0,0.0,0.0
683.2646,359.25146,77261758,0.9375,0.08510638,-159.3685,324.9182,0.002209805,0.007531211,0.026184082,0.0,0.0,0.0
680.2178,366.62366,77261775,0.925,0.08510638,-169.94347,338.56073,0.002209805,0.007531211,0.026184082,0.0,0.0,0.0
676.615,374.86633,77261792,0.9375,0.08510638,-202.67126,431.3027,0.002209805,0.007531211,0.026184082,0.0,0.0,0.0
673.068,382.27173,77261809,0.9375,0.09574468,-223.17197,500.9983,0.002209805,0.007531211,0.026184082,0.0,0.0,0.0
669.832,388.02405,77261825,0.9125,0.09574468,-236.1372,469.52618,0.002209805,0.007531211,0.026184082,0.0,0.0,0.0
666.2125,392.65222,77261842,0.925,0.12765957,-229.58037,330.7015,0.002209805,0.007531211,0.026184082,0.0,0.0,0.0
663.1235,398.17188,77261859,0.9375,0.12765957,-200.8217,247.04956,0.002209805,0.007531211,0.026184082,0.0,0.0,0.0
659.468,404.84473,77261875,0.9125,0.10638297,-201.13568,278.96222,0.002209805,0.007531211,0.026184082,0.0,0.0,0.0
655.85333,411.0952,77261892,0.9375,0.08510638,-210.65494,365.91214,0.002209805,0.007531211,0.026184082,0.0,0.0,0.0
652.7475,418.69995,77261909,0.925,0.09574468,-205.71407,451.9319,0.002209805,0.007531211,0.026184082,0.0,0.0,0.0
649.143,425.1698,77261926,0.925,0.09574468,-204.66858,458.90787,0.017767843,0.0060249716,0.036946297,0.0,0.0,0.0
646.00385,431.26904,77261942,0.925,0.09574468,-191.1666,404.5611,0.017767843,0.0060249716,0.036946297,0.0,0.0,0.0
643.1797,436.28918,77261959,0.9375,0.11702127,-181.3743,331.52905,0.017767843,0.0060249716,0.036946297,0.0,0.0,0.0
640.8037,440.51282,77261976,0.9375,0.11702127,-148.85725,241.11401,0.017767843,0.0060249716,0.036946297,0.0,0.0,0.0
637.8426,444.25354,77261992,0.9125,0.12765957,-130.70326,177.30194,0.017767843,0.0060249716,0.036946297,0.0,0.0,0.0
634.8115,448.49878,77262009,0.925,0.12765957,-150.59938,160.92255,0.017767843,0.0060249716,0.036946297,0.0,0.0,0.0
631.00024,454.38525,77262026,0.925,0.10638297,-200.39058,249.77829,0.017767843,0.0060249716,0.036946297,0.0,0.0,0.0
627.7894,459.20422,77262042,0.9125,0.10638297,-237.96738,334.40573,0.017767843,0.0060249716,0.036946297,0.0,0.0,0.0
625.20856,462.90332,77262059,0.9375,0.09574468,-205.544,313.67386,0.017767843,0.0060249716,0.036946297,0.0,0.0,0.0
623.12317,465.5869,77262076,0.95,0.09574468,-146.87996,226.69632,0.017767843,0.0060249716,0.036946297,0.0,0.0,0.0
621.027,469.44812,77262093,0.925,0.08510638,-99.684395,154.15836,0.017767843,0.0060249716,0.036946297,0.0,0.0,0.0
618.92,473.19336,77262109,0.9375,0.08510638,-88.39948,161.3759,0.017767843,0.0060249716,0.036946297,0.0,0.0,0.0
616.4046,477.66467,77262126,0.9375,0.08510638,-116.51039,226.95737,0.017767843,0.0060249716,0.036946297,0.0,0.0,0.0
614.31256,482.27197,77262143,0.9375,0.08510638,-144.98611,300.39822,0.017767843,0.0060249716,0.036946297,0.0,0.0,0.0
613.0319,485.437,77262159,0.925,0.08510638,-116.17606,275.6981,0.017767843,0.0060249716,0.036946297,0.0,0.0,0.0
611.97565,487.31458,77262176,0.95,0.08510638,-64.98295,170.22917,0.017767843,0.0060249716,0.036946297,0.0,0.0,0.0
611.7787,488.5531,77262193,0.9375,0.08510638,-7.240158,57.86882,0.017767843,0.0060249716,0.036946297,0.0,0.0,0.0
611.7787,489.22314,77262210,0.96250004,0.08510638,32.048794,-29.275013,0.017767843,0.0060249716,0.036946297,0.0,0.0,0.0
611.7787,489.886,77262215,0.9375,0.08510638,36.47557,-24.684454,0.017767843,0.0060249716,0.036946297,0.0,0.0,0.0
611.7787,489.44165,77262243,0.95,0.08510638,26.738222,-34.815617,0.017767843,0.0060249716,0.036946297,0.0,0.0,0.0
612.2861,489.44165,77262260,0.9375,0.08510638,27.635307,-35.555195,0.017767843,0.0060249716,0.036946297,0.0,0.0,0.0
613.32904,487.57422,77262276,0.9375,0.08510638,48.20471,-78.09842,0.017767843,0.0060249716,0.036946297,0.0,0.0,0.0
615.4678,486.77612,77262293,0.96250004,0.08510638,110.932236,-106.87129,0.017767843,0.0060249716,0.036946297,0.0,0.0,0.0
617.57074,484.73804,77262310,0.96250004,0.08510638,154.12991,-119.02302,0.017767843,0.0060249716,0.036946297,0.0,0.0,0.0
619.54114,483.87512,77262327,0.95,0.08510638,163.4936,-97.26011,0.017767843,0.0060249716,0.036946297,0.0,0.0,0.0
621.66547,483.22217,77262343,0.96250004,0.08510638,154.88289,-64.498764,0.017767843,0.0060249716,0.036946297,0.0,0.0,0.0
623.989,481.91052,77262360,0.975,0.08510638,135.06937,-51.058517,0.017767843,0.0060249716,0.036946297,0.0,0.0,0.0
626.2741,481.00073,77262377,0.975,0.08510638,142.59564,-57.944065,0.017767843,0.0060249716,0.036946297,0.0,0.0,0.0
628.7678,479.6681,77262393,0.9875,0.08510638,149.69846,-78.96141,0.017767843,0.0060249716,0.036946297,0.0,0.0,0.0
631.2242,478.21582,77262410,0.975,0.09574468,147.79613,-79.85942,0.017767843,0.0060249716,0.036946297,0.0,0.0,0.0
634.84204,476.3048,77262427,0.975,0.09574468,175.91423,-98.79405,0.017767843,0.0060249716,0.036946297,0.0,0.0,0.0
639.02625,474.4453,77262444,0.975,0.09574468,235.20544,-119.382225,0.017767843,0.0060249716,0.036946297,0.0,0.0,0.0
645.2291,472.57153,77262460,0.9375,0.11702127,333.21683,-132.4642,-0.0017857254,0.0048199743,-0.0024433136,0.0,0.0,0.0
651.9781,469.83167,77262477,0.95,0.10638297,444.17297,-155.79865,-0.0017857254,0.0048199743,-0.0024433136,0.0,0.0,0.0
658.71106,467.00183,77262494,0.95,0.09574468,485.04172,-167.76933,-0.0017857254,0.0048199743,-0.0024433136,0.0,0.0,0.0
666.0327,464.17175,77262510,0.9375,0.10638297,492.49683,-186.2069,-0.0017857254,0.0048199743,-0.0024433136,0.0,0.0,0.0
674.70605,460.43774,77262527,0.95,0.12765957,504.38272,-217.6947,-0.0017857254,0.0048199743,-0.0024433136,0.0,0.0,0.0
683.9508,456.45117,77262544,0.9375,0.12765957,552.25836,-243.87772,-0.0017857254,0.0048199743,-0.0024433136,0.0,0.0,0.0
693.54645,451.01257,77262560,0.9375,0.11702127,623.93884,-318.32278,-0.0017857254,0.0048199743,-0.0024433136,0.0,0.0,0.0
704.2945,444.2599,77262577,0.9125,0.08510638,665.4964,-394.81152,-0.0017857254,0.0048199743,-0.0024433136,0.0,0.0,0.0
717.33844,433.62476,77262594,0.925,0.08510638,734.9427,-551.74207,-0.0017857254,0.0048199743,-0.0024433136,0.0,0.0,0.0
731.10077,421.1505,77262611,0.925,0.10638297,845.2426,-780.55334,-0.0017857254,0.0048199743,-0.0024433136,0.0,0.0,0.0
743.30676,409.0846,77262627,0.925,0.12765957,871.7712,-892.2445,-0.0017857254,0.0048199743,-0.0024433136,0.0,0.0,0.0
754.6938,397.323,77262644,0.9125,0.11702127,774.08417,-854.1278,-0.0017857254,0.0048199743,-0.0024433136,0.0,0.0,0.0
768.40295,382.3037,77262661,0.9125,0.08510638,735.30585,-848.5735,-0.0017857254,0.0048199743,-0.0024433136,0.0,0.0,0.0
785.4839,365.6781,77262677,0.8875,0.12765957,883.67053,-961.8227,-0.0017857254,0.0048199743,-0.0024433136,0.0,0.0,0.0
801.996,345.44067,77262694,0.9125,0.09574468,1058.9623,-1191.5786,-0.0017857254,0.0048199743,-0.0024433136,0.0,0.0,0.0
819.7109,323.29175,77262711,0.9125,0.08510638,1156.4767,-1403.2694,-0.0017857254,0.0048199743,-0.0024433136,0.0,0.0,0.0
834.5265,305.94763,77262728,0.8875,0.12765957,1083.0304,-1360.8986,-0.0017857254,0.0048199743,-0.0024433136,0.0,0.0,0.0
849.0599,291.06848,77262744,0.8875,0.09574468,918.5731,-1111.462,-0.0017857254,0.0048199743,-0.0024433136,0.0,0.0,0.0
858.58954,282.5171,77262761,0.8875,0.09574468,694.046,-699.31696,-0.0017857254,0.0048199743,-0.0024433136,0.0,0.0,0.0
870.24225,272.6106,77262778,0.8875,0.08510638,536.1447,-359.38828,-0.0017857254,0.0048199743,-0.0024433136,0.0,0.0,0.0
886.2835,261.5111,77262794,0.85,0.08510638,669.4375,-397.23788,-0.0017857254,0.0048199743,-0.0024433136,0.0,0.0,0.0
903.33813,251.92297,77262811,0.85,0.11702127,972.24976,-507.77194,-0.0017857254,0.0048199743,-0.0024433136,0.0,0.0,0.0
918.76,243.41199,77262828,0.8625,0.12765957,1118.4429,-550.3182,-0.0017857254,0.0048199743,-0.0024433136,0.0,0.0,0.0
930.2782,238.31396,77262845,0.8625,0.12765957,970.20245,-409.23593,-0.0017857254,0.0048199743,-0.0024433136,0.0,0.0,0.0
939.7287,235.41724,77262861,0.8875,0.12765957,637.7038,-179.89172,-0.0017857254,0.0048199743,-0.0024433136,0.0,0.0,0.0
946.6096,235.32971,77262878,0.875,0.12765957,346.90244,43.209915,-0.0017857254,0.0048199743,-0.0024433136,0.0,0.0,0.0
951.861,236.30408,77262895,0.8875,0.12765957,196.58244,178.89046,-0.0017857254,0.0048199743,-0.0024433136,0.0,0.0,0.0
956.4568,240.03015,77262911,0.875,0.12765957,136.19075,297.32812,-0.0017857254,0.0048199743,-0.0024433136,0.0,0.0,0.0
958.90234,243.74695,77262928,0.875,0.11702127,95.23406,350.17648,-0.0017857254,0.0048199743,-0.0024433136,0.0,0.0,0.0
964.5414,258.26013,77262945,0.8875,0.09574468,140.56874,623.8282,-0.0017857254,0.0048199743,-0.0024433136,0.0,0.0,0.0
965.66345,280.42493,77262962,0.8875,0.12765957,140.73695,1148.5107,-0.0017857254,0.0048199743,-0.0024433136,0.0,0.0,0.0
964.78174,302.82703,77262978,0.8875,0.09574468,12.999991,1698.1371,-0.0017857254,0.0048199743,-0.0024433136,0.0,0.0,0.0
962.7145,322.93616,77262995,0.9125,0.08510638,-153.08627,1781.2898,-0.001428578,0.027855977,-0.017953873,0.0,0.0,0.0
961.6648,332.93005,77263012,0.925,0.12765957,-245.08675,1179.758,-0.001428578,0.027855977,-0.017953873,0.0,0.0,0.0
961.9199,341.0984,77263028,0.925,0.12765957,-137.04088,445.28964,-0.001428578,0.027855977,-0.017953873,0.0,0.0,0.0
963.2571,347.08423,77263045,0.9125,0.12765957,37.883514,40.26605,-0.001428578,0.027855977,-0.017953873,0.0,0.0,0.0
967.353,351.1068,77263062,0.90000004,0.11702127,194.02695,-44.599113,-0.001428578,0.027855977,-0.017953873,0.0,0.0,0.0
994.119,356.6869,77263079,0.8875,0.10638297,769.4872,90.764275,-0.001428578,0.027855977,-0.017953873,0.0,0.0,0.0
1030.189,348.86926,77263095,0.875,0.12765957,2033.5029,-114.675575,-0.001428578,0.027855977,-0.017953873,0.0,0.0,0.0
1064.853,328.52722,77263112,0.875,0.09574468,2741.9297,-829.66473,-0.001428578,0.027855977,-0.017953873,0.0,0.0,0.0
1092.2207,310.40918,77263129,0.8625,0.10638297,2803.4084,-1520.2336,-0.001428578,0.027855977,-0.017953873,0.0,0.0,0.0
1116.6484,297.68457,77263145,0.85,0.12765957,2124.9092,-1631.0037,-0.001428578,0.027855977,-0.017953873,0.0,0.0,0.0
1126.8677,295.49976,77263162,0.8125,0.12765957,1023.19745,-946.6371,-0.001428578,0.027855977,-0.017953873,0.0,0.0,0.0
1132.6903,298.21362,77263179,0.83750004,0.11702127,252.79434,27.548227,-0.001428578,0.027855977,-0.017953873,0.0,0.0,0.0
1136.8744,308.92712,77263195,0.85,0.09574468,-297.32422,888.1875,-0.001428578,0.027855977,-0.017953873,0.0,0.0,0.0
1139.3091,327.7716,77263212,0.90000004,0.11702127,-277.26343,1331.9797,-0.001428578,0.027855977,-0.017953873,0.0,0.0,0.0
1139.6068,349.2478,77263229,0.875,0.11702127,-157.85185,1652.0303,-0.001428578,0.027855977,-0.017953873,0.0,0.0,0.0
1141.7188,371.4121,77263246,0.8875,0.09574468,-75.601654,1804.5797,-0.001428578,0.027855977,-0.017953873,0.0,0.0,0.0
1145.6295,386.08118,77263262,0.8875,0.11702127,57.028748,1476.3049,-0.001428578,0.027855977,-0.017953873,0.0,0.0,0.0
1152.1757,394.27173,77263279,0.875,0.12765957,258.34668,769.0958,-0.001428578,0.027855977,-0.017953873,0.0,0.0,0.0
1179.669,409.8435,77263296,0.85,0.10638297,932.75806,487.02713,-0.001428578,0.027855977,-0.017953873,0.0,0.0,0.0
1223.9624,408.53003,77263312,0.8,0.12765957,2355.5037,172.56529,-0.001428578,0.027855977,-0.017953873,0.0,0.0,0.0
1263.8158,389.7185,77263329,0.8125,0.08510638,3239.8547,-649.6418,-0.001428578,0.027855977,-0.017953873,0.0,0.0,0.0
1287.978,376.63745,77263346,0.83750004,0.09574468,2994.9502,-1329.0737,-0.001428578,0.027855977,-0.017953873,0.0,0.0,0.0
1296.735,375.71326,77263363,0.8625,0.09574468,1569.2736,-1249.5475,-0.001428578,0.027855977,-0.017953873,0.0,0.0,0.0
1298.2745,377.68518,77263379,0.8875,0.09574468,-40.586903,-445.15994,-0.001428578,0.027855977,-0.017953873,0.0,0.0,0.0
1300.6716,384.75098,77263396,0.8875,0.11702127,-717.5005,508.88376,-0.001428578,0.027855977,-0.017953873,0.0,0.0,0.0
1301.9951,395.0509,77263413,0.8625,0.12765957,-535.2566,960.9694,-0.001428578,0.027855977,-0.017953873,0.0,0.0,0.0
1308.5304,402.55725,77263429,0.825,0.12765957,-58.88036,768.68207,-0.001428578,0.027855977,-0.017953873,0.0,0.0,0.0
1364.2733,419.54456,77263446,0.675,0.09574468,1624.3254,987.4437,-0.001428578,0.027855977,-0.017953873,0.0,0.0,0.0
1378.0293,418.36133,77263449,0.3,0.09574468,2063.58,954.45013,-0.001428578,0.027855977,-0.017953873,0.0,0.0,0.0
1378.0293,418.36133,77263460,0.3,0.09574468,2063.58,954.45013,-0.001428578,0.027855977,-0.017953873,0.0,0.0,0.0
