x,y,timestamp,pressure,fingerarea,velocityx,velocityy,accelx,accely,accelz,gyrox,gyroy,gyroz
332.8695,79.841675,16896557,0.975,0.10638297,0.0,0.0,-0.3192845,0.098737955,-0.10464382,0.0,-7.5029975E-6,0.0
332.8695,79.841675,16896583,0.9875,0.10638297,0.0043208837,2.7983636E-4,-0.3192845,0.098737955,-0.10464382,0.0,-7.5029975E-6,0.0
332.8695,79.841675,16896600,0.95,0.10638297,0.018283073,0.0043953583,-0.3192845,0.098737955,-0.10464382,7.768393E-5,-4.272616E-4,0.0
332.8695,79.841675,16896617,0.875,0.10638297,-0.007852232,-0.001796321,-0.3192845,0.098737955,-0.10464382,7.768393E-5,-4.272616E-4,0.0
340.43338,112.0636,16896633,0.8125,0.053191487,261.71442,1155.9515,-0.3192845,0.098737955,-0.10464382,7.768393E-5,-4.272616E-4,0.0
352.3514,161.37695,16896650,0.8125,0.07446808,627.34827,2644.1138,-0.3192845,0.098737955,-0.10464382,7.768393E-5,-4.272616E-4,0.0
359.43945,207.3966,16896667,0.8,0.07446808,779.4081,3710.7168,-0.3192845,0.098737955,-0.10464382,-0.0012131834,5.459325E-4,0.0
364.0895,260.81482,16896683,0.8125,0.07446808,628.0021,4080.977,-0.3192845,0.098737955,-0.10464382,-0.0012131834,5.459325E-4,0.0
362.03238,318.72742,16896700,0.825,0.07446808,162.9263,3924.317,-0.3192845,0.098737955,-0.10464382,-0.0012131834,5.459325E-4,0.0
357.676,363.23083,16896717,0.825,0.08510638,-344.40198,3367.3696,-0.3192845,0.098737955,-0.10464382,-0.0012131834,5.459325E-4,0.0
349.7204,407.4912,16896734,0.825,0.09574468,-626.8937,3052.6672,-0.3192845,0.098737955,-0.10464382,-0.0014235819,-7.11791E-5,0.0
337.1712,451.29675,16896750,0.83750004,0.10638297,-860.1598,2655.3232,-0.3192845,0.098737955,-0.10464382,-0.0014235819,-7.11791E-5,0.0
321.65598,490.27832,16896767,0.8,0.09574468,-1092.0662,2326.861,-0.3192845,0.098737955,-0.10464382,-0.0014235819,-7.11791E-5,0.0
304.8936,514.8085,16896784,0.83750004,0.07446808,-1195.2593,1717.2971,-0.3192845,0.098737955,-0.10464382,-0.0014235819,-7.11791E-5,0.0
281.8757,538.92236,16896800,0.85,0.08510638,-1389.5314,1154.5771,-0.3192845,0.098737955,-0.10464382,4.0210923E-4,3.2899843E-4,0.0
259.48474,550.8694,16896817,0.83750004,0.10638297,-1547.0322,567.55676,-0.3192845,0.098737955,-0.10464382,4.0210923E-4,3.2899843E-4,0.0
241.39288,550.21375,16896834,0.875,0.07446808,-1460.6814,-122.65188,-0.3192845,0.098737955,-0.10464382,4.0210923E-4,3.2899843E-4,0.0
225.8443,539.2002,16896851,0.8625,0.08510638,-1151.4729,-758.41907,-0.3192845,0.098737955,-0.10464382,4.0210923E-4,3.2899843E-4,0.0
207.84146,502.92578,16896867,0.85,0.12765957,-847.8341,-1938.3705,-0.3192845,0.098737955,-0.10464382,-4.7214783E-4,0.0013377523,0.0
203.95377,447.44275,16896884,0.85,0.08510638,-526.46246,-3516.1895,-0.3192845,0.098737955,-0.10464382,-4.7214783E-4,0.0013377523,0.0
217.4089,386.59143,16896901,0.85,0.07446808,304.56076,-4591.4526,-0.3192845,0.098737955,-0.10464382,-4.7214783E-4,0.0013377523,0.0
239.53159,344.56287,16896917,0.85,0.07446808,1424.2505,-4472.7393,-0.3192845,0.098737955,-0.10464382,-4.7214783E-4,0.0013377523,0.0
280.02798,290.39893,16896934,0.83750004,0.08510638,2601.1682,-3694.0674,-0.3192845,0.098737955,-0.10464382,0.0029739498,-7.4348744E-4,0.0
327.5716,241.07922,16896951,0.85,0.12765957,3458.4038,-2922.7942,-0.3192845,0.098737955,-0.10464382,0.0029739498,-7.4348744E-4,0.0
384.35657,190.26404,16896967,0.875,0.12765957,3954.1526,-2775.5537,-0.3192845,0.098737955,-0.10464382,0.0029739498,-7.4348744E-4,0.0
435.3744,145.78455,16896984,0.825,0.08510638,3985.0586,-2937.717,-0.3192845,0.098737955,-0.10464382,0.0029739498,-7.4348744E-4,0.0
473.29706,109.992676,16897001,0.8125,0.08510638,3285.1433,-2499.1,-0.23942763,-0.08900952,-0.40371418,0.0,1.5398455E-4,0.0
501.37756,79.507935,16897018,0.8125,0.10638297,2047.31,-1776.1941,-0.23942763,-0.08900952,-0.40371418,0.0,1.5398455E-4,0.0
519.9507,55.607666,16897034,0.7875,0.07446808,917.9255,-1231.144,-0.23942763,-0.08900952,-0.40371418,0.0,1.5398455E-4,0.0
531.6064,39.901245,16897051,0.8,0.12765957,216.601,-771.9087,-0.23942763,-0.08900952,-0.40371418,0.0,1.5398455E-4,0.0
536.08344,33.044067,16897068,0.8,0.12765957,-148.23068,-301.62073,-0.23942763,-0.08900952,-0.40371418,8.558183E-4,4.5643642E-4,0.0
536.8031,30.097534,16897084,0.8,0.12765957,-365.15378,150.33061,-0.23942763,-0.08900952,-0.40371418,8.558183E-4,4.5643642E-4,0.0
536.8031,28.247925,16897101,0.875,0.12765957,-418.85968,360.31076,-0.23942763,-0.08900952,-0.40371418,8.558183E-4,4.5643642E-4,0.0
535.7291,29.32898,16897118,0.8625,0.11702127,-361.83917,358.9427,-0.23942763,-0.08900952,-0.40371418,8.558183E-4,4.5643642E-4,0.0
526.47815,51.199463,16897135,0.8125,0.08510638,-452.99255,797.2744,-0.23942763,-0.08900952,-0.40371418,2.992922E-4,6.4846646E-4,0.0
504.6032,105.85144,16897151,0.8125,0.06382979,-1006.4935,2384.4329,-0.23942763,-0.08900952,-0.40371418,2.992922E-4,6.4846646E-4,0.0
487.73358,159.85071,16897168,0.7875,0.08510638,-1434.6006,3909.7595,-0.23942763,-0.08900952,-0.40371418,2.992922E-4,6.4846646E-4,0.0
471.31653,212.91968,16897185,0.8,0.07446808,-1513.2362,4656.1475,-0.23942763,-0.08900952,-0.40371418,2.992922E-4,6.4846646E-4,0.0
455.85217,265.458,16897201,0.77500004,0.053191487,-1161.3911,4051.7227,-0.23942763,-0.08900952,-0.40371418,-0.0010166449,-1.0166449E-4,0.0
441.4705,322.60876,16897218,0.7875,0.06382979,-821.1525,3443.7266,-0.23942763,-0.08900952,-0.40371418,-0.0010166449,-1.0166449E-4,0.0
426.83612,372.37268,16897235,0.7875,0.09574468,-801.40106,3237.5605,-0.23942763,-0.08900952,-0.40371418,-0.0010166449,-1.0166449E-4,0.0
415.39612,419.33105,16897252,0.7625,0.10638297,-728.3567,2888.4277,-0.23942763,-0.08900952,-0.40371418,-0.0010166449,-1.0166449E-4,0.0
405.6413,456.78906,16897268,0.75,0.10638297,-589.05145,2443.757,-0.23942763,-0.08900952,-0.40371418,2.2658437E-4,7.363992E-4,0.0
399.47336,478.33362,16897285,0.75,0.053191487,-408.2493,1601.4178,-0.23942763,-0.08900952,-0.40371418,2.2658437E-4,7.363992E-4,0.0
397.84595,486.78906,16897302,0.8625,0.07446808,-116.7356,511.18506,-0.23942763,-0.08900952,-0.40371418,2.2658437E-4,7.363992E-4,0.0
397.84836,489.5653,16897318,0.9375,0.08510638,128.01794,-369.8552,-0.23942763,-0.08900952,-0.40371418,2.2658437E-4,7.363992E-4,0.0
399.0281,487.3446,16897335,0.875,0.06382979,256.61975,-850.9281,-0.23942763,-0.08900952,-0.40371418,-2.387437E-5,-1.1937184E-4,0.0
411.52023,470.177,16897352,0.83750004,0.12765957,566.32825,-1167.6277,-0.23942763,-0.08900952,-0.40371418,-2.387437E-5,-1.1937184E-4,0.0
433.65594,441.3651,16897369,0.825,0.06382979,1144.1481,-1768.1045,-0.23942763,-0.08900952,-0.40371418,-2.387437E-5,-1.1937184E-4,0.0
452.26434,421.80054,16897385,0.83750004,0.09574468,1592.8773,-2097.0771,-0.23942763,-0.08900952,-0.40371418,-2.387437E-5,-1.1937184E-4,0.0
462.76605,413.06653,16897402,0.825,0.12765957,1407.8479,-1501.5919,-0.23942763,-0.08900952,-0.40371418,-0.0017517445,-0.001382956,0.0
466.8285,411.25342,16897419,0.8625,0.12765957,595.4777,-365.01337,-0.23942763,-0.08900952,-0.40371418,-0.0017517445,-0.001382956,0.0
467.82556,412.37024,16897435,0.875,0.10638297,-151.81287,502.37775,-0.23942763,-0.08900952,-0.40371418,-0.0017517445,-0.001382956,0.0
459.888,432.75305,16897452,0.8125,0.06382979,-574.0324,1072.0951,-0.23942763,-0.08900952,-0.40371418,-0.0017517445,-0.001382956,0.0
442.4972,465.79395,16897469,0.7875,0.09574468,-1063.3278,1959.5917,-0.23942763,-0.08900952,-0.40371418,1.752593E-4,0.0,0.0
431.72366,485.06982,16897486,0.8,0.08510638,-1269.3433,2304.9363,-0.23942763,-0.08900952,-0.40371418,1.752593E-4,0.0,0.0
428.36105,494.65198,16897502,0.825,0.11702127,-997.3495,1818.761,-0.23942763,-0.08900952,-0.40371418,1.752593E-4,0.0,0.0
428.3384,496.54968,16897519,0.8625,0.10638297,-225.5449,471.50613,-0.23942763,-0.08900952,-0.40371418,1.752593E-4,0.0,0.0
455.84174,494.50452,16897536,0.83750004,0.08510638,1003.81104,-511.49835,-0.5195421,0.56879234,-0.018971443,-8.417212E-4,-1.4028687E-4,0.0
503.80225,478.00647,16897552,0.825,0.08510638,2622.4326,-1098.9879,-0.5195421,0.56879234,-0.018971443,-8.417212E-4,-1.4028687E-4,0.0
542.4568,465.31128,16897569,0.8125,0.12765957,3484.6204,-1317.2793,-0.5195421,0.56879234,-0.018971443,-8.417212E-4,-1.4028687E-4,0.0
566.9524,460.28955,16897586,0.8125,0.10638297,3211.34,-1103.3624,-0.5195421,0.56879234,-0.018971443,-8.417212E-4,-1.4028687E-4,0.0
579.13965,461.38928,16897602,0.825,0.12765957,1879.5527,-493.8623,-0.5195421,0.56879234,-0.018971443,-3.0740927E-4,-0.00409879,0.0
590.546,465.0121,16897619,0.825,0.10638297,164.7925,382.32727,-0.5195421,0.56879234,-0.018971443,-3.0740927E-4,-0.00409879,0.0
604.6207,471.00366,16897636,0.825,0.08510638,37.12981,673.4123,-0.5195421,0.56879234,-0.018971443,-3.0740927E-4,-0.00409879,0.0
638.64087,476.61572,16897653,0.7875,0.07446808,839.5587,645.2344,-0.5195421,0.56879234,-0.018971443,-3.0740927E-4,-0.00409879,0.0
693.1551,471.10474,16897669,0.75,0.08510638,2575.1438,226.01846,-0.5195421,0.56879234,-0.018971443,0.0,0.0019489182,0.0
751.75995,455.40222,16897686,0.7375,0.10638297,4144.4854,-563.4935,-0.5195421,0.56879234,-0.018971443,0.0,0.0019489182,0.0
793.1411,440.6704,16897703,0.75,0.08510638,4251.173,-1249.2128,-0.5195421,0.56879234,-0.018971443,0.0,0.0019489182,0.0
817.8784,431.79993,16897719,0.77500004,0.06382979,2860.1072,-1324.7687,-0.5195421,0.56879234,-0.018971443,0.0,0.0019489182,0.0
828.70953,429.912,16897736,0.8125,0.06382979,822.888,-644.6166,-0.5195421,0.56879234,-0.018971443,-0.0038547697,-0.005715693,0.0
833.9596,430.91284,16897753,0.8625,0.08510638,-350.0416,80.50125,-0.5195421,0.56879234,-0.018971443,-0.0038547697,-0.005715693,0.0
836.40674,432.7561,16897770,0.85,0.08510638,-678.82477,428.32794,-0.5195421,0.56879234,-0.018971443,-0.0038547697,-0.005715693,0.0
839.1031,438.97034,16897786,0.7875,0.09574468,-519.2469,546.08044,-0.5195421,0.56879234,-0.018971443,-0.0038547697,-0.005715693,0.0
843.3791,445.02844,16897803,0.725,0.10638297,-166.40031,550.0186,-0.5195421,0.56879234,-0.018971443,0.0021658698,0.0034894568,0.0
870.5403,458.03467,16897820,0.71250004,0.12765957,779.00494,720.8848,-0.5195421,0.56879234,-0.018971443,0.0021658698,0.0034894568,0.0
919.65704,453.85718,16897836,0.7375,0.12765957,2383.2039,483.8658,-0.5195421,0.56879234,-0.018971443,0.0021658698,0.0034894568,0.0
965.44763,441.47107,16897853,0.725,0.08510638,3697.9956,-373.7355,-0.5195421,0.56879234,-0.018971443,0.0021658698,0.0034894568,0.0
1013.8114,423.26782,16897870,0.75,0.08510638,3868.624,-1298.181,-0.5195421,0.56879234,-0.018971443,-9.354713E-4,-0.0014700264,0.0
1046.2445,417.72412,16897887,0.77500004,0.08510638,3228.7322,-1466.6171,-0.5195421,0.56879234,-0.018971443,-9.354713E-4,-0.0014700264,0.0
1074.1688,418.1692,16897903,0.75,0.08510638,1770.61,-595.48193,-0.5195421,0.56879234,-0.018971443,-9.354713E-4,-0.0014700264,0.0
1152.1683,420.90527,16897920,0.71250004,0.07446808,2164.3694,280.5555,-0.5195421,0.56879234,-0.018971443,-9.354713E-4,-0.0014700264,0.0
1227.5782,409.47632,16897929,0.6,0.10638297,3802.667,317.80054,-0.5195421,0.56879234,-0.018971443,-0.002283528,0.0010816711,0.0
1227.5782,409.47632,16897936,0.6,0.10638297,3802.667,317.80054,-0.5195421,0.56879234,-0.018971443,-0.002283528,0.0010816711,0.0
