x,y,timestamp,pressure,fingerarea,velocityx,velocityy,accelx,accely,accelz,gyrox,gyroy,gyroz
507.81256,173.13452,15379293,1.1125001,0.10638297,0.0,0.0,-0.0046630786,0.028485298,-0.11565685,0.0,0.0,0.0
507.81256,173.13452,15379324,1.1625,0.10638297,0.005681651,1.8179038E-4,-0.0046630786,0.028485298,-0.11565685,0.0,0.0,0.0
507.81256,173.13452,15379341,1.125,0.12765957,0.034975175,0.011417449,-0.0046630786,0.028485298,-0.11565685,0.0,0.0,0.0
508.8122,216.86108,15379358,0.975,0.08510638,52.248165,2156.845,-0.0046630786,0.028485298,-0.11565685,0.0,0.0,0.0
511.49866,262.5381,15379375,0.9375,0.07446808,125.7419,3256.9407,-0.0046630786,0.028485298,-0.11565685,8.388603E-5,0.0,0.0
514.15424,312.1853,15379391,0.9375,0.07446808,180.23431,3839.8806,-0.0046630786,0.028485298,-0.11565685,8.388603E-5,0.0,0.0
517.84015,357.6195,15379408,0.9125,0.08510638,252.41281,4007.8862,-0.0046630786,0.028485298,-0.11565685,8.388603E-5,0.0,0.0
524.8852,400.50867,15379425,0.90000004,0.12765957,376.40726,3330.047,-0.0046630786,0.028485298,-0.11565685,1.0066329E-5,0.0,0.0
530.1722,444.45972,15379441,0.875,0.11702127,430.1002,2705.2314,-0.0046630786,0.028485298,-0.11565685,1.0066329E-5,0.0,0.0
536.7418,489.42297,15379458,0.8875,0.08510638,465.1146,2582.9382,-0.0046630786,0.028485298,-0.11565685,1.0066329E-5,0.0,0.0
542.90137,530.3152,15379475,0.875,0.08510638,431.69418,2480.6804,-0.0046630786,0.028485298,-0.11565685,1.0066329E-5,0.0,0.0
547.6897,564.60974,15379491,0.875,0.12765957,336.17084,2232.0598,-0.0046630786,0.028485298,-0.11565685,5.3687072E-5,0.0,0.0
551.3504,590.1199,15379508,0.875,0.07446808,259.26233,1711.4327,-0.0046630786,0.028485298,-0.11565685,2.5165823E-6,0.0,0.0
553.0763,603.7661,15379525,0.8875,0.10638297,113.017136,905.3195,-0.0046630786,0.028485298,-0.11565685,2.5165823E-6,0.0,0.0
554.2192,613.27563,15379542,0.875,0.12765957,16.394032,220.93776,-0.0046630786,0.028485298,-0.11565685,2.5165823E-6,0.0,0.0
554.76544,616.44104,15379558,0.8625,0.10638297,-50.524498,-260.9859,-0.011730462,0.03878826,-0.07652569,-5.3687072E-5,0.0,0.0
554.79724,616.49756,15379575,0.725,0.10638297,-58.178757,-402.08813,-0.011730462,0.03878826,-0.07652569,-5.3687072E-5,0.0,0.0
554.79724,616.49756,15379583,0.4625,0.12765957,-61.153114,-451.84644,-0.011730462,0.03878826,-0.07652569,-5.3687072E-5,0.0,0.0
554.79724,616.49756,15379590,0.4625,0.12765957,-61.153114,-451.84644,-0.011730462,0.03878826,-0.07652569,-5.3687072E-5,0.0,0.0
505.81317,195.34705,15380034,0.8,0.09574468,0.0,0.0,-0.011730462,0.03878826,-0.07652569,0.0,0.0,0.0
505.81317,195.34705,15380060,1.025,0.12765957,-0.04183113,-0.0145233665,-0.011730462,0.03878826,-0.07652569,0.0,0.0,0.0
505.81317,195.34705,15380071,1.0625,0.12765957,-0.027904842,-0.011302231,-0.011730462,0.03878826,-0.07652569,0.0,0.0,0.0
505.81317,195.34705,15380091,1.0500001,0.12765957,-0.008488237,-0.003716283,0.014615629,-0.016969383,0.002779007,2.5165823E-6,0.0,0.0
505.81317,195.34705,15380110,1.0125,0.12765957,-0.0016581573,-6.4767094E-4,0.014615629,-0.016969383,0.002779007,2.5165823E-6,0.0,0.0
505.81317,195.34705,15380126,0.96250004,0.10638297,-0.032241452,-0.012865453,0.014615629,-0.016969383,0.002779007,2.5165823E-6,0.0,0.0
528.13336,181.87402,15380143,0.90000004,0.11702127,649.39636,-401.31122,0.014615629,-0.016969383,0.002779007,2.5165823E-6,0.0,0.0
542.9009,176.5553,15380160,0.9125,0.09574468,1260.2166,-673.0924,0.014615629,-0.016969383,0.002779007,3.355443E-6,0.0,0.0
558.36566,175.80005,15380177,0.9125,0.09574468,1485.7646,-535.16565,0.014615629,-0.016969383,0.002779007,3.355443E-6,0.0,0.0
572.32324,178.06409,15380193,0.925,0.10638297,1275.441,-78.71974,0.014615629,-0.016969383,0.002779007,3.355443E-6,0.0,0.0
585.3054,182.50537,15380210,0.90000004,0.12765957,818.46954,422.71417,0.014615629,-0.016969383,0.002779007,3.355443E-6,0.0,0.0
599.31067,190.60498,15380227,0.90000004,0.10638297,644.81793,677.327,0.014615629,-0.016969383,0.002779007,2.5165823E-6,0.0,0.0
615.79803,200.6919,15380243,0.90000004,0.08510638,863.60205,719.4209,0.014615629,-0.016969383,0.002779007,2.5165823E-6,0.0,0.0
629.2774,213.68762,15380260,0.90000004,0.09574468,910.6139,866.8858,0.014615629,-0.016969383,0.002779007,2.5165823E-6,0.0,0.0
642.31287,226.63843,15380277,0.875,0.12765957,874.36676,951.28,0.014615629,-0.016969383,0.002779007,2.5165823E-6,0.0,0.0
649.8138,237.81372,15380294,0.90000004,0.10638297,619.097,880.55994,0.014615629,-0.016969383,0.002779007,3.355443E-6,0.0,0.0
658.1387,259.45276,15380310,0.90000004,0.08510638,409.0124,1059.4849,0.014615629,-0.016969383,0.002779007,3.355443E-6,0.0,0.0
659.9637,272.65308,15380327,0.90000004,0.08510638,147.24486,1089.6971,0.014615629,-0.016969383,0.002779007,3.355443E-6,0.0,0.0
660.26294,283.18738,15380344,0.8875,0.12765957,-77.07041,893.90875,0.014615629,-0.016969383,0.002779007,3.355443E-6,0.0,0.0
659.7165,294.21948,15380360,0.90000004,0.12765957,-206.9659,630.71027,0.014615629,-0.016969383,0.002779007,2.5165823E-6,0.0,0.0
656.4826,305.3833,15380377,0.90000004,0.08510638,-312.10455,438.6981,0.014615629,-0.016969383,0.002779007,2.5165823E-6,0.0,0.0
651.6681,317.5995,15380394,0.8875,0.08510638,-334.68744,592.7422,0.014615629,-0.016969383,0.002779007,2.5165823E-6,0.0,0.0
642.66705,329.7588,15380411,0.90000004,0.11702127,-492.9858,715.4136,0.014615629,-0.016969383,0.002779007,2.5165823E-6,0.0,0.0
620.86255,347.9547,15380427,0.90000004,0.10638297,-985.2212,920.87994,0.014615629,-0.016969383,0.002779007,0.0,0.0,0.0
600.242,357.77124,15380444,0.925,0.11702127,-1512.3188,955.72577,0.014615629,-0.016969383,0.002779007,0.0,0.0,0.0
579.9625,362.44373,15380461,0.95,0.08510638,-1664.2874,571.4379,0.014615629,-0.016969383,0.002779007,0.0,0.0,0.0
562.8363,363.27417,15380477,0.95,0.08510638,-1455.8885,85.899055,0.014615629,-0.016969383,0.002779007,0.0,0.0,0.0
551.91254,363.27417,15380494,0.96250004,0.09574468,-921.41626,-268.83078,0.014615629,-0.016969383,0.002779007,3.355443E-6,0.0,0.0
544.9654,362.13843,15380511,0.975,0.11702127,-424.52063,-354.6249,0.014615629,-0.016969383,0.002779007,3.355443E-6,0.0,0.0
540.4886,360.2473,15380528,0.96250004,0.11702127,-116.584465,-262.0244,0.014615629,-0.016969383,0.002779007,3.355443E-6,0.0,0.0
537.18146,359.35205,15380544,0.96250004,0.11702127,57.461475,-186.26123,0.014615629,-0.016969383,0.002779007,3.355443E-6,0.0,0.0
534.0558,358.83167,15380561,0.975,0.11702127,5.706473,-94.10467,0.014615629,-0.016969383,0.002779007,-2.5165823E-6,0.0,0.0
531.7246,358.83167,15380578,0.975,0.10638297,-51.7369,-12.614076,0.014615629,-0.016969383,0.002779007,-2.5165823E-6,0.0,0.0
529.1454,358.245,15380594,0.9875,0.10638297,-94.75115,30.71366,0.014615629,-0.016969383,0.002779007,-2.5165823E-6,0.0,0.0
527.9402,357.9431,15380611,0.975,0.10638297,-80.642845,1.9989545,0.014615629,-0.016969383,0.002779007,-2.5165823E-6,0.0,0.0
526.91644,357.9431,15380628,0.975,0.10638297,-43.743374,-11.831574,-0.012307497,-0.013575494,0.066223145,0.0,0.0,0.0
526.3065,357.9431,15380645,0.9875,0.10638297,-14.0800085,-8.143927,-0.012307497,-0.013575494,0.066223145,0.0,0.0,0.0
527.26575,357.9431,15380661,0.8875,0.11702127,34.18076,10.284964,-0.012307497,-0.013575494,0.066223145,0.0,0.0,0.0
528.30585,357.9431,15380670,0.38750002,0.11702127,79.776825,14.854943,-0.012307497,-0.013575494,0.066223145,0.0,0.0,0.0
528.30585,357.9431,15380677,0.38750002,0.11702127,79.776825,14.854943,-0.012307497,-0.013575494,0.066223145,0.0,0.0,0.0
682.7556,604.0586,15381016,0.52500004,0.08510638,0.0,0.0,-0.012307497,-0.013575494,0.066223145,0.0,0.0,0.0
682.7556,604.0586,15381044,0.6,0.08510638,0.050729305,0.04716361,-0.012307497,-0.013575494,0.066223145,0.0,0.0,0.0
682.7556,604.0586,15381062,0.58750004,0.07446808,0.035105128,0.03158178,-0.012307497,-0.013575494,0.066223145,0.0,0.0,0.0
682.7556,604.0586,15381096,0.6125,0.08510638,0.012077196,0.009796526,-0.012307497,-0.013575494,0.066223145,2.5165823E-6,0.0,0.0
682.7556,604.0586,15381112,0.6375,0.08510638,-0.033638872,-0.028907526,-0.012307497,-0.013575494,0.066223145,2.5165823E-6,0.0,0.0
666.68066,600.37146,15381129,0.2875,0.08510638,-452.05753,-103.68492,-0.012307497,-0.013575494,0.066223145,2.5165823E-6,0.0,0.0
661.5222,598.6207,15381146,0.16250001,0.06382979,-791.0297,-197.90794,-0.012307497,-0.013575494,0.066223145,2.5165823E-6,0.0,0.0
661.5222,598.6207,15381152,0.16250001,0.06382979,-791.0297,-197.90794,-0.012307497,-0.013575494,0.066223145,2.5165823E-6,0.0,0.0
603.2815,614.7206,15381966,0.875,0.10638297,0.0,0.0,-0.007876798,0.02011168,0.010382652,3.355443E-6,0.0,0.0
603.2815,614.7206,15381998,0.9375,0.10638297,0.03921138,0.040479206,-0.007876798,0.02011168,0.010382652,3.355443E-6,0.0,0.0
603.2815,614.7206,15382015,0.925,0.08510638,0.009037985,0.006675357,-0.007876798,0.02011168,0.010382652,3.355443E-6,0.0,0.0
621.30994,605.9806,15382032,0.875,0.08510638,833.4501,-404.0299,-0.007876798,0.02011168,0.010382652,3.0198984E-5,0.0,0.0
639.10956,595.79663,15382048,0.8625,0.08510638,1377.1521,-717.42084,-0.007876798,0.02011168,0.010382652,3.0198984E-5,0.0,0.0
665.51373,580.4955,15382065,0.85,0.09574468,1771.6741,-989.7941,-0.007876798,0.02011168,0.010382652,3.0198984E-5,0.0,0.0
694.1109,561.3019,15382082,0.83750004,0.11702127,2155.2217,-1306.9238,-0.007876798,0.02011168,0.010382652,3.0198984E-5,0.0,0.0
722.7068,536.0624,15382098,0.8625,0.08510638,2163.1729,-1581.0455,-0.007876798,0.02011168,0.010382652,2.5165823E-6,0.0,0.0
748.91895,513.6948,15382115,0.85,0.12765957,1888.2194,-1692.8958,-0.007876798,0.02011168,0.010382652,2.5165823E-6,0.0,0.0
767.9669,495.64526,15382132,0.85,0.06382979,1513.3296,-1524.7361,-0.007876798,0.02011168,0.010382652,2.5165823E-6,0.0,0.0
782.9529,480.78137,15382149,0.875,0.08510638,934.04175,-1078.1246,-0.007876798,0.02011168,0.010382652,2.5165823E-6,0.0,0.0
791.4404,471.7068,15382165,0.85,0.10638297,419.7312,-551.48956,-0.007876798,0.02011168,0.010382652,3.0198984E-5,0.0,0.0
795.46466,465.9038,15382182,0.8625,0.12765957,6.606544,-173.48027,-0.007876798,0.02011168,0.010382652,3.0198984E-5,0.0,0.0
797.17224,462.0619,15382199,0.8625,0.12765957,-163.04895,-17.189915,-0.007876798,0.02011168,0.010382652,3.0198984E-5,0.0,0.0
797.71814,459.2411,15382215,0.875,0.12765957,-268.88718,68.84915,-0.007876798,0.02011168,0.010382652,3.0198984E-5,0.0,0.0
797.1876,457.401,15382232,0.90000004,0.12765957,-221.14487,40.615936,-0.0063014384,0.01608932,0.056305885,-2.5165823E-6,0.0,0.0
796.14233,455.54285,15382249,0.9125,0.12765957,-176.7914,-6.020663,-0.0063014384,0.01608932,0.056305885,-2.5165823E-6,0.0,0.0
794.4851,453.69348,15382265,0.925,0.12765957,-158.1257,-39.512096,-0.0063014384,0.01608932,0.056305885,-2.5165823E-6,0.0,0.0
793.04944,453.9015,15382282,0.9375,0.12765957,-150.04518,-19.001602,-0.0063014384,0.01608932,0.056305885,-2.5165823E-6,0.0,0.0
792.05804,453.9015,15382299,0.96250004,0.12765957,-115.18223,17.783464,-0.0063014384,0.01608932,0.056305885,0.0,0.0,0.0
790.99054,453.9015,15382316,0.96250004,0.12765957,-68.4829,52.570187,-0.0063014384,0.01608932,0.056305885,0.0,0.0,0.0
789.9831,453.9015,15382332,0.96250004,0.12765957,-48.560997,42.067547,-0.0063014384,0.01608932,0.056305885,0.0,0.0,0.0
789.72076,453.9015,15382349,0.9875,0.12765957,-28.510878,8.948152,-0.0063014384,0.01608932,0.056305885,0.0,0.0,0.0
789.72076,453.9015,15382366,0.9875,0.12765957,-3.7188318,0.011311133,-0.0063014384,0.01608932,0.056305885,0.0,0.0,0.0
789.72076,453.9015,15382382,0.9875,0.12765957,25.047642,0.02060389,-0.0063014384,0.01608932,0.056305885,0.0,0.0,0.0
789.72076,453.9015,15382399,1.0,0.12765957,28.092375,0.012278106,-0.0063014384,0.01608932,0.056305885,0.0,0.0,0.0
789.72076,453.9015,15382416,1.0125,0.12765957,14.263897,-0.0062831566,-0.0063014384,0.01608932,0.056305885,0.0,0.0,0.0
789.72076,453.9015,15382429,1.0125,0.12765957,5.573483,0.0031445117,-0.0063014384,0.01608932,0.056305885,0.0,0.0,0.0
789.72076,453.9015,15382449,1.025,0.12765957,0.028605666,0.013090181,-0.0063014384,0.01608932,0.056305885,0.0,0.0,0.0
789.72076,453.9015,15382466,1.0125,0.12765957,-6.1665254E-4,0.0014249177,-0.0063014384,0.01608932,0.056305885,0.0,0.0,0.0
790.2206,453.9015,15382483,1.025,0.12765957,15.70329,0.009138643,-0.0063014384,0.01608932,0.056305885,0.0,0.0,0.0
791.34393,453.9015,15382499,1.025,0.12765957,50.44927,-0.0046556415,-0.0063014384,0.01608932,0.056305885,0.0,0.0,0.0
791.2203,453.9015,15382516,1.0125,0.12765957,44.257553,0.0062879412,-0.0063014384,0.01608932,0.056305885,0.0,0.0,0.0
791.2203,453.9015,15382525,1.0,0.12765957,30.2365,0.008498664,-0.0063014384,0.01608932,0.056305885,0.0,0.0,0.0
791.2203,453.9015,15382550,0.9875,0.12765957,-18.799852,0.017175848,-0.0063014384,0.01608932,0.056305885,0.0,0.0,0.0
791.2203,453.9015,15382565,0.9875,0.12765957,-21.407623,0.023185076,-0.0063014384,0.01608932,0.056305885,0.0,0.0,0.0
789.8201,453.9015,15382600,0.96250004,0.12765957,-42.780514,-0.020764597,-0.0063014384,0.01608932,0.056305885,0.0,0.0,0.0
788.3824,453.9015,15382616,0.95,0.12765957,-75.05428,0.019365136,-0.0063014384,0.01608932,0.056305885,0.0,0.0,0.0
786.2671,453.9015,15382633,0.925,0.12765957,-135.6887,-0.0011072148,-0.0063014384,0.01608932,0.056305885,0.0,0.0,0.0
783.66595,453.9015,15382650,0.9125,0.10638297,-172.07866,0.0040206783,-0.0063014384,0.01608932,0.056305885,0.0,0.0,0.0
780.56244,453.9015,15382667,0.8875,0.12765957,-208.12202,-0.015268596,-0.0063014384,0.01608932,0.056305885,0.0,0.0,0.0
776.33813,453.9015,15382683,0.875,0.12765957,-254.66368,0.009746482,-0.0063014384,0.01608932,0.056305885,0.0,0.0,0.0
772.17377,453.9015,15382700,0.875,0.12765957,-285.33746,0.016474867,-0.0063014384,0.01608932,0.056305885,3.355443E-6,0.0,0.0
766.74426,453.9015,15382717,0.8625,0.12765957,-327.85223,0.0033652156,-0.0063014384,0.01608932,0.056305885,3.355443E-6,0.0,0.0
761.44995,453.9015,15382733,0.85,0.12765957,-352.11414,0.00888033,-0.0063014384,0.01608932,0.056305885,3.355443E-6,0.0,0.0
754.2103,454.3507,15382750,0.875,0.12765957,-408.51233,7.5304103,-0.0063014384,0.01608932,0.056305885,3.355443E-6,0.0,0.0
743.50433,456.6986,15382767,0.8625,0.10638297,-558.44855,76.08112,-0.005041151,0.04487145,-0.034955025,2.5165823E-6,0.0,0.0
723.6277,461.88416,15382784,0.875,0.09574468,-958.0368,237.86678,-0.005041151,0.04487145,-0.034955025,2.5165823E-6,0.0,0.0
705.8588,466.76025,15382800,0.90000004,0.11702127,-1335.3667,389.3747,-0.005041151,0.04487145,-0.034955025,2.5165823E-6,0.0,0.0
692.7909,471.33606,15382817,0.8875,0.08510638,-1303.9589,420.56223,-0.005041151,0.04487145,-0.034955025,2.5165823E-6,0.0,0.0
683.2731,475.04163,15382834,0.9125,0.08510638,-890.6425,331.77545,-0.005041151,0.04487145,-0.034955025,-3.355443E-6,0.0,0.0
676.32477,478.73987,15382850,0.9125,0.08510638,-391.3909,223.34662,-0.005041151,0.04487145,-0.034955025,-3.355443E-6,0.0,0.0
672.6734,481.49573,15382867,0.9375,0.08510638,-79.3825,161.70284,-0.005041151,0.04487145,-0.034955025,-3.355443E-6,0.0,0.0
669.55725,485.23926,15382884,0.925,0.08510638,-3.1339211,167.23009,-0.005041151,0.04487145,-0.034955025,-3.355443E-6,0.0,0.0
666.4438,490.8938,15382900,0.90000004,0.08510638,-7.669997,244.56607,-0.005041151,0.04487145,-0.034955025,0.0,0.0,0.0
664.45654,494.42627,15382917,0.8875,0.10638297,-26.316246,279.93005,-0.005041151,0.04487145,-0.034955025,0.0,0.0,0.0
662.8624,501.52405,15382934,0.875,0.12765957,-52.631718,354.47665,-0.005041151,0.04487145,-0.034955025,0.0,0.0,0.0
661.41785,508.4369,15382951,0.8625,0.10638297,-57.707264,440.04358,-0.005041151,0.04487145,-0.034955025,0.0,0.0,0.0
660.2691,519.61755,15382967,0.8625,0.08510638,-39.36573,595.17224,-0.005041151,0.04487145,-0.034955025,0.0,0.0,0.0
658.95984,532.85034,15382984,0.83750004,0.07446808,-62.966385,815.7799,-0.005041151,0.04487145,-0.034955025,0.0,0.0,0.0
659.1019,547.5658,15383001,0.825,0.08510638,-39.666973,978.4075,-0.005041151,0.04487145,-0.034955025,0.0,0.0,0.0
660.50305,566.86816,15383017,0.8125,0.12765957,49.271866,1151.5618,-0.005041151,0.04487145,-0.034955025,0.0,0.0,0.0
664.7692,585.865,15383034,0.8125,0.06382979,197.73369,1305.3097,-0.005041151,0.04487145,-0.034955025,3.355443E-6,0.0,0.0
670.0763,594.9291,15383051,0.8125,0.06382979,380.9296,1088.8442,-0.005041151,0.04487145,-0.034955025,3.355443E-6,0.0,0.0
677.7268,604.0226,15383068,0.83750004,0.10638297,499.36694,637.0959,-0.005041151,0.04487145,-0.034955025,3.355443E-6,0.0,0.0
691.32153,612.34375,15383084,0.85,0.12765957,737.78467,307.80478,-0.005041151,0.04487145,-0.034955025,3.355443E-6,0.0,0.0
710.1089,613.83215,15383101,0.875,0.09574468,1093.7645,48.75555,-0.005041151,0.04487145,-0.034955025,0.0,0.0,0.0
726.481,608.5885,15383118,0.8625,0.08510638,1297.7496,-220.9986,-0.005041151,0.04487145,-0.034955025,0.0,0.0,0.0
737.1865,600.10596,15383134,0.85,0.08510638,1140.9462,-586.8388,-0.005041151,0.04487145,-0.034955025,0.0,0.0,0.0
745.4851,589.3982,15383151,0.83750004,0.09574468,701.5362,-926.8656,-0.005041151,0.04487145,-0.034955025,0.0,0.0,0.0
752.5775,576.38135,15383168,0.825,0.12765957,246.29427,-989.4592,-0.005041151,0.04487145,-0.034955025,3.355443E-6,0.0,0.0
765.365,549.05237,15383185,0.83750004,0.07446808,387.1807,-1397.7098,-0.005041151,0.04487145,-0.034955025,3.355443E-6,0.0,0.0
769.66144,534.4359,15383201,0.83750004,0.08510638,466.1553,-1538.8014,-0.005041151,0.04487145,-0.034955025,3.355443E-6,0.0,0.0
771.0772,524.53455,15383218,0.83750004,0.10638297,261.14496,-1173.9032,-0.005041151,0.04487145,-0.034955025,3.355443E-6,0.0,0.0
771.7266,518.4701,15383235,0.8625,0.12765957,-63.31418,-479.68277,-0.005041151,0.04487145,-0.034955025,0.0,0.0,0.0
772.22644,512.9431,15383251,0.875,0.12765957,-240.12527,51.271034,-0.005041151,0.04487145,-0.034955025,0.0,0.0,0.0
772.7263,509.11633,15383268,0.8625,0.10638297,-155.609,87.71944,-0.005041151,0.04487145,-0.034955025,0.0,0.0,0.0
774.24316,505.4038,15383285,0.8125,0.08510638,11.972272,-75.66173,-0.005041151,0.04487145,-0.034955025,0.0,0.0,0.0
778.4231,497.97363,15383302,0.825,0.07446808,159.26363,-241.5265,0.0039670793,0.019897163,-0.05996418,-3.355443E-6,0.0,0.0
784.17487,491.625,15383318,0.85,0.07446808,328.1894,-384.66763,0.0039670793,0.019897163,-0.05996418,-3.355443E-6,0.0,0.0
788.12604,487.18518,15383335,0.875,0.07446808,395.4657,-398.89252,0.0039670793,0.019897163,-0.05996418,-3.355443E-6,0.0,0.0
790.0901,483.4541,15383352,0.8625,0.07446808,297.2028,-309.2247,0.0039670793,0.019897163,-0.05996418,-3.355443E-6,0.0,0.0
791.3883,482.0349,15383368,0.875,0.07446808,121.21326,-123.348526,0.0039670793,0.019897163,-0.05996418,6.291453E-5,0.0,0.0
792.22,480.15247,15383385,0.875,0.08510638,-24.507568,-15.340322,0.0039670793,0.019897163,-0.05996418,6.291453E-5,0.0,0.0
792.22,478.33545,15383401,0.8875,0.07446808,-61.20104,-20.35184,0.0039670793,0.019897163,-0.05996418,6.291453E-5,0.0,0.0
792.22,477.35657,15383419,0.8875,0.07446808,-42.6318,-41.442127,0.0039670793,0.019897163,-0.05996418,6.291453E-5,0.0,0.0
792.22,475.49573,15383435,0.8625,0.07446808,-44.276855,-68.47229,0.0039670793,0.019897163,-0.05996418,0.0,0.0,0.0
792.22,473.64148,15383452,0.83750004,0.08510638,-24.676056,-91.031425,0.0039670793,0.019897163,-0.05996418,0.0,0.0,0.0
792.22,471.80432,15383469,0.8625,0.08510638,-5.44496,-114.68633,0.0039670793,0.019897163,-0.05996418,0.0,0.0,0.0
792.22,469.95117,15383485,0.875,0.10638297,0.018275205,-126.32884,0.0039670793,0.019897163,-0.05996418,0.0,0.0,0.0
791.2085,468.09668,15383502,0.9125,0.10638297,-32.05601,-111.56519,0.0039670793,0.019897163,-0.05996418,0.0,0.0,0.0
790.663,467.22913,15383519,0.96250004,0.10638297,-48.919155,-87.1487,0.0039670793,0.019897163,-0.05996418,0.0,0.0,0.0
789.6227,467.22913,15383536,1.0,0.08510638,-70.102905,-25.508753,0.0039670793,0.019897163,-0.05996418,0.0,0.0,0.0
787.4273,472.4558,15383552,1.0125,0.08510638,-110.347336,164.88977,0.0039670793,0.019897163,-0.05996418,0.0,0.0,0.0
786.0418,484.25452,15383569,0.95,0.08510638,-127.10432,543.3221,0.0039670793,0.019897163,-0.05996418,1.342177E-5,0.0,0.0
786.9275,493.0476,15383586,0.90000004,0.10638297,-60.755783,798.3925,0.0039670793,0.019897163,-0.05996418,1.342177E-5,0.0,0.0
789.94684,504.47852,15383602,0.825,0.12765957,111.2385,876.0929,0.0039670793,0.019897163,-0.05996418,1.342177E-5,0.0,0.0
796.1627,517.7744,15383619,0.8125,0.08510638,359.2898,884.6964,0.0039670793,0.019897163,-0.05996418,1.342177E-5,0.0,0.0
806.12445,532.3551,15383636,0.825,0.08510638,591.40247,860.63586,0.0039670793,0.019897163,-0.05996418,5.3687072E-5,0.0,0.0
821.74396,547.9962,15383652,0.8125,0.08510638,925.77014,1006.36774,0.0039670793,0.019897163,-0.05996418,5.3687072E-5,0.0,0.0
837.3499,560.3782,15383669,0.8125,0.10638297,1171.7915,962.2195,0.0039670793,0.019897163,-0.05996418,5.3687072E-5,0.0,0.0
854.11914,571.365,15383686,0.8,0.11702127,1219.9615,752.5354,0.0039670793,0.019897163,-0.05996418,5.3687072E-5,0.0,0.0
883.8283,585.2715,15383703,0.7625,0.06382979,1493.6414,696.57745,0.0039670793,0.019897163,-0.05996418,-1.342177E-5,0.0,0.0
899.685,586.28845,15383711,0.26250002,0.09574468,1734.7931,608.93994,0.0039670793,0.019897163,-0.05996418,-1.342177E-5,0.0,0.0
899.685,586.28845,15383718,0.26250002,0.09574468,1734.7931,608.93994,0.0039670793,0.019897163,-0.05996418,-1.342177E-5,0.0,0.0
884.6899,460.1211,15384973,0.8,0.10638297,0.0,0.0,0.007471144,-0.033332646,-0.010861397,0.0,0.0,0.0
884.6899,460.1211,15385006,1.0,0.12765957,-0.0032514345,-6.013793E-4,0.007471144,-0.033332646,-0.010861397,0.0,0.0,0.0
884.6899,460.1211,15385018,1.025,0.12765957,0.030954206,0.01580091,0.007471144,-0.033332646,-0.010861397,0.0,0.0,0.0
884.6899,460.1211,15385038,1.0500001,0.12765957,0.0011869298,1.274036E-5,0.007471144,-0.033332646,-0.010861397,6.291453E-5,0.0,0.0
884.6899,460.1211,15385054,1.0375,0.12765957,0.008657263,0.0036542288,0.007471144,-0.033332646,-0.010861397,6.291453E-5,0.0,0.0
884.6899,460.1211,15385073,0.975,0.11702127,-0.003345601,-0.0032005562,0.007471144,-0.033332646,-0.010861397,6.291453E-5,0.0,0.0
873.03754,486.5094,15385089,0.925,0.09574468,-354.0516,792.43134,0.007471144,-0.033332646,-0.010861397,6.291453E-5,0.0,0.0
869.92737,504.44067,15385106,0.9125,0.12765957,-552.87067,1531.7461,0.007471144,-0.033332646,-0.010861397,3.355443E-6,0.0,0.0
869.3844,527.1594,15385123,0.925,0.08510638,-394.79636,1916.7277,0.007471144,-0.033332646,-0.010861397,3.355443E-6,0.0,0.0
870.0236,548.29443,15385140,0.9125,0.09574468,-50.014526,1785.9993,0.007471144,-0.033332646,-0.010861397,3.355443E-6,0.0,0.0
871.1943,577.2938,15385156,0.8875,0.09574468,270.55927,1555.2926,0.007471144,-0.033332646,-0.010861397,3.355443E-6,0.0,0.0
872.1069,606.7589,15385173,0.8875,0.09574468,270.26782,1679.1714,0.007471144,-0.033332646,-0.010861397,2.5165823E-6,0.0,0.0
873.15576,638.45435,15385190,0.8625,0.08510638,116.24462,1995.6105,0.007471144,-0.033332646,-0.010861397,2.5165823E-6,0.0,0.0
874.18024,663.2638,15385206,0.875,0.08510638,77.141975,1881.8303,0.007471144,-0.033332646,-0.010861397,2.5165823E-6,0.0,0.0
874.1933,688.6466,15385223,0.8625,0.07446808,32.099827,1664.6904,0.007471144,-0.033332646,-0.010861397,2.5165823E-6,0.0,0.0
874.6931,703.9485,15385240,0.85,0.08510638,17.369421,1181.6608,0.007471144,-0.033332646,-0.010861397,3.355443E-6,0.0,0.0
878.69183,770.2086,15385326,0.275,0.12765957,17.369421,1181.6608,0.007471144,-0.033332646,-0.010861397,0.0,0.0,0.0
817.7117,492.9956,15385576,0.825,0.08510638,0.0,0.0,0.021976914,-0.042666107,-0.16068935,0.0,0.0,0.0
817.7117,492.9956,15385607,0.975,0.09574468,0.0017695223,-0.002707979,0.021976914,-0.042666107,-0.16068935,0.0,0.0,0.0
817.7117,492.9956,15385624,0.975,0.09574468,0.036738414,0.023592947,0.021976914,-0.042666107,-0.16068935,0.0,0.0,0.0
817.7117,492.9956,15385641,0.9125,0.08510638,0.010670718,0.0076096617,0.021976914,-0.042666107,-0.16068935,1.6441657E-4,0.0,0.0
845.65704,473.7339,15385658,0.8875,0.10638297,880.68695,-607.0257,0.021976914,-0.042666107,-0.16068935,1.6441657E-4,0.0,0.0
859.53296,467.35034,15385674,0.8875,0.12765957,1368.7151,-864.1496,0.021976914,-0.042666107,-0.16068935,1.6441657E-4,0.0,0.0
876.19946,463.11816,15385691,0.9125,0.10638297,1644.4962,-832.6246,0.021976914,-0.042666107,-0.16068935,1.6441657E-4,0.0,0.0
892.8795,460.6549,15385708,0.90000004,0.12765957,1497.5778,-470.34985,0.021976914,-0.042666107,-0.16068935,-2.5165823E-6,0.0,0.0
905.5532,460.1211,15385724,0.9125,0.12765957,821.74927,152.57811,0.021976914,-0.042666107,-0.16068935,-2.5165823E-6,0.0,0.0
916.5208,461.93408,15385741,0.925,0.12765957,556.75073,314.68622,0.021976914,-0.042666107,-0.16068935,-2.5165823E-6,0.0,0.0
923.48773,465.636,15385758,0.9125,0.10638297,445.90543,294.76645,0.021976914,-0.042666107,-0.16068935,-2.5165823E-6,0.0,0.0
928.537,470.82056,15385774,0.90000004,0.08510638,196.94263,398.29062,0.021976914,-0.042666107,-0.16068935,3.355443E-6,0.0,0.0
933.78406,482.7251,15385791,0.8875,0.08510638,102.03573,617.59216,0.021976914,-0.042666107,-0.16068935,3.355443E-6,0.0,0.0
935.5893,490.62146,15385808,0.925,0.08510638,45.257717,748.90125,0.021976914,-0.042666107,-0.16068935,3.355443E-6,0.0,0.0
934.83185,497.76392,15385825,0.925,0.10638297,-39.992744,672.35657,0.021976914,-0.042666107,-0.16068935,3.355443E-6,0.0,0.0
930.6972,504.5144,15385841,0.9125,0.12765957,-233.01474,502.3804,0.021976914,-0.042666107,-0.16068935,0.0,0.0,0.0
925.4166,510.14124,15385858,0.875,0.11702127,-432.96155,306.67648,0.021976914,-0.042666107,-0.16068935,0.0,0.0,0.0
913.2568,520.47156,15385875,0.8875,0.08510638,-697.30396,386.4405,0.021976914,-0.042666107,-0.16068935,0.0,0.0,0.0
897.65826,531.7538,15385891,0.875,0.06382979,-976.96075,618.458,0.021976914,-0.042666107,-0.16068935,0.0,0.0,0.0
882.8057,541.59973,15385908,0.8625,0.08510638,-1158.1143,730.8532,0.021976914,-0.042666107,-0.16068935,2.5165823E-6,0.0,0.0
870.3943,549.10474,15385925,0.875,0.11702127,-1107.6664,675.2038,0.021976914,-0.042666107,-0.16068935,2.5165823E-6,0.0,0.0
855.97375,554.2328,15385942,0.8875,0.10638297,-888.6097,382.23932,0.021976914,-0.042666107,-0.16068935,2.5165823E-6,0.0,0.0
842.23694,557.4418,15385958,0.9125,0.10638297,-807.6215,149.75647,0.021976914,-0.042666107,-0.16068935,2.5165823E-6,0.0,0.0
832.41833,557.85645,15385975,0.925,0.10638297,-712.4907,-35.832123,0.0015815325,-0.0021328926,0.0074481964,0.0,0.0,0.0
828.0116,556.3489,15385992,0.96250004,0.10638297,-442.0528,-174.81233,0.0015815325,-0.0021328926,0.0074481964,0.0,0.0,0.0
826.82385,554.5071,15386008,0.9875,0.08510638,-28.71208,-254.25633,0.0015815325,-0.0021328926,0.0074481964,0.0,0.0,0.0
826.70874,552.69275,15386025,0.96250004,0.08510638,241.36676,-252.66516,0.0015815325,-0.0021328926,0.0074481964,0.0,0.0,0.0
843.2746,542.3938,15386042,0.7375,0.06382979,609.9444,-366.41446,0.0015815325,-0.0021328926,0.0074481964,-1.342177E-5,0.0,0.0
844.20306,541.8633,15386042,0.35,0.08510638,700.2197,-416.04474,0.0015815325,-0.0021328926,0.0074481964,-1.342177E-5,0.0,0.0
844.20306,541.8633,15386050,0.35,0.08510638,700.2197,-416.04474,0.0015815325,-0.0021328926,0.0074481964,-1.342177E-5,0.0,0.0
984.65735,457.45557,15386300,0.85,0.12765957,0.0,0.0,0.0015815325,-0.0021328926,0.0074481964,0.0,0.0,0.0
984.65735,457.45557,15386326,0.9875,0.12765957,0.06928056,0.029341266,0.0015815325,-0.0021328926,0.0074481964,0.0,0.0,0.0
984.65735,457.45557,15386343,1.0125,0.12765957,0.047562756,0.023565913,0.0015815325,-0.0021328926,0.0074481964,0.0,0.0,0.0
984.65735,457.45557,15386359,1.0,0.12765957,0.023346892,0.012712505,0.0015815325,-0.0021328926,0.0074481964,0.0,0.0,0.0
984.65735,457.45557,15386376,0.9375,0.11702127,0.03716121,0.016597392,0.0015815325,-0.0021328926,0.0074481964,2.1474808E-4,0.0,0.0
981.797,470.16687,15386393,0.8625,0.09574468,-49.630955,220.59818,0.0015815325,-0.0021328926,0.0074481964,2.1474808E-4,0.0,0.0
976.67566,495.5487,15386409,0.85,0.11702127,-260.73193,1204.5214,0.0015815325,-0.0021328926,0.0074481964,2.1474808E-4,0.0,0.0
974.4348,519.55164,15386426,0.85,0.11702127,-332.545,1927.3407,0.0015815325,-0.0021328926,0.0074481964,2.1474808E-4,0.0,0.0
973.3894,542.9822,15386443,0.8625,0.08510638,-223.82437,2107.123,0.0015815325,-0.0021328926,0.0074481964,2.5165823E-6,0.0,0.0
973.161,569.6565,15386460,0.85,0.12765957,-44.5034,1893.496,0.0015815325,-0.0021328926,0.0074481964,2.5165823E-6,0.0,0.0
973.64514,597.42017,15386476,0.85,0.08510638,108.6651,1628.849,0.0015815325,-0.0021328926,0.0074481964,2.5165823E-6,0.0,0.0
974.6825,623.34326,15386493,0.85,0.09574468,108.64879,1715.5941,0.0015815325,-0.0021328926,0.0074481964,2.5165823E-6,0.0,0.0
974.16077,643.345,15386510,0.85,0.08510638,67.33121,1494.3958,-0.022734774,0.030293703,-0.07404137,1.342177E-5,0.0,0.0
974.16077,657.93884,15386526,0.83750004,0.11702127,21.334682,1066.5226,-0.022734774,0.030293703,-0.07404137,1.342177E-5,0.0,0.0
974.16077,668.76,15386543,0.85,0.12765957,-14.596212,584.3785,-0.022734774,0.030293703,-0.07404137,1.342177E-5,0.0,0.0
973.6609,676.9325,15386560,0.85,0.09574468,-36.846264,254.38185,-0.022734774,0.030293703,-0.07404137,1.342177E-5,0.0,0.0
973.6609,682.13965,15386577,0.83750004,0.09574468,-13.4300375,125.16879,-0.022734774,0.030293703,-0.07404137,-1.342177E-5,0.0,0.0
972.90283,685.8302,15386593,0.7875,0.08510638,-26.734077,86.73062,-0.022734774,0.030293703,-0.07404137,-1.342177E-5,0.0,0.0
972.66125,688.11,15386610,0.7,0.08510638,-33.611916,20.648438,-0.022734774,0.030293703,-0.07404137,-1.342177E-5,0.0,0.0
972.66125,689.35486,15386621,0.2375,0.09574468,-25.948803,-17.701757,-0.022734774,0.030293703,-0.07404137,-1.342177E-5,0.0,0.0
972.66125,689.35486,15386628,0.2375,0.09574468,-25.948803,-17.701757,-0.022734774,0.030293703,-0.07404137,-1.342177E-5,0.0,0.0
918.6788,449.45898,15386806,0.95,0.11702127,0.0,0.0,-0.022734774,0.030293703,-0.07404137,3.355443E-6,0.0,0.0
918.6788,449.45898,15386827,0.9875,0.09574468,-0.270166,-0.12732428,-0.022734774,0.030293703,-0.07404137,3.355443E-6,0.0,0.0
918.6788,449.45898,15386844,0.95,0.09574468,-0.09096417,-0.04470593,-0.022734774,0.030293703,-0.07404137,0.0,0.0,0.0
931.8102,441.22058,15386861,0.8875,0.07446808,561.83105,-352.43896,-0.022734774,0.030293703,-0.07404137,0.0,0.0,0.0
950.08923,435.37085,15386877,0.8875,0.08510638,1348.953,-644.54126,-0.022734774,0.030293703,-0.07404137,0.0,0.0,0.0
964.2623,438.63232,15386894,0.875,0.09574468,1456.9683,-352.4317,-0.022734774,0.030293703,-0.07404137,0.0,0.0,0.0
978.7909,445.98303,15386911,0.8875,0.10638297,1270.3591,281.83243,-0.022734774,0.030293703,-0.07404137,-1.342177E-5,0.0,0.0
996.0747,456.22412,15386928,0.8875,0.09574468,1097.7876,743.7089,-0.022734774,0.030293703,-0.07404137,-1.342177E-5,0.0,0.0
1014.3169,469.36658,15386944,0.90000004,0.09574468,960.17267,1094.1078,-0.022734774,0.030293703,-0.07404137,-1.342177E-5,0.0,0.0
1031.1783,483.13367,15386961,0.90000004,0.08510638,1121.621,1069.285,-0.022734774,0.030293703,-0.07404137,-1.342177E-5,0.0,0.0
1040.6489,492.70923,15386978,0.9125,0.09574468,922.5414,909.16846,-0.022734774,0.030293703,-0.07404137,0.0,0.0,0.0
1043.7297,497.063,15386994,0.9125,0.10638297,434.297,559.21045,-0.022734774,0.030293703,-0.07404137,0.0,0.0,0.0
1044.168,504.43958,15387011,0.95,0.12765957,-146.82903,234.37581,-0.022734774,0.030293703,-0.07404137,0.0,0.0,0.0
1041.3141,509.96582,15387028,0.925,0.11702127,-445.02698,177.95679,-0.022734774,0.030293703,-0.07404137,0.0,0.0,0.0
1032.9407,517.51904,15387045,0.9125,0.09574468,-590.9368,290.13165,0.02181218,-0.0077650547,0.0047664642,3.355443E-6,0.0,0.0
1014.44604,528.1157,15387061,0.8875,0.08510638,-1004.0243,530.7553,0.02181218,-0.0077650547,0.0047664642,3.355443E-6,0.0,0.0
997.24243,534.3788,15387078,0.90000004,0.08510638,-1397.2379,574.68036,0.02181218,-0.0077650547,0.0047664642,3.355443E-6,0.0,0.0
982.6399,536.416,15387095,0.9375,0.09574468,-1409.3113,377.78058,0.02181218,-0.0077650547,0.0047664642,3.355443E-6,0.0,0.0
957.7892,538.2683,15387111,0.875,0.08510638,-1388.4264,91.046265,0.02181218,-0.0077650547,0.0047664642,3.355443E-6,0.0,0.0
933.0176,538.3093,15387128,0.3375,0.09574468,-1494.0243,-143.42221,0.02181218,-0.0077650547,0.0047664642,3.355443E-6,0.0,0.0
933.0176,538.3093,15387135,0.3375,0.09574468,-1494.0243,-143.42221,0.02181218,-0.0077650547,0.0047664642,3.355443E-6,0.0,0.0
