x,y,timestamp,pressure,fingerarea,velocityx,velocityy,accelx,accely,accelz,gyrox,gyroy,gyroz
400.34753,204.23206,78292555,0.675,0.08510638,0.0,0.0,-0.02440466,0.024251878,0.021881104,0.0,0.0,0.0
400.34753,204.23206,78292582,0.7625,0.09574468,-5.5182856E-5,0.0012781704,-0.02440466,0.024251878,0.021881104,0.0,0.0,0.0
400.34753,204.23206,78292598,0.7875,0.09574468,-4.6506477E-5,-0.0011398057,-0.02440466,0.024251878,0.021881104,0.0,0.0,0.0
400.34753,204.23206,78292606,0.825,0.09574468,0.0076845824,0.0040862104,-0.02440466,0.024251878,0.021881104,0.0,0.0,0.0
400.34753,204.23206,78292632,0.85,0.08510638,0.009569523,0.004088614,-0.02440466,0.024251878,0.021881104,0.0,0.0,0.0
400.34753,204.23206,78292649,0.8625,0.08510638,-9.278856E-4,6.092612E-4,-0.02440466,0.024251878,0.021881104,0.0,0.0,0.0
395.97556,227.3219,78292665,0.85,0.10638297,-128.79973,661.1043,-0.02440466,0.024251878,0.021881104,0.0,0.0,0.0
394.87625,242.94348,78292682,0.85,0.12765957,-201.79214,1328.9852,-0.02440466,0.024251878,0.021881104,0.0,0.0,0.0
394.84933,258.68457,78292699,0.83750004,0.08510638,-128.00388,1461.0687,-0.02440466,0.024251878,0.021881104,0.0,0.0,0.0
395.90958,274.39673,78292715,0.83750004,0.09574468,40.30323,1217.9133,-0.02440466,0.024251878,0.021881104,0.0,0.0,0.0
396.9471,290.21484,78292732,0.83750004,0.10638297,132.19307,979.5443,-0.02440466,0.024251878,0.021881104,0.0,0.0,0.0
399.76804,309.39758,78292749,0.8625,0.08510638,197.96198,934.2246,-0.02440466,0.024251878,0.021881104,0.0,0.0,0.0
399.34787,331.65466,78292766,0.8625,0.09574468,123.413536,1236.5288,-0.02440466,0.024251878,0.021881104,0.0,0.0,0.0
399.55954,348.3783,78292782,0.825,0.09574468,46.633625,1269.6237,-0.02440466,0.024251878,0.021881104,0.0,0.0,0.0
399.8477,370.9967,78292799,0.825,0.08510638,-20.524931,1333.1782,-0.02440466,0.024251878,0.021881104,0.0,0.0,0.0
400.64352,388.80737,78292816,0.85,0.09574468,-20.033287,1259.862,-0.02440466,0.024251878,0.021881104,0.0,0.0,0.0
401.1767,406.4452,78292832,0.825,0.09574468,30.65651,1087.9846,-0.02440466,0.024251878,0.021881104,0.0,0.0,0.0
402.9216,428.41565,78292849,0.8125,0.08510638,72.7718,1109.6666,-0.02440466,0.024251878,0.021881104,0.0,0.0,0.0
404.25574,446.23425,78292866,0.83750004,0.10638297,113.0677,1101.2798,-0.02440466,0.024251878,0.021881104,0.0,0.0,0.0
405.34592,463.6936,78292883,0.825,0.10638297,114.27817,1099.1869,-0.02440466,0.024251878,0.021881104,0.0,0.0,0.0
406.8266,485.687,78292899,0.83750004,0.08510638,89.27101,1177.8035,-0.02440466,0.024251878,0.021881104,0.0,0.0,0.0
406.31363,501.50317,78292916,0.825,0.12765957,29.105713,1080.8645,-0.02440466,0.024251878,0.021881104,0.0,0.0,0.0
405.7702,521.1273,78292933,0.83750004,0.08510638,-40.659866,1088.3092,-0.02440466,0.024251878,0.021881104,0.0,0.0,0.0
405.11203,543.2616,78292949,0.825,0.08510638,-67.79749,1242.8875,-0.02440466,0.024251878,0.021881104,0.0,0.0,0.0
404.20242,559.52405,78292966,0.825,0.12765957,-95.08851,1147.3965,-0.0035237372,0.003401488,0.03350544,0.0,0.0,0.0
402.66412,574.9939,78292983,0.825,0.08510638,-113.14089,1028.0334,-0.0035237372,0.003401488,0.03350544,0.0,0.0,0.0
402.12048,590.88293,78292999,0.825,0.08510638,-81.40734,874.16125,-0.0035237372,0.003401488,0.03350544,0.0,0.0,0.0
401.08023,600.15137,78293016,0.8125,0.08510638,-60.186127,658.97687,-0.0035237372,0.003401488,0.03350544,0.0,0.0,0.0
400.84738,603.7125,78293033,0.7875,0.09574468,-21.841404,338.41412,-0.0035237372,0.003401488,0.03350544,0.0,0.0,0.0
400.84738,604.947,78293045,0.2875,0.10638297,-7.647491,95.52966,-0.0035237372,0.003401488,0.03350544,0.0,0.0,0.0
400.84738,604.947,78293051,0.2875,0.10638297,-7.647491,95.52966,-0.0035237372,0.003401488,0.03350544,0.0,0.0,0.0
348.8643,284.1974,78293471,0.6875,0.09574468,0.0,0.0,-0.0035237372,0.003401488,0.03350544,0.0,0.0,0.0
348.8643,284.1974,78293500,0.7875,0.08510638,0.010862747,0.009642099,0.013181016,0.018721193,0.042803764,0.0,0.0,0.0
348.8643,284.1974,78293534,0.7875,0.06382979,-0.011019637,-0.009206857,0.013181016,0.018721193,0.042803764,0.0,0.0,0.0
354.5746,274.82776,78293551,0.825,0.08510638,153.14359,-251.32417,0.013181016,0.018721193,0.042803764,0.0,0.0,0.0
364.8282,262.9038,78293568,0.825,0.09574468,506.5529,-707.163,0.013181016,0.018721193,0.042803764,0.0,0.0,0.0
378.90567,256.4579,78293584,0.825,0.10638297,912.24615,-846.174,0.013181016,0.018721193,0.042803764,0.0,0.0,0.0
394.1039,253.849,78293601,0.825,0.10638297,1165.0885,-413.02103,0.013181016,0.018721193,0.042803764,0.0,0.0,0.0
407.53766,253.98828,78293618,0.825,0.08510638,1152.6448,-119.029205,0.013181016,0.018721193,0.042803764,0.0,0.0,0.0
422.50882,256.06165,78293634,0.8125,0.08510638,1021.43243,306.58374,0.013181016,0.018721193,0.042803764,0.0,0.0,0.0
439.6989,262.71204,78293651,0.8,0.08510638,986.53265,458.32956,0.013181016,0.018721193,0.042803764,0.0,0.0,0.0
453.78333,269.81897,78293668,0.8125,0.08510638,957.1629,570.1242,0.013181016,0.018721193,0.042803764,0.0,0.0,0.0
465.25916,277.23364,78293685,0.8,0.11702127,864.52124,631.4703,0.013181016,0.018721193,0.042803764,0.0,0.0,0.0
472.99347,283.90393,78293701,0.8,0.12765957,565.64606,576.6068,0.013181016,0.018721193,0.042803764,0.0,0.0,0.0
478.53217,290.1825,78293718,0.8,0.12765957,260.7265,439.28275,0.013181016,0.018721193,0.042803764,0.0,0.0,0.0
482.4704,296.0138,78293735,0.8,0.10638297,54.482807,337.8832,0.013181016,0.018721193,0.042803764,0.0,0.0,0.0
486.5824,308.2328,78293751,0.7875,0.08510638,42.373215,476.4704,0.013181016,0.018721193,0.042803764,0.0,0.0,0.0
487.78113,316.80237,78293768,0.8125,0.08510638,42.31611,635.68256,0.013181016,0.018721193,0.042803764,0.0,0.0,0.0
486.81604,324.20398,78293785,0.8,0.08510638,-54.74316,609.17267,0.013181016,0.018721193,0.042803764,0.0,0.0,0.0
484.17352,329.77173,78293802,0.825,0.11702127,-192.20638,444.70667,0.013181016,0.018721193,0.042803764,0.0,0.0,0.0
481.04755,334.27783,78293818,0.8125,0.10638297,-298.8743,245.9624,0.013181016,0.018721193,0.042803764,0.0,0.0,0.0
474.24518,339.11475,78293835,0.8,0.12765957,-405.7791,149.81013,0.013181016,0.018721193,0.042803764,0.0,0.0,0.0
462.60223,344.80554,78293852,0.825,0.10638297,-611.0033,223.57597,0.013181016,0.018721193,0.042803764,0.0,0.0,0.0
450.43433,348.87952,78293868,0.825,0.12765957,-845.6325,260.99844,0.013181016,0.018721193,0.042803764,0.0,0.0,0.0
438.68137,351.26038,78293885,0.8125,0.12765957,-968.4693,225.97322,0.013181016,0.018721193,0.042803764,0.0,0.0,0.0
428.84393,352.2074,78293902,0.8125,0.12765957,-809.2367,81.386406,0.013181016,0.018721193,0.042803764,0.0,0.0,0.0
419.44293,353.5006,78293919,0.825,0.12765957,-591.8802,-24.216415,0.013181016,0.018721193,0.042803764,0.0,0.0,0.0
411.5612,354.11877,78293935,0.825,0.10638297,-437.57336,-47.912903,0.013181016,0.018721193,0.042803764,0.0,0.0,0.0
406.21216,354.38916,78293952,0.83750004,0.09574468,-335.3014,-15.26921,0.013181016,0.018721193,0.042803764,0.0,0.0,0.0
401.7559,356.76416,78293969,0.77500004,0.09574468,-212.90886,42.733162,0.013181016,0.018721193,0.042803764,0.0,0.0,0.0
399.8477,357.9431,78293978,0.3125,0.10638297,-165.0237,87.25073,0.013181016,0.018721193,0.042803764,0.0,0.0,0.0
399.8477,357.9431,78293985,0.3125,0.10638297,-165.0237,87.25073,0.013181016,0.018721193,0.042803764,0.0,0.0,0.0
458.32867,575.62646,78297688,0.6125,0.08510638,0.0,0.0,0.038701534,-0.010276765,0.03576088,0.0,0.0,0.0
458.32867,575.62646,78297712,0.65000004,0.08510638,-0.021846335,-0.031733338,0.038701534,-0.010276765,0.03576088,0.0,0.0,0.0
458.32867,575.62646,78297729,0.675,0.08510638,-0.008685433,-0.012486346,0.038701534,-0.010276765,0.03576088,0.0,0.0,0.0
458.32867,575.62646,78297745,0.675,0.09574468,-0.015839254,-0.021557659,0.038701534,-0.010276765,0.03576088,0.0,0.0,0.0
458.32867,575.62646,78297762,0.71250004,0.09574468,0.009450205,0.014475254,-0.017038763,-0.008221418,-0.0033912659,0.0,0.0,0.0
458.32867,575.62646,78297795,0.725,0.09574468,0.013890404,0.017994799,-0.017038763,-0.008221418,-0.0033912659,0.0,0.0,0.0
458.32867,575.62646,78297802,0.71250004,0.09574468,0.002016285,0.0033335628,-0.017038763,-0.008221418,-0.0033912659,0.0,0.0,0.0
458.32867,575.62646,78297824,0.7375,0.10638297,0.009341108,0.01018733,-0.017038763,-0.008221418,-0.0033912659,0.0,0.0,0.0
458.32867,575.62646,78297845,0.725,0.10638297,0.0024852455,0.0025332533,-0.017038763,-0.008221418,-0.0033912659,0.0,0.0,0.0
458.32867,575.62646,78297862,0.7625,0.10638297,-0.019200996,-0.024496488,-0.017038763,-0.008221418,-0.0033912659,0.0,0.0,0.0
458.32867,575.62646,78297875,0.7375,0.10638297,-0.027168179,-0.03496087,-0.017038763,-0.008221418,-0.0033912659,0.0,0.0,0.0
458.32867,575.62646,78297895,0.7375,0.12765957,-0.00821788,-0.009379859,-0.017038763,-0.008221418,-0.0033912659,0.0,0.0,0.0
458.32867,575.62646,78297911,0.75,0.12765957,-0.027278813,-0.03757203,-0.017038763,-0.008221418,-0.0033912659,0.0,0.0,0.0
458.32867,575.62646,78297929,0.75,0.11702127,0.028694252,0.03614352,-0.017038763,-0.008221418,-0.0033912659,0.0,0.0,0.0
458.32867,575.62646,78297946,0.7625,0.11702127,0.008374854,0.011271763,-0.017038763,-0.008221418,-0.0033912659,0.0,0.0,0.0
482.89954,558.85535,78297962,0.75,0.08510638,783.1078,-537.40344,-0.017038763,-0.008221418,-0.0033912659,0.0,0.0,0.0
490.07306,554.74304,78297979,0.7375,0.08510638,1088.0624,-714.15,-0.017038763,-0.008221418,-0.0033912659,0.0,0.0,0.0
498.063,549.7134,78297996,0.7375,0.06382979,833.83484,-521.37305,-0.017038763,-0.008221418,-0.0033912659,0.0,0.0,0.0
505.85706,545.49915,78298013,0.75,0.06382979,434.55365,-224.9956,-0.017038763,-0.008221418,-0.0033912659,0.0,0.0,0.0
514.09576,540.0073,78298029,0.75,0.07446808,195.98448,-83.00085,-0.017038763,-0.008221418,-0.0033912659,0.0,0.0,0.0
520.6327,534.38135,78298046,0.7625,0.08510638,418.6287,-305.72546,-0.017038763,-0.008221418,-0.0033912659,0.0,0.0,0.0
526.91174,528.8363,78298063,0.75,0.09574468,373.82498,-349.70245,-0.017038763,-0.008221418,-0.0033912659,0.0,0.0,0.0
533.21765,523.2816,78298079,0.75,0.10638297,335.2439,-357.68277,-0.017038763,-0.008221418,-0.0033912659,0.0,0.0,0.0
538.96246,519.537,78298096,0.7625,0.12765957,318.54947,-290.8307,-0.017038763,-0.008221418,-0.0033912659,0.0,0.0,0.0
545.70483,515.8572,78298113,0.7625,0.10638297,358.98785,-221.30948,-0.017038763,-0.008221418,-0.0033912659,0.0,0.0,0.0
551.5594,512.15625,78298130,0.77500004,0.10638297,370.06946,-184.06625,-0.017038763,-0.008221418,-0.0033912659,0.0,0.0,0.0
557.22614,509.32654,78298146,0.77500004,0.10638297,351.45462,-148.7423,-0.017038763,-0.008221418,-0.0033912659,0.0,0.0,0.0
563.61145,505.5431,78298163,0.77500004,0.09574468,355.38522,-168.5863,-0.017038763,-0.008221418,-0.0033912659,0.0,0.0,0.0
568.9106,502.86304,78298180,0.7625,0.08510638,347.86124,-180.34149,-0.017038763,-0.008221418,-0.0033912659,0.0,0.0,0.0
574.8783,498.6931,78298196,0.7625,0.08510638,351.49872,-203.4794,-0.017038763,-0.008221418,-0.0033912659,0.0,0.0,0.0
580.31494,493.14575,78298213,0.75,0.08510638,331.51556,-286.35602,-0.017038763,-0.008221418,-0.0033912659,0.0,0.0,0.0
585.4559,487.6626,78298230,0.7625,0.08510638,303.43002,-350.21136,-0.017038763,-0.008221418,-0.0033912659,0.0,0.0,0.0
590.7932,482.1012,78298247,0.77500004,0.08510638,303.18723,-395.3028,-0.017038763,-0.008221418,-0.0033912659,0.0,0.0,0.0
596.29236,476.55066,78298263,0.77500004,0.08510638,302.3682,-380.4395,-0.017038763,-0.008221418,-0.0033912659,0.0,0.0,0.0
603.4748,470.98743,78298280,0.77500004,0.09574468,353.24902,-343.44556,-0.017038763,-0.008221418,-0.0033912659,0.0,0.0,0.0
610.2914,466.33337,78298297,0.77500004,0.10638297,437.59045,-311.94305,-0.017038763,-0.008221418,-0.0033912659,0.0,0.0,0.0
617.6039,460.76038,78298313,0.7625,0.12765957,467.9918,-298.72894,-0.029631004,0.0094228685,-0.03471279,0.0,0.0,0.0
622.6574,457.11597,78298330,0.7625,0.10638297,416.45615,-255.43127,-0.029631004,0.0094228685,-0.03471279,0.0,0.0,0.0
626.7472,453.69116,78298347,0.7625,0.10638297,291.4609,-209.27501,-0.029631004,0.0094228685,-0.03471279,0.0,0.0,0.0
630.2485,450.67236,78298363,0.77500004,0.10638297,185.11325,-162.12125,-0.029631004,0.0094228685,-0.03471279,0.0,0.0,0.0
633.1765,448.21082,78298380,0.77500004,0.09574468,124.92348,-132.84709,-0.029631004,0.0094228685,-0.03471279,0.0,0.0,0.0
635.01074,446.3678,78298397,0.77500004,0.09574468,87.534195,-99.198524,-0.029631004,0.0094228685,-0.03471279,0.0,0.0,0.0
636.0526,444.51575,78298414,0.77500004,0.09574468,42.496037,-75.32559,-0.029631004,0.0094228685,-0.03471279,0.0,0.0,0.0
636.77057,442.6775,78298430,0.7875,0.09574468,-0.58766794,-74.24379,-0.029631004,0.0094228685,-0.03471279,0.0,0.0,0.0
636.77057,440.88196,78298447,0.77500004,0.09574468,-29.850586,-82.18179,-0.029631004,0.0094228685,-0.03471279,0.0,0.0,0.0
636.77057,439.68542,78298464,0.7875,0.09574468,-41.817978,-97.35717,-0.029631004,0.0094228685,-0.03471279,0.0,0.0,0.0
636.77057,438.797,78298480,0.77500004,0.09574468,-34.68972,-64.22992,-0.029631004,0.0094228685,-0.03471279,0.0,0.0,0.0
636.77057,438.797,78298494,0.7875,0.09574468,-25.626535,-20.611935,-0.029631004,0.0094228685,-0.03471279,0.0,0.0,0.0
636.77057,438.797,78298514,0.7875,0.08510638,-4.828034,29.524284,-0.029631004,0.0094228685,-0.03471279,0.0,0.0,0.0
636.77057,438.797,78298531,0.77500004,0.08510638,0.031456407,39.345608,-0.029631004,0.0094228685,-0.03471279,0.0,0.0,0.0
636.77057,438.797,78298547,0.7875,0.08510638,0.047221415,23.837017,-0.029631004,0.0094228685,-0.03471279,0.0,0.0,0.0
635.5661,438.797,78298581,0.7875,0.08510638,-33.059517,0.009552953,-0.029631004,0.0094228685,-0.03471279,0.0,0.0,0.0
634.55756,438.797,78298597,0.8125,0.08510638,-66.231766,0.014335984,-0.029631004,0.0094228685,-0.03471279,0.0,0.0,0.0
633.5216,440.12964,78298614,0.8,0.08510638,-83.81647,38.61938,-0.029631004,0.0094228685,-0.03471279,0.0,0.0,0.0
633.4772,440.57397,78298631,0.8,0.10638297,-47.3862,65.65874,-0.029631004,0.0094228685,-0.03471279,0.0,0.0,0.0
632.5219,441.90674,78298646,0.8125,0.10638297,-38.996838,82.185295,-0.029631004,0.0094228685,-0.03471279,0.0,0.0,0.0
632.39795,442.1272,78298664,0.8,0.10638297,-9.530106,59.60673,-0.029631004,0.0094228685,-0.03471279,0.0,0.0,0.0
632.27203,442.35095,78298681,0.8,0.10638297,-7.61127,26.765202,-0.029631004,0.0094228685,-0.03471279,0.0,0.0,0.0
632.27203,443.68384,78298695,0.8125,0.10638297,-1.2317339,29.77572,-0.029631004,0.0094228685,-0.03471279,0.0,0.0,0.0
632.27203,443.2395,78298714,0.7875,0.10638297,16.759518,16.782967,-0.029631004,0.0094228685,-0.03471279,0.0,0.0,0.0
632.27203,444.57214,78298727,0.8,0.10638297,13.823427,30.125355,-0.029631004,0.0094228685,-0.03471279,0.0,0.0,0.0
632.27203,445.45813,78298747,0.8,0.10638297,6.6398168,55.516773,-0.029631004,0.0094228685,-0.03471279,0.0,0.0,0.0
632.27203,445.90503,78298765,0.8,0.10638297,-0.020800242,56.222847,-0.029631004,0.0094228685,-0.03471279,0.0,0.0,0.0
632.27203,448.04126,78298781,0.7875,0.12765957,-0.012934573,82.594055,-0.029631004,0.0094228685,-0.03471279,0.0,0.0,0.0
632.27203,448.9021,78298798,0.7875,0.12765957,-0.0053869192,76.54684,-0.029631004,0.0094228685,-0.03471279,0.0,0.0,0.0
632.50055,449.86523,78298815,0.8,0.12765957,3.7768993,83.13518,-0.029631004,0.0094228685,-0.03471279,0.0,0.0,0.0
633.2717,451.71338,78298831,0.77500004,0.12765957,33.290146,93.2471,0.024295196,-0.008461714,0.020230293,0.0,0.0,0.0
633.2717,453.5548,78298848,0.8,0.12765957,35.28716,106.76085,0.024295196,-0.008461714,0.020230293,0.0,0.0,0.0
633.2717,454.79004,78298865,0.7875,0.12765957,16.118504,116.614265,0.024295196,-0.008461714,0.020230293,0.0,0.0,0.0
633.6593,455.47888,78298882,0.7875,0.12765957,0.10006819,65.61786,0.024295196,-0.008461714,0.020230293,0.0,0.0,0.0
633.77155,457.32385,78298898,0.8,0.12765957,1.176586,59.412792,0.024295196,-0.008461714,0.020230293,0.0,0.0,0.0
633.77155,457.45557,78298911,0.8,0.10638297,5.6500373,46.040615,0.024295196,-0.008461714,0.020230293,0.0,0.0,0.0
633.77155,457.45557,78298932,0.8,0.10638297,3.132779,8.7977,0.024295196,-0.008461714,0.020230293,0.0,0.0,0.0
633.77155,457.45557,78298948,0.7875,0.10638297,-5.8265905,-15.486088,0.024295196,-0.008461714,0.020230293,0.0,0.0,0.0
634.3607,458.5028,78298965,0.7875,0.11702127,6.2798877,-14.212115,0.024295196,-0.008461714,0.020230293,0.0,0.0,0.0
634.77124,459.23254,78298982,0.8,0.10638297,34.959248,39.20299,0.024295196,-0.008461714,0.020230293,0.0,0.0,0.0
635.4302,459.5155,78298999,0.7875,0.11702127,47.323193,54.80285,0.024295196,-0.008461714,0.020230293,0.0,0.0,0.0
635.7709,460.1211,78299015,0.7875,0.11702127,41.884624,43.217415,0.024295196,-0.008461714,0.020230293,0.0,0.0,0.0
635.7709,460.1211,78299032,0.7875,0.11702127,4.896139,-1.2513589,0.024295196,-0.008461714,0.020230293,0.0,0.0,0.0
635.7709,461.00952,78299049,0.8125,0.11702127,-12.316424,11.669235,0.024295196,-0.008461714,0.020230293,0.0,0.0,0.0
635.7709,461.00952,78299064,0.7875,0.11702127,-14.340373,21.541355,0.024295196,-0.008461714,0.020230293,0.0,0.0,0.0
636.27075,461.00952,78299099,0.7875,0.11702127,15.188347,-1.113338,0.024295196,-0.008461714,0.020230293,0.0,0.0,0.0
636.27075,461.00952,78299113,0.7875,0.11702127,16.31791,-13.542977,0.024295196,-0.008461714,0.020230293,0.0,0.0,0.0
637.2509,461.00952,78299132,0.8,0.11702127,35.020782,-10.838642,0.024295196,-0.008461714,0.020230293,0.0,0.0,0.0
637.77026,461.89807,78299149,0.7875,0.11702127,47.571987,29.213507,0.024295196,-0.008461714,0.020230293,0.0,0.0,0.0
638.52,461.89807,78299161,0.7875,0.09574468,54.433292,33.01454,0.024295196,-0.008461714,0.020230293,0.0,0.0,0.0
639.3743,462.9723,78299182,0.77500004,0.09574468,51.550175,42.31686,0.024295196,-0.008461714,0.020230293,0.0,0.0,0.0
639.7696,463.67505,78299199,0.77500004,0.09574468,41.993496,57.365932,0.024295196,-0.008461714,0.020230293,0.0,0.0,0.0
640.4422,464.87073,78299216,0.7875,0.09574468,28.438995,61.034763,0.024295196,-0.008461714,0.020230293,0.0,0.0,0.0
640.7693,466.06702,78299232,0.7875,0.09574468,27.477886,82.57953,0.024295196,-0.008461714,0.020230293,0.0,0.0,0.0
640.7693,467.22913,78299249,0.77500004,0.09574468,8.4172325,86.097565,0.024295196,-0.008461714,0.020230293,0.0,0.0,0.0
640.7693,467.22913,78299257,0.7875,0.09574468,0.90200454,70.69548,0.024295196,-0.008461714,0.020230293,0.0,0.0,0.0
640.7693,467.22913,78299297,0.7875,0.09574468,-15.487426,-33.928707,0.024295196,-0.008461714,0.020230293,0.0,0.0,0.0
640.7693,467.22913,78299316,0.8,0.09574468,-7.538436E-4,-33.980625,0.024295196,-0.008461714,0.020230293,0.0,0.0,0.0
640.7693,467.22913,78299333,0.8,0.09574468,-0.025099345,-10.925311,0.024295196,-0.008461714,0.020230293,0.0,0.0,0.0
639.7731,467.22913,78299349,0.77500004,0.09574468,-25.632185,-0.017703041,0.024295196,-0.008461714,0.020230293,0.0,0.0,0.0
638.7359,467.22913,78299366,0.7875,0.10638297,-75.81534,0.011509392,-0.012563825,-0.022769362,-0.015815735,0.0,0.0,0.0
636.618,467.22913,78299383,0.7875,0.10638297,-116.77789,-0.008074534,-0.012563825,-0.022769362,-0.015815735,0.0,0.0,0.0
631.59784,467.22913,78299400,0.7875,0.09574468,-239.4174,-0.012674903,-0.012563825,-0.022769362,-0.015815735,0.0,0.0,0.0
624.72424,467.22913,78299416,0.8,0.09574468,-392.88034,-0.013394615,-0.012563825,-0.022769362,-0.015815735,0.0,0.0,0.0
615.51697,468.4651,78299433,0.77500004,0.08510638,-575.3866,27.794233,-0.012563825,-0.022769362,-0.015815735,0.0,0.0,0.0
607.1932,471.60718,78299450,0.77500004,0.08510638,-667.274,132.3185,-0.012563825,-0.022769362,-0.015815735,0.0,0.0,0.0
598.885,475.78247,78299466,0.7625,0.09574468,-629.19293,260.11154,-0.012563825,-0.022769362,-0.015815735,0.0,0.0,0.0
590.4758,482.77576,78299483,0.7625,0.08510638,-538.2982,417.00793,-0.012563825,-0.022769362,-0.015815735,0.0,0.0,0.0
581.2079,490.8462,78299500,0.7625,0.08510638,-518.61536,548.45844,-0.012563825,-0.022769362,-0.015815735,0.0,0.0,0.0
570.436,498.40222,78299517,0.77500004,0.09574468,-588.92206,593.6026,-0.012563825,-0.022769362,-0.015815735,0.0,0.0,0.0
559.036,505.79712,78299533,0.7625,0.12765957,-690.3131,553.80725,-0.012563825,-0.022769362,-0.015815735,0.0,0.0,0.0
550.5545,511.45935,78299550,0.77500004,0.10638297,-690.55396,441.108,-0.012563825,-0.022769362,-0.015815735,0.0,0.0,0.0
543.7552,517.03394,78299567,0.77500004,0.09574468,-508.66318,320.36975,-0.012563825,-0.022769362,-0.015815735,0.0,0.0,0.0
537.97107,527.43225,78299583,0.7625,0.08510638,-316.89496,397.54144,-0.012563825,-0.022769362,-0.015815735,0.0,0.0,0.0
534.52936,538.3965,78299600,0.7625,0.09574468,-162.5744,605.9255,-0.012563825,-0.022769362,-0.015815735,0.0,0.0,0.0
533.676,546.32776,78299617,0.77500004,0.11702127,-29.018108,691.8672,-0.012563825,-0.022769362,-0.015815735,0.0,0.0,0.0
533.96136,552.47546,78299634,0.7625,0.11702127,76.13994,585.83026,-0.012563825,-0.022769362,-0.015815735,0.0,0.0,0.0
535.2128,556.8065,78299650,0.7625,0.12765957,169.66614,332.90656,-0.012563825,-0.022769362,-0.015815735,0.0,0.0,0.0
537.293,559.6157,78299667,0.75,0.12765957,217.54852,55.885536,-0.012563825,-0.022769362,-0.015815735,0.0,0.0,0.0
542.06366,564.69495,78299684,0.77500004,0.10638297,257.3772,95.9588,-0.012563825,-0.022769362,-0.015815735,0.0,0.0,0.0
548.6932,568.75183,78299700,0.75,0.09574468,410.74466,191.72925,-0.012563825,-0.022769362,-0.015815735,0.0,0.0,0.0
556.3363,572.47327,78299717,0.77500004,0.08510638,540.91736,243.7303,-0.012563825,-0.022769362,-0.015815735,0.0,0.0,0.0
563.6898,575.4474,78299734,0.7625,0.08510638,588.8178,230.69989,-0.012563825,-0.022769362,-0.015815735,0.0,0.0,0.0
570.9345,576.515,78299750,0.7625,0.08510638,538.69214,117.0049,-0.012563825,-0.022769362,-0.015815735,0.0,0.0,0.0
576.21857,576.515,78299767,0.7625,0.08510638,412.63904,-13.952824,-0.012563825,-0.022769362,-0.015815735,0.0,0.0,0.0
580.3766,576.515,78299784,0.7625,0.11702127,277.66797,-73.19614,-0.012563825,-0.022769362,-0.015815735,0.0,0.0,0.0
584.5451,575.5121,78299801,0.75,0.11702127,185.76292,-108.15618,-0.012563825,-0.022769362,-0.015815735,0.0,0.0,0.0
588.683,573.6732,78299817,0.7375,0.10638297,168.96552,-131.12254,-0.012563825,-0.022769362,-0.015815735,0.0,0.0,0.0
594.3,570.7258,78299834,0.75,0.12765957,241.56085,-174.4585,-0.012563825,-0.022769362,-0.015815735,0.0,0.0,0.0
599.6425,567.0187,78299851,0.75,0.12765957,317.94583,-248.8352,-0.012563825,-0.022769362,-0.015815735,0.0,0.0,0.0
605.36475,563.3054,78299867,0.7625,0.09574468,365.4552,-285.77145,-0.012563825,-0.022769362,-0.015815735,0.0,0.0,0.0
611.0452,558.2833,78299884,0.75,0.08510638,369.76425,-304.58084,-0.012563825,-0.022769362,-0.015815735,0.0,0.0,0.0
616.6913,551.40344,78299901,0.7375,0.06382979,354.7764,-381.5416,0.021948934,-0.018215477,-0.012652397,0.0,0.0,0.0
622.7965,543.91113,78299918,0.7375,0.06382979,361.24268,-476.20462,0.021948934,-0.018215477,-0.012652397,0.0,0.0,0.0
627.15045,537.41833,78299934,0.75,0.08510638,315.2443,-509.37518,0.021948934,-0.018215477,-0.012652397,0.0,0.0,0.0
630.91516,530.94763,78299951,0.7625,0.10638297,246.27602,-456.36542,0.021948934,-0.018215477,-0.012652397,0.0,0.0,0.0
634.6212,524.36,78299968,0.75,0.12765957,188.89558,-396.7744,0.021948934,-0.018215477,-0.012652397,0.0,0.0,0.0
637.75757,518.7848,78299984,0.725,0.12765957,151.2958,-349.50803,0.021948934,-0.018215477,-0.012652397,0.0,0.0,0.0
640.87396,513.2451,78300001,0.7625,0.09574468,152.23338,-324.1106,0.021948934,-0.018215477,-0.012652397,0.0,0.0,0.0
643.9995,506.80078,78300018,0.75,0.08510638,166.3043,-337.2502,0.021948934,-0.018215477,-0.012652397,0.0,0.0,0.0
647.30896,498.90015,78300035,0.75,0.08510638,169.04124,-384.99765,0.021948934,-0.018215477,-0.012652397,0.0,0.0,0.0
648.9329,490.92493,78300051,0.7625,0.08510638,152.18877,-487.3307,0.021948934,-0.018215477,-0.012652397,0.0,0.0,0.0
649.2665,486.1145,78300068,0.7625,0.08510638,71.46337,-464.4992,0.021948934,-0.018215477,-0.012652397,0.0,0.0,0.0
649.2665,482.39893,78300085,0.77500004,0.09574468,-31.88249,-294.5049,0.021948934,-0.018215477,-0.012652397,0.0,0.0,0.0
648.99835,480.08008,78300101,0.7625,0.09574468,-78.96207,-117.59916,0.021948934,-0.018215477,-0.012652397,0.0,0.0,0.0
648.76666,478.23535,78300118,0.77500004,0.09574468,-77.24588,7.009192,0.021948934,-0.018215477,-0.012652397,0.0,0.0,0.0
648.76666,476.3822,78300135,0.7875,0.09574468,-29.904993,-15.712877,0.021948934,-0.018215477,-0.012652397,0.0,0.0,0.0
648.76666,474.54553,78300152,0.77500004,0.09574468,-10.646989,-49.249462,0.021948934,-0.018215477,-0.012652397,0.0,0.0,0.0
648.76666,474.33704,78300167,0.7875,0.09574468,3.118625,-43.20041,0.021948934,-0.018215477,-0.012652397,0.0,0.0,0.0
648.76666,474.33704,78300202,0.7875,0.09574468,0.012891425,42.378204,0.021948934,-0.018215477,-0.012652397,0.0,0.0,0.0
648.76666,474.33704,78300218,0.7875,0.09574468,0.036995582,54.96452,0.021948934,-0.018215477,-0.012652397,0.0,0.0,0.0
648.76666,474.33704,78300235,0.8,0.09574468,0.006840754,27.495306,0.021948934,-0.018215477,-0.012652397,0.0,0.0,0.0
648.76666,474.33704,78300244,0.7875,0.09574468,-0.014496174,8.375474,0.021948934,-0.018215477,-0.012652397,0.0,0.0,0.0
648.76666,474.33704,78300269,0.7875,0.09574468,0.013608692,0.009631938,0.021948934,-0.018215477,-0.012652397,0.0,0.0,0.0
648.76666,474.7633,78300302,0.8125,0.09574468,-0.016732333,7.602439,0.021948934,-0.018215477,-0.012652397,0.0,0.0,0.0
648.76666,476.61426,78300319,0.8,0.09574468,-0.010475628,70.60755,0.021948934,-0.018215477,-0.012652397,0.0,0.0,0.0
648.76666,478.46033,78300335,0.7875,0.09574468,0.0018369784,129.79979,0.021948934,-0.018215477,-0.012652397,0.0,0.0,0.0
648.76666,480.8966,78300352,0.7875,0.09574468,-0.009066154,171.99933,0.021948934,-0.018215477,-0.012652397,0.0,0.0,0.0
648.76666,484.55603,78300369,0.7875,0.09574468,-0.069722414,208.23483,0.021948934,-0.018215477,-0.012652397,0.0,0.0,0.0
647.82465,488.34802,78300385,0.77500004,0.09574468,-22.600449,255.99683,0.021948934,-0.018215477,-0.012652397,0.0,0.0,0.0
646.7862,492.04028,78300402,0.77500004,0.09574468,-61.645912,277.9169,0.021948934,-0.018215477,-0.012652397,0.0,0.0,0.0
645.7488,495.72815,78300419,0.77500004,0.11702127,-86.37026,260.8655,0.021948934,-0.018215477,-0.012652397,0.0,0.0,0.0
645.2062,499.43433,78300436,0.77500004,0.12765957,-72.2389,230.96149,0.021948934,-0.018215477,-0.012652397,0.0,0.0,0.0
644.1701,503.11755,78300452,0.7625,0.12765957,-56.799206,218.57637,0.0015591681,0.017427623,0.037877083,0.0,0.0,0.0
643.63354,507.93054,78300469,0.75,0.12765957,-36.80094,247.41713,0.0015591681,0.017427623,0.037877083,0.0,0.0,0.0
642.59576,512.5759,78300486,0.75,0.11702127,-46.24157,281.75583,0.0015591681,0.017427623,0.037877083,0.0,0.0,0.0
642.057,515.9612,78300502,0.77500004,0.09574468,-44.83614,275.76865,0.0015591681,0.017427623,0.037877083,0.0,0.0,0.0
641.0128,521.0176,78300519,0.7625,0.09574468,-48.85164,270.76816,0.0015591681,0.017427623,0.037877083,0.0,0.0,0.0
640.47424,527.9678,78300536,0.7625,0.08510638,-49.16623,336.9435,0.0015591681,0.017427623,0.037877083,0.0,0.0,0.0
640.2694,535.1398,78300553,0.7375,0.07446808,-26.06732,440.0581,0.0015591681,0.017427623,0.037877083,0.0,0.0,0.0
640.2694,541.8533,78300569,0.75,0.09574468,-0.97854185,499.01068,0.0015591681,0.017427623,0.037877083,0.0,0.0,0.0
640.2694,547.7803,78300586,0.75,0.08510638,23.787851,462.4057,0.0015591681,0.017427623,0.037877083,0.0,0.0,0.0
640.2694,552.31836,78300603,0.7625,0.11702127,19.33754,323.99997,0.0015591681,0.017427623,0.037877083,0.0,0.0,0.0
640.75903,556.04285,78300619,0.7375,0.12765957,17.514862,209.1309,0.0015591681,0.017427623,0.037877083,0.0,0.0,0.0
641.80005,560.68774,78300636,0.75,0.12765957,47.49231,179.53676,0.0015591681,0.017427623,0.037877083,0.0,0.0,0.0
643.93256,564.3679,78300653,0.7375,0.11702127,107.136185,190.2684,0.0015591681,0.017427623,0.037877083,0.0,0.0,0.0
644.88196,566.05554,78300670,0.75,0.10638297,125.5555,159.50198,0.0015591681,0.017427623,0.037877083,0.0,0.0,0.0
648.81586,569.8949,78300686,0.75,0.10638297,180.58545,151.02992,0.0015591681,0.017427623,0.037877083,0.0,0.0,0.0
656.5646,574.17957,78300703,0.75,0.08510638,344.11816,194.51872,0.0015591681,0.017427623,0.037877083,0.0,0.0,0.0
664.5552,575.62646,78300720,0.75,0.08510638,550.2685,183.07608,0.0015591681,0.017427623,0.037877083,0.0,0.0,0.0
672.1188,575.62646,78300736,0.7625,0.09574468,638.7515,70.75448,0.0015591681,0.017427623,0.037877083,0.0,0.0,0.0
680.20807,574.19336,78300753,0.75,0.10638297,584.5746,-103.424194,0.0015591681,0.017427623,0.037877083,0.0,0.0,0.0
686.383,571.80334,78300770,0.7375,0.12765957,459.34885,-221.13248,0.0015591681,0.017427623,0.037877083,0.0,0.0,0.0
692.16174,567.57214,78300787,0.725,0.12765957,335.95795,-278.62982,0.0015591681,0.017427623,0.037877083,0.0,0.0,0.0
699.24835,561.8563,78300803,0.7375,0.10638297,332.57376,-373.64005,0.0015591681,0.017427623,0.037877083,0.0,0.0,0.0
709.3878,551.15454,78300820,0.725,0.07446808,444.8007,-553.5295,0.0015591681,0.017427623,0.037877083,0.0,0.0,0.0
720.81744,537.3248,78300837,0.725,0.08510638,666.43475,-841.4309,0.0015591681,0.017427623,0.037877083,0.0,0.0,0.0
731.0441,523.67285,78300853,0.75,0.12765957,771.87427,-1019.759,0.0015591681,0.017427623,0.037877083,0.0,0.0,0.0
737.7436,513.57056,78300870,0.7375,0.08510638,633.5652,-944.82745,0.0015591681,0.017427623,0.037877083,0.0,0.0,0.0
745.6566,499.1499,78300887,0.75,0.08510638,460.82007,-833.9889,0.0015591681,0.017427623,0.037877083,0.0,0.0,0.0
750.8394,484.27246,78300904,0.75,0.09574468,290.0107,-817.778,0.0015591681,0.017427623,0.037877083,0.0,0.0,0.0
754.0374,476.1029,78300920,0.75,0.11702127,177.74496,-735.8207,0.0015591681,0.017427623,0.037877083,0.0,0.0,0.0
756.4715,469.50415,78300937,0.7375,0.12765957,110.78852,-522.0786,0.0015591681,0.017427623,0.037877083,0.0,0.0,0.0
757.2313,465.35742,78300954,0.75,0.12765957,-8.660637,-183.0509,0.0015591681,0.017427623,0.037877083,0.0,0.0,0.0
756.41394,463.11047,78300970,0.75,0.12765957,-100.15035,43.878513,0.0015591681,0.017427623,0.037877083,0.0,0.0,0.0
755.3804,461.27332,78300987,0.75,0.12765957,-153.14093,56.59364,0.03324732,-0.018057883,0.014302254,0.0,0.0,0.0
753.05444,461.70752,78301004,0.77500004,0.11702127,-184.8414,66.66505,0.03324732,-0.018057883,0.014302254,0.0,0.0,0.0
747.2023,466.75427,78301020,0.7625,0.08510638,-281.24103,213.25443,0.03324732,-0.018057883,0.014302254,0.0,0.0,0.0
736.4931,481.07422,78301037,0.7625,0.06382979,-531.7806,619.7314,0.03324732,-0.018057883,0.014302254,0.0,0.0,0.0
724.897,497.94897,78301054,0.725,0.10638297,-789.6732,1116.6703,0.03324732,-0.018057883,0.014302254,0.0,0.0,0.0
708.2496,529.67346,78301071,0.7375,0.08510638,-1045.4834,1763.9614,0.03324732,-0.018057883,0.014302254,0.0,0.0,0.0
698.4368,550.7385,78301087,0.7375,0.10638297,-1023.2523,2029.7871,0.03324732,-0.018057883,0.014302254,0.0,0.0,0.0
688.8151,571.7136,78301104,0.75,0.08510638,-785.8246,1807.697,0.03324732,-0.018057883,0.014302254,0.0,0.0,0.0
677.3985,598.1919,78301121,0.7375,0.08510638,-635.4576,1635.8987,0.03324732,-0.018057883,0.014302254,0.0,0.0,0.0
667.76697,618.89124,78301137,0.7375,0.09574468,-528.8275,1364.9501,0.03324732,-0.018057883,0.014302254,0.0,0.0,0.0
659.1441,641.3883,78301154,0.725,0.07446808,-518.52905,1269.5477,0.03324732,-0.018057883,0.014302254,0.0,0.0,0.0
652.97455,658.803,78301171,0.7375,0.10638297,-438.141,1209.7845,0.03324732,-0.018057883,0.014302254,0.0,0.0,0.0
648.1185,671.0917,78301188,0.75,0.12765957,-245.88567,787.41235,0.03324732,-0.018057883,0.014302254,0.0,0.0,0.0
644.3724,682.4131,78301204,0.75,0.09574468,-148.43372,543.49603,0.03324732,-0.018057883,0.014302254,0.0,0.0,0.0
641.06714,692.0265,78301221,0.7375,0.07446808,-94.22519,351.45712,0.03324732,-0.018057883,0.014302254,0.0,0.0,0.0
639.3473,697.8264,78301238,0.7375,0.07446808,-66.8478,247.04472,0.03324732,-0.018057883,0.014302254,0.0,0.0,0.0
637.7795,701.7612,78301254,0.75,0.07446808,-48.61938,198.96497,0.03324732,-0.018057883,0.014302254,0.0,0.0,0.0
636.739,703.62695,78301271,0.75,0.07446808,-20.834044,34.593033,0.03324732,-0.018057883,0.014302254,0.0,0.0,0.0
636.77057,703.5709,78301288,0.75,0.07446808,16.580227,-98.73014,0.03324732,-0.018057883,0.014302254,0.0,0.0,0.0
636.87384,702.3152,78301305,0.7375,0.08510638,38.048595,-166.97052,0.03324732,-0.018057883,0.014302254,0.0,0.0,0.0
639.96356,693.6013,78301321,0.7375,0.11702127,118.11478,-374.60434,0.03324732,-0.018057883,0.014302254,0.0,0.0,0.0
645.13464,678.8939,78301338,0.75,0.11702127,279.3952,-794.68164,0.03324732,-0.018057883,0.014302254,0.0,0.0,0.0
653.8081,658.8292,78301355,0.7375,0.07446808,514.82855,-1315.2191,0.03324732,-0.018057883,0.014302254,0.0,0.0,0.0
661.34686,639.8745,78301371,0.7625,0.08510638,642.3969,-1582.6501,0.03324732,-0.018057883,0.014302254,3.355443E-6,0.0,0.0
667.40204,625.5127,78301388,0.75,0.10638297,575.1334,-1351.257,0.03324732,-0.018057883,0.014302254,3.355443E-6,0.0,0.0
677.8468,599.9606,78301405,0.7375,0.07446808,530.55273,-1232.1198,0.03324732,-0.018057883,0.014302254,3.355443E-6,0.0,0.0
686.3494,578.1537,78301422,0.7375,0.10638297,549.92694,-1355.9807,0.03324732,-0.018057883,0.014302254,3.355443E-6,0.0,0.0
694.0063,555.7328,78301438,0.7375,0.09574468,537.6311,-1443.7174,0.03324732,-0.018057883,0.014302254,3.355443E-6,0.0,0.0
701.9386,532.78015,78301455,0.75,0.09574468,518.04,-1570.967,0.03324732,-0.018057883,0.014302254,0.0,0.0,0.0
708.2535,521.4181,78301472,0.7625,0.09574468,402.34882,-1076.7139,0.03324732,-0.018057883,0.014302254,0.0,0.0,0.0
721.28436,504.7688,78301488,0.7625,0.06382979,523.39716,-755.3851,0.03324732,-0.018057883,0.014302254,0.0,0.0,0.0
732.5892,490.25757,78301505,0.75,0.07446808,720.3167,-692.055,-0.037402138,0.0015536845,0.027441025,0.0,0.0,0.0
743.53894,478.61548,78301522,0.7625,0.09574468,796.8887,-623.7822,-0.037402138,0.0015536845,0.027441025,0.0,0.0,0.0
760.5238,468.29834,78301539,0.75,0.12765957,912.4721,-624.9804,-0.037402138,0.0015536845,0.027441025,0.0,0.0,0.0
781.38257,459.10852,78301555,0.7625,0.12765957,1169.4415,-533.38806,-0.037402138,0.0015536845,0.027441025,0.0,0.0,0.0
795.56903,454.83435,78301572,0.7625,0.12765957,1246.4785,-288.29202,-0.037402138,0.0015536845,0.027441025,0.0,0.0,0.0
807.0816,452.52222,78301589,0.7625,0.11702127,984.04895,-90.26873,-0.037402138,0.0015536845,0.027441025,0.0,0.0,0.0
819.167,451.23596,78301605,0.77500004,0.10638297,644.3672,67.87883,-0.037402138,0.0015536845,0.027441025,0.0,0.0,0.0
828.34784,451.23596,78301622,0.7625,0.10638297,406.9617,159.93579,-0.037402138,0.0015536845,0.027441025,0.0,0.0,0.0
836.3894,453.48706,78301639,0.77500004,0.10638297,410.44778,169.10693,-0.037402138,0.0015536845,0.027441025,0.0,0.0,0.0
842.2217,457.91565,78301655,0.7625,0.10638297,327.51947,267.12088,-0.037402138,0.0015536845,0.027441025,0.0,0.0,0.0
846.0893,466.82715,78301672,0.75,0.08510638,187.6108,457.6245,-0.037402138,0.0015536845,0.027441025,0.0,0.0,0.0
847.714,478.0204,78301689,0.7375,0.07446808,61.927616,747.1059,-0.037402138,0.0015536845,0.027441025,0.0,0.0,0.0
845.5538,489.9707,78301706,0.75,0.08510638,-119.83134,909.18854,-0.037402138,0.0015536845,0.027441025,0.0,0.0,0.0
840.7662,498.94934,78301722,0.75,0.10638297,-334.8406,845.2321,-0.037402138,0.0015536845,0.027441025,0.0,0.0,0.0
834.2105,505.6521,78301739,0.7625,0.10638297,-510.59943,585.31866,-0.037402138,0.0015536845,0.027441025,0.0,0.0,0.0
825.1046,513.81006,78301756,0.75,0.08510638,-651.94666,390.7661,-0.037402138,0.0015536845,0.027441025,0.0,0.0,0.0
816.0915,521.97925,78301772,0.7625,0.08510638,-708.6969,364.32996,-0.037402138,0.0015536845,0.027441025,0.0,0.0,0.0
806.2806,529.55566,78301789,0.75,0.07446808,-679.2545,444.6209,-0.037402138,0.0015536845,0.027441025,0.0,0.0,0.0
791.6962,538.0646,78301806,0.75,0.06382979,-797.5744,519.88043,-0.037402138,0.0015536845,0.027441025,0.0,0.0,0.0
778.2949,542.1387,78301823,0.7625,0.07446808,-908.90515,385.7973,-0.037402138,0.0015536845,0.027441025,0.0,0.0,0.0
764.9355,545.1416,78301839,0.75,0.08510638,-940.50964,204.85638,-0.037402138,0.0015536845,0.027441025,0.0,0.0,0.0
754.33746,545.41736,78301856,0.7625,0.07446808,-813.7647,-5.918025,-0.037402138,0.0015536845,0.027441025,0.0,0.0,0.0
744.38666,544.64453,78301873,0.77500004,0.06382979,-595.34143,-157.53047,-0.037402138,0.0015536845,0.027441025,0.0,0.0,0.0
736.8258,541.02686,78301889,0.7625,0.06382979,-457.91995,-258.4069,-0.037402138,0.0015536845,0.027441025,0.0,0.0,0.0
732.6832,537.3544,78301906,0.7625,0.08510638,-275.83786,-331.48248,-0.037402138,0.0015536845,0.027441025,0.0,0.0,0.0
730.11884,534.6476,78301923,0.77500004,0.08510638,-92.60271,-320.26254,-0.037402138,0.0015536845,0.027441025,0.0,0.0,0.0
729.1356,532.7919,78301940,0.7625,0.08510638,48.719845,-218.24998,-0.037402138,0.0015536845,0.027441025,0.0,0.0,0.0
728.2408,530.9607,78301956,0.7625,0.08510638,105.611465,-111.509285,-0.037402138,0.0015536845,0.027441025,0.0,0.0,0.0
728.2408,529.11487,78301973,0.77500004,0.08510638,86.977745,-61.024338,-0.037402138,0.0015536845,0.027441025,0.0,0.0,0.0
728.7406,527.25916,78301990,0.77500004,0.08510638,62.9024,-84.801445,-0.037402138,0.0015536845,0.027441025,0.0,0.0,0.0
728.7406,525.87024,78302006,0.77500004,0.08510638,53.04675,-103.12736,-0.037402138,0.0015536845,0.027441025,0.0,0.0,0.0
729.527,524.9818,78302023,0.7625,0.08510638,54.15242,-68.6559,-0.037402138,0.0015536845,0.027441025,0.0,0.0,0.0
729.7403,524.9818,78302040,0.4625,0.08510638,42.45275,-12.767697,-0.0619217,0.0012429357,0.0059537888,0.0,0.0,0.0
729.7403,524.9818,78302042,0.16250001,0.07446808,38.969498,-5.264429,-0.0619217,0.0012429357,0.0059537888,0.0,0.0,0.0
729.7403,524.9818,78302051,0.16250001,0.07446808,38.969498,-5.264429,-0.0619217,0.0012429357,0.0059537888,0.0,0.0,0.0
895.6863,455.67847,78302852,0.71250004,0.10638297,0.0,0.0,0.030462623,-0.015005648,0.020762444,0.0,0.0,0.0
895.6863,455.67847,78302875,0.7375,0.10638297,0.14627178,0.07312771,0.030462623,-0.015005648,0.020762444,0.0,0.0,0.0
895.6863,455.67847,78302892,0.75,0.10638297,0.012580058,0.0050822003,0.030462623,-0.015005648,0.020762444,0.0,0.0,0.0
895.6863,455.67847,78302926,0.75,0.10638297,-0.015481257,-0.009359265,0.030462623,-0.015005648,0.020762444,0.0,0.0,0.0
895.6863,455.67847,78302942,0.75,0.09574468,0.0029706222,0.0010643292,0.030462623,-0.015005648,0.020762444,0.0,0.0,0.0
885.1049,481.54138,78302959,0.75,0.07446808,-320.8142,784.096,0.030462623,-0.015005648,0.020762444,0.0,0.0,0.0
881.1177,492.11194,78302976,0.7625,0.10638297,-523.3698,1308.1686,0.030462623,-0.015005648,0.020762444,0.0,0.0,0.0
877.1431,504.49097,78302992,0.7375,0.12765957,-469.2961,1290.2025,0.030462623,-0.015005648,0.020762444,0.0,0.0,0.0
871.7065,519.614,78303009,0.7375,0.08510638,-404.84283,1148.7834,0.030462623,-0.015005648,0.020762444,0.0,0.0,0.0
866.2494,540.2705,78303026,0.725,0.08510638,-276.13965,999.91437,0.030462623,-0.015005648,0.020762444,0.0,0.0,0.0
862.71576,553.9286,78303042,0.75,0.12765957,-228.3251,989.4571,0.030462623,-0.015005648,0.020762444,0.0,0.0,0.0
857.9906,568.83813,78303059,0.7375,0.10638297,-246.04532,997.8785,0.030462623,-0.015005648,0.020762444,0.0,0.0,0.0
853.17926,589.7462,78303076,0.7625,0.07446808,-235.2371,998.0313,0.030462623,-0.015005648,0.020762444,0.0,0.0,0.0
847.4837,605.9231,78303093,0.75,0.09574468,-292.59155,1047.5077,0.030462623,-0.015005648,0.020762444,0.0,0.0,0.0
842.7611,620.7356,78303109,0.7375,0.09574468,-345.444,1058.8867,-0.007629901,-0.0120045245,-0.015390396,0.0,0.0,0.0
838.5728,638.338,78303126,0.7375,0.06382979,-299.77728,1000.202,-0.007629901,-0.0120045245,-0.015390396,0.0,0.0,0.0
835.01105,652.8463,78303143,0.75,0.08510638,-226.3123,881.50714,-0.007629901,-0.0120045245,-0.015390396,0.0,0.0,0.0
832.99115,662.5773,78303159,0.71250004,0.10638297,-142.32683,728.887,-0.007629901,-0.0120045245,-0.015390396,0.0,0.0,0.0
831.5379,671.3115,78303176,0.675,0.10638297,-65.964386,524.7216,-0.007629901,-0.0120045245,-0.015390396,0.0,0.0,0.0
831.7071,679.5813,78303190,0.175,0.08510638,-1.5853674,410.34546,-0.007629901,-0.0120045245,-0.015390396,0.0,0.0,0.0
831.7071,679.5813,78303197,0.175,0.08510638,-1.5853674,410.34546,-0.007629901,-0.0120045245,-0.015390396,0.0,0.0,0.0
847.7019,475.2256,78303407,0.6375,0.06382979,0.0,0.0,-0.007629901,-0.0120045245,-0.015390396,0.0,0.0,0.0
847.7019,475.2256,78303427,0.675,0.08510638,-0.19008395,-0.110294685,-0.007629901,-0.0120045245,-0.015390396,0.0,0.0,0.0
847.7019,475.2256,78303443,0.71250004,0.09574468,0.020485668,0.010798582,-0.007629901,-0.0120045245,-0.015390396,0.0,0.0,0.0
847.7019,475.2256,78303460,0.7375,0.10638297,4.71938E-4,-5.0802715E-4,-0.007629901,-0.0120045245,-0.015390396,0.0,0.0,0.0
850.2345,456.44836,78303477,0.75,0.10638297,97.5842,-790.85583,-0.007629901,-0.0120045245,-0.015390396,0.0,0.0,0.0
855.3774,447.1571,78303494,0.7375,0.08510638,244.81659,-1025.7599,-0.007629901,-0.0120045245,-0.015390396,0.0,0.0,0.0
868.12775,432.77295,78303510,0.7625,0.07446808,610.4455,-1162.2786,-0.007629901,-0.0120045245,-0.015390396,0.0,0.0,0.0
887.474,420.51953,78303527,0.75,0.08510638,1085.0165,-1076.7583,-0.007629901,-0.0120045245,-0.015390396,0.0,0.0,0.0
904.22974,413.01147,78303544,0.75,0.11702127,1406.792,-655.91504,-0.007629901,-0.0120045245,-0.015390396,0.0,0.0,0.0
920.38684,411.25342,78303560,0.7625,0.10638297,1352.4103,-237.6475,-0.007629901,-0.0120045245,-0.015390396,0.0,0.0,0.0
936.97766,412.28674,78303577,0.75,0.08510638,1145.8204,112.38825,-0.007629901,-0.0120045245,-0.015390396,0.0,0.0,0.0
951.08685,417.2146,78303594,0.75,0.08510638,908.366,472.9908,-0.007629901,-0.0120045245,-0.015390396,0.0,0.0,0.0
962.3585,422.91882,78303611,0.7625,0.09574468,723.5043,597.0866,-0.007629901,-0.0120045245,-0.015390396,0.0,0.0,0.0
970.3458,430.4259,78303627,0.75,0.09574468,543.4602,628.72845,-0.007629901,-0.0120045245,-0.015390396,0.0,0.0,0.0
975.5751,436.91907,78303644,0.75,0.10638297,236.07405,558.004,0.025896072,0.022396386,0.0036878586,0.0,0.0,0.0
982.5486,449.36462,78303661,0.7375,0.12765957,170.8114,630.2432,0.025896072,0.022396386,0.0036878586,0.0,0.0,0.0
985.7887,461.71216,78303677,0.75,0.08510638,162.01686,798.80634,0.025896072,0.022396386,0.0036878586,0.0,0.0,0.0
986.303,475.81372,78303694,0.75,0.07446808,64.35257,929.1046,0.025896072,0.022396386,0.0036878586,0.0,0.0,0.0
983.5814,490.60132,78303711,0.75,0.08510638,-137.98204,1014.06824,0.025896072,0.022396386,0.0036878586,0.0,0.0,0.0
978.49976,501.27588,78303728,0.75,0.12765957,-394.4254,891.4594,0.025896072,0.022396386,0.0036878586,0.0,0.0,0.0
970.39624,510.5807,78303744,0.75,0.11702127,-581.5776,653.6481,0.025896072,0.022396386,0.0036878586,0.0,0.0,0.0
960.50134,519.7964,78303761,0.75,0.08510638,-708.18256,479.69193,0.025896072,0.022396386,0.0036878586,0.0,0.0,0.0
945.3148,528.0526,78303778,0.7625,0.07446808,-908.7284,385.0117,0.025896072,0.022396386,0.0036878586,0.0,0.0,0.0
930.3402,532.4287,78303794,0.75,0.08510638,-1064.9784,304.1095,0.025896072,0.022396386,0.0036878586,0.0,0.0,0.0
917.9602,535.2644,78303811,0.7625,0.07446808,-1032.5847,166.46564,0.025896072,0.022396386,0.0036878586,0.0,0.0,0.0
905.54504,536.8778,78303828,0.75,0.06382979,-886.7657,12.124985,0.025896072,0.022396386,0.0036878586,0.0,0.0,0.0
896.5179,539.0504,78303844,0.7375,0.06382979,-657.58295,-45.116543,0.025896072,0.022396386,0.0036878586,0.0,0.0,0.0
889.6778,541.4237,78303861,0.5625,0.06382979,-415.46185,64.13466,0.025896072,0.022396386,0.0036878586,0.0,0.0,0.0
888.68854,541.8633,78303865,0.2125,0.08510638,-372.8916,68.01482,0.025896072,0.022396386,0.0036878586,0.0,0.0,0.0
888.68854,541.8633,78303873,0.2125,0.08510638,-372.8916,68.01482,0.025896072,0.022396386,0.0036878586,0.0,0.0,0.0
