x,y,timestamp,pressure,fingerarea,velocityx,velocityy,accelx,accely,accelz,gyrox,gyroy,gyroz
401.3472,182.90808,146930678,0.8625,0.10638297,0.0,0.0,0.024721015,0.046814963,-0.00329113,0.0,0.0,0.0
400.21573,187.93628,146930703,0.925,0.10638297,-126.91762,563.7871,0.024721015,0.046814963,-0.00329113,0.0,0.0,0.0
393.29465,228.61401,146930720,0.875,0.10638297,-560.1087,3271.1765,0.024721015,0.046814963,-0.00329113,0.0,0.0,0.0
386.5837,273.9099,146930737,0.90000004,0.10638297,-550.9616,3668.0571,0.024721015,0.046814963,-0.00329113,0.0,0.0,0.0
381.3905,315.17908,146930753,0.90000004,0.10638297,-474.71063,3555.977,0.024721015,0.046814963,-0.00329113,0.0,0.0,0.0
375.5887,356.27747,146930770,0.9125,0.12765957,-443.73776,3392.3926,0.024721015,0.046814963,-0.00329113,0.0,0.0,0.0
369.40616,398.09644,146930787,0.90000004,0.12765957,-357.56888,2733.8096,0.024721015,0.046814963,-0.00329113,0.0,0.0,0.0
364.8877,442.30835,146930803,0.925,0.11702127,-344.01465,2619.6213,0.024721015,0.046814963,-0.00329113,0.0,0.0,0.0
361.74225,486.67456,146930820,0.9375,0.10638297,-231.92538,2589.2988,0.024721015,0.046814963,-0.00329113,0.0,0.0,0.0
360.36053,516.18945,146930837,0.925,0.12765957,-96.87316,2291.6216,0.024721015,0.046814963,-0.00329113,0.0,0.0,0.0
360.81274,540.9321,146930854,0.925,0.10638297,44.27167,1697.4414,0.024721015,0.046814963,-0.00329113,0.0,0.0,0.0
362.35303,553.3834,146930870,0.8875,0.12765957,157.08313,835.2843,-0.0042231865,0.02145198,0.029366493,0.0,0.0,0.0
363.3986,559.84155,146930887,0.875,0.12765957,184.88803,45.06344,-0.0042231865,0.02145198,0.029366493,0.0,0.0,0.0
365.5888,561.54663,146930904,0.8,0.12765957,182.95216,-365.76025,-0.0042231865,0.02145198,0.029366493,0.0,0.0,0.0
370.18842,557.2682,146930920,0.25,0.10638297,240.07445,-572.9344,-0.0042231865,0.02145198,0.029366493,0.0,0.0,0.0
370.18842,557.2682,146930926,0.25,0.10638297,240.07445,-572.9344,-0.0042231865,0.02145198,0.029366493,0.0,0.0,0.0
395.849,182.01953,146932057,0.8625,0.10638297,0.0,0.0,-0.0027028392,-0.031070739,-0.00680542,0.0,0.0,0.0
395.849,182.01953,146932073,0.8875,0.09574468,-0.0022451982,0.003830438,-0.0027028392,-0.031070739,-0.00680542,0.0,0.0,0.0
395.849,182.01953,146932090,0.875,0.09574468,-0.020033436,-0.0075306436,-0.0027028392,-0.031070739,-0.00680542,0.0,0.0,0.0
412.17877,167.34619,146932107,0.8625,0.09574468,1010.42267,-904.33276,-0.0027028392,-0.031070739,-0.00680542,0.0,0.0,0.0
426.82904,155.6665,146932124,0.8875,0.10638297,1328.6141,-1149.7301,-0.0027028392,-0.031070739,-0.00680542,0.0,0.0,0.0
446.35242,145.9209,146932140,0.875,0.10638297,1510.2437,-1052.3424,-0.0027028392,-0.031070739,-0.00680542,0.0,0.0,0.0
466.74286,139.54407,146932157,0.8625,0.12765957,1575.7726,-710.44617,-0.0027028392,-0.031070739,-0.00680542,0.0,0.0,0.0
490.0166,137.59436,146932174,0.8625,0.12765957,1480.7959,-217.98611,-0.0027028392,-0.031070739,-0.00680542,0.0,0.0,0.0
514.88367,139.02893,146932191,0.85,0.12765957,1522.0563,217.47685,-0.0027028392,-0.031070739,-0.00680542,0.0,0.0,0.0
532.2117,144.8833,146932207,0.83750004,0.11702127,1421.9019,424.37357,-0.0027028392,-0.031070739,-0.00680542,0.0,0.0,0.0
548.3764,157.60046,146932224,0.8625,0.08510638,1135.4934,769.30566,-0.0027028392,-0.031070739,-0.00680542,0.0,0.0,0.0
557.8906,169.7063,146932241,0.8625,0.10638297,674.64056,1012.6242,-0.0027028392,-0.031070739,-0.00680542,0.0,0.0,0.0
567.1255,194.75085,146932257,0.8625,0.08510638,342.8688,1412.3485,-0.0027028392,-0.031070739,-0.00680542,0.0,0.0,0.0
566.1132,221.42017,146932274,0.85,0.09574468,2.146336,1788.0527,-0.0027028392,-0.031070739,-0.00680542,0.0,0.0,0.0
556.91895,243.84314,146932291,0.8625,0.10638297,-478.72308,1841.7942,-0.0027028392,-0.031070739,-0.00680542,0.0,0.0,0.0
542.1001,272.80176,146932307,0.8625,0.11702127,-1046.838,1827.7743,-0.0027028392,-0.031070739,-0.00680542,0.0,0.0,0.0
529.94946,286.09985,146932324,0.875,0.12765957,-1268.7494,1389.0968,-0.0027028392,-0.031070739,-0.00680542,0.0,0.0,0.0
509.0006,306.46204,146932341,0.8875,0.09574468,-1369.5536,1064.4972,-0.0027028392,-0.031070739,-0.00680542,0.0,0.0,0.0
490.64594,321.5929,146932357,0.8875,0.11702127,-1397.4265,927.6869,-0.0027028392,-0.031070739,-0.00680542,0.0,0.0,0.0
473.58765,331.83716,146932374,0.90000004,0.10638297,-1287.762,638.9368,-0.0027028392,-0.031070739,-0.00680542,0.0,0.0,0.0
456.99585,337.71667,146932391,0.9125,0.10638297,-1120.04,361.90933,-0.0027028392,-0.031070739,-0.00680542,0.0,0.0,0.0
444.75275,340.00964,146932408,0.8875,0.12765957,-797.33307,-51.5385,-0.0027028392,-0.031070739,-0.00680542,0.0,0.0,0.0
435.65836,341.06165,146932424,0.8625,0.12765957,-570.2695,-198.02634,-0.0027028392,-0.031070739,-0.00680542,0.0,0.0,0.0
430.83676,341.06165,146932441,0.8875,0.12765957,-288.45975,-201.74919,-0.0027028392,-0.031070739,-0.00680542,0.0,0.0,0.0
428.75363,341.06165,146932458,0.8625,0.12765957,-0.05778692,-157.25902,-0.0027028392,-0.031070739,-0.00680542,0.0,0.0,0.0
427.77396,341.06165,146932474,0.77500004,0.11702127,148.02916,-91.557144,0.0058377287,0.02314341,0.026555061,0.0,0.0,0.0
427.8386,341.06165,146932491,0.5625,0.12765957,175.36441,-36.270622,0.0058377287,0.02314341,0.026555061,0.0,0.0,0.0
427.8386,341.06165,146932498,0.35,0.12765957,180.99185,-25.687765,0.0058377287,0.02314341,0.026555061,0.0,0.0,0.0
427.8386,341.06165,146932505,0.35,0.12765957,180.99185,-25.687765,0.0058377287,0.02314341,0.026555061,0.0,0.0,0.0
333.86917,585.4,146933205,0.8875,0.09574468,0.0,0.0,-0.019329816,-0.013485275,0.02124405,0.0,0.0,0.0
341.70142,574.9581,146933243,0.8875,0.10638297,1491.3219,-1988.405,-0.019329816,-0.013485275,0.02124405,0.0,0.0,0.0
363.75464,548.1658,146933260,0.8875,0.09574468,1770.8395,-2185.293,-0.019329816,-0.013485275,0.02124405,0.0,0.0,0.0
398.74722,518.646,146933276,0.90000004,0.10638297,2429.6086,-2447.384,-0.019329816,-0.013485275,0.02124405,0.0,0.0,0.0
442.30914,491.8197,146933293,0.875,0.08510638,3040.384,-2329.73,-0.019329816,-0.013485275,0.02124405,0.0,0.0,0.0
487.4077,469.87585,146933310,0.85,0.12765957,3199.0833,-1423.5684,-0.019329816,-0.013485275,0.02124405,0.0,0.0,0.0
532.11005,453.64795,146933327,0.825,0.12765957,3279.4646,-1100.3706,-0.019329816,-0.013485275,0.02124405,0.0,0.0,0.0
575.52435,439.99963,146933343,0.8625,0.09574468,3096.3108,-737.82715,-0.019329816,-0.013485275,0.02124405,0.0,0.0,0.0
614.49146,423.60474,146933360,0.83750004,0.08510638,2529.944,-566.0762,-0.019329816,-0.013485275,0.02124405,0.0,0.0,0.0
636.1551,414.24268,146933377,0.825,0.11702127,1802.9895,-507.6747,-0.019329816,-0.013485275,0.02124405,0.0,0.0,0.0
651.8988,407.31177,146933393,0.85,0.12765957,900.1843,-456.91586,-0.019329816,-0.013485275,0.02124405,0.0,0.0,0.0
657.8469,403.6272,146933410,0.875,0.10638297,161.94566,-218.80127,-0.019329816,-0.013485275,0.02124405,0.0,0.0,0.0
659.26324,401.79456,146933427,0.8625,0.12765957,-376.86752,54.41623,-0.019329816,-0.013485275,0.02124405,0.0,0.0,0.0
655.30676,399.93433,146933444,0.875,0.12765957,-677.8497,126.671295,-0.019329816,-0.013485275,0.02124405,0.0,0.0,0.0
632.8915,402.05798,146933460,0.8625,0.12765957,-1142.2003,149.85516,-0.019329816,-0.013485275,0.02124405,0.0,0.0,0.0
599.631,409.08984,146933477,0.875,0.12765957,-2020.4155,324.40692,-0.019329816,-0.013485275,0.02124405,0.0,0.0,0.0
562.80334,427.24194,146933494,0.875,0.09574468,-2780.1667,802.71716,-0.019329816,-0.013485275,0.02124405,0.0,0.0,0.0
534.693,445.77563,146933510,0.9125,0.12765957,-2768.4912,1368.6425,-0.019329816,-0.013485275,0.02124405,0.0,0.0,0.0
507.69525,467.33325,146933527,0.9375,0.10638297,-2181.0874,1638.9554,-0.019329816,-0.013485275,0.02124405,0.0,0.0,0.0
490.35858,488.62378,146933544,0.925,0.12765957,-1335.0662,1638.2091,-0.019329816,-0.013485275,0.02124405,0.0,0.0,0.0
474.3919,519.7167,146933561,0.925,0.10638297,-740.51794,1664.4745,0.040536147,0.0052117854,-0.0470047,0.0,0.0,0.0
473.52307,533.14636,146933577,0.9375,0.10638297,-190.51425,1493.1902,0.040536147,0.0052117854,-0.0470047,0.0,0.0,0.0
476.99475,544.0016,146933594,0.9125,0.11702127,386.87756,1018.242,0.040536147,0.0052117854,-0.0470047,0.0,0.0,0.0
494.40186,551.49365,146933611,0.9125,0.10638297,1010.95764,380.68854,0.040536147,0.0052117854,-0.0470047,0.0,0.0,0.0
528.44904,550.8175,146933627,0.90000004,0.11702127,2051.0703,-167.25302,0.040536147,0.0052117854,-0.0470047,0.0,0.0,0.0
568.1533,532.9723,146933644,0.8875,0.08510638,2971.8455,-920.7239,0.040536147,0.0052117854,-0.0470047,0.0,0.0,0.0
602.83124,509.62708,146933661,0.90000004,0.12765957,3149.044,-1668.0482,0.040536147,0.0052117854,-0.0470047,0.0,0.0,0.0
632.7545,478.8783,146933678,0.875,0.08510638,2658.2146,-2311.664,0.040536147,0.0052117854,-0.0470047,0.0,0.0,0.0
657.16583,447.62524,146933694,0.85,0.10638297,1761.3085,-2578.2297,0.040536147,0.0052117854,-0.0470047,0.0,0.0,0.0
671.5204,423.22827,146933711,0.85,0.12765957,970.3932,-2130.3066,0.040536147,0.0052117854,-0.0470047,0.0,0.0,0.0
680.4956,402.61902,146933728,0.85,0.10638297,391.1055,-1615.0376,0.040536147,0.0052117854,-0.0470047,0.0,0.0,0.0
680.7562,398.4259,146933744,0.8625,0.10638297,-165.11153,-682.30707,0.040536147,0.0052117854,-0.0470047,0.0,0.0,0.0
675.6298,400.2755,146933761,0.8875,0.10638297,-587.71246,245.40479,0.040536147,0.0052117854,-0.0470047,0.0,0.0,0.0
657.0832,427.89636,146933778,0.90000004,0.11702127,-1120.4258,1324.5027,0.040536147,0.0052117854,-0.0470047,0.0,0.0,0.0
639.2419,468.21655,146933795,0.8875,0.10638297,-1580.9613,2664.346,0.040536147,0.0052117854,-0.0470047,0.0,0.0,0.0
629.98254,501.1637,146933811,0.90000004,0.12765957,-1385.9216,3273.0168,0.040536147,0.0052117854,-0.0470047,0.0,0.0,0.0
628.0422,524.01587,146933828,0.90000004,0.09574468,-649.7181,2670.6108,0.040536147,0.0052117854,-0.0470047,0.0,0.0,0.0
630.94104,538.75854,146933845,0.90000004,0.10638297,280.87885,1284.1315,0.040536147,0.0052117854,-0.0470047,0.0,0.0,0.0
635.8893,544.4967,146933861,0.8875,0.11702127,697.13556,109.204094,0.040536147,0.0052117854,-0.0470047,0.0,0.0,0.0
654.48236,544.8168,146933878,0.90000004,0.10638297,982.6324,-329.07767,0.040536147,0.0052117854,-0.0470047,0.0,0.0,0.0
682.0674,531.60913,146933895,0.8875,0.08510638,1643.9344,-836.5224,0.040536147,0.0052117854,-0.0470047,0.0,0.0,0.0
708.49207,513.254,146933912,0.8625,0.09574468,2093.5125,-1422.7587,0.040536147,0.0052117854,-0.0470047,0.0,0.0,0.0
732.3442,489.96936,146933928,0.8625,0.08510638,2093.8665,-1790.2999,0.040536147,0.0052117854,-0.0470047,0.0,0.0,0.0
749.345,468.81494,146933945,0.8625,0.12765957,1549.2909,-1863.1493,0.040536147,0.0052117854,-0.0470047,0.0,0.0,0.0
764.15936,449.48608,146933962,0.8625,0.08510638,927.06854,-1603.7942,0.040536147,0.0052117854,-0.0470047,0.0,0.0,0.0
774.5327,432.38867,146933978,0.8625,0.10638297,526.5098,-1238.0488,0.040536147,0.0052117854,-0.0470047,0.0,0.0,0.0
780.5332,423.5022,146933995,0.8625,0.10638297,247.60779,-790.43567,0.040536147,0.0052117854,-0.0470047,0.0,0.0,0.0
782.9669,419.70483,146934012,0.875,0.10638297,44.199944,-231.67226,0.040536147,0.0052117854,-0.0470047,0.0,0.0,0.0
783.97266,417.917,146934028,0.875,0.10638297,-137.03429,96.15282,0.040536147,0.0052117854,-0.0470047,0.0,0.0,0.0
777.84827,435.2461,146934062,0.8875,0.10638297,-327.25436,707.61945,0.040536147,0.0052117854,-0.0470047,0.0,0.0,0.0
767.809,458.38977,146934079,0.8875,0.12765957,-561.7595,1307.7803,-0.03957108,-0.027830586,-0.0056037903,0.0,0.0,0.0
756.2633,491.29517,146934095,0.90000004,0.11702127,-840.53796,2116.306,-0.03957108,-0.027830586,-0.0056037903,0.0,0.0,0.0
747.27454,519.51685,146934112,0.90000004,0.12765957,-910.5791,2501.8972,-0.03957108,-0.027830586,-0.0056037903,0.0,0.0,0.0
739.4756,550.8557,146934129,0.90000004,0.12765957,-551.7399,2116.41,-0.03957108,-0.027830586,-0.0056037903,0.0,0.0,0.0
731.63495,576.8872,146934145,0.9125,0.09574468,-473.98834,1925.7229,-0.03957108,-0.027830586,-0.0056037903,0.0,0.0,0.0
723.8395,606.6078,146934162,0.9125,0.10638297,-385.91345,1700.599,-0.03957108,-0.027830586,-0.0056037903,0.0,0.0,0.0
715.8015,634.0664,146934179,0.925,0.10638297,-408.32065,1586.0326,-0.03957108,-0.027830586,-0.0056037903,0.0,0.0,0.0
710.61865,657.82336,146934196,0.9125,0.12765957,-394.73172,1559.3789,-0.03957108,-0.027830586,-0.0056037903,0.0,0.0,0.0
705.1876,678.0199,146934212,0.9125,0.11702127,-319.5941,1357.8635,-0.03957108,-0.027830586,-0.0056037903,0.0,0.0,0.0
700.9176,694.5819,146934229,0.9125,0.11702127,-232.41183,965.69507,-0.03957108,-0.027830586,-0.0056037903,0.0,0.0,0.0
698.6365,704.8644,146934246,0.9125,0.11702127,-134.10597,593.5653,-0.03957108,-0.027830586,-0.0056037903,0.0,0.0,0.0
697.4048,710.1317,146934262,0.9125,0.11702127,-39.544037,182.78908,-0.03957108,-0.027830586,-0.0056037903,0.0,0.0,0.0
697.0009,711.5674,146934268,0.9125,0.11702127,-15.293281,86.35356,-0.03957108,-0.027830586,-0.0056037903,0.0,0.0,0.0
700.09515,699.6786,146934313,0.875,0.09574468,143.25832,-601.2463,-0.03957108,-0.027830586,-0.0056037903,0.0,0.0,0.0
710.5324,663.46094,146934329,0.875,0.08510638,445.46155,-1610.5685,-0.03957108,-0.027830586,-0.0056037903,0.0,0.0,0.0
720.76105,625.21704,146934346,0.875,0.10638297,784.30145,-2826.1055,-0.03957108,-0.027830586,-0.0056037903,0.0,0.0,0.0
730.85706,582.6112,146934363,0.875,0.09574468,873.2744,-3340.7695,-0.03957108,-0.027830586,-0.0056037903,0.0,0.0,0.0
738.99805,544.307,146934379,0.875,0.08510638,646.5165,-2881.2678,-0.03957108,-0.027830586,-0.0056037903,0.0,0.0,0.0
744.36414,512.73535,146934396,0.85,0.10638297,494.13535,-2562.677,-0.03957108,-0.027830586,-0.0056037903,0.0,0.0,0.0
749.0953,476.45837,146934413,0.8625,0.11702127,231.9958,-2015.96,-0.03957108,-0.027830586,-0.0056037903,0.0,0.0,0.0
754.4332,447.67773,146934430,0.8625,0.09574468,181.54286,-1792.3745,-0.03957108,-0.027830586,-0.0056037903,0.0,0.0,0.0
761.8338,421.90527,146934446,0.8625,0.11702127,274.9534,-1536.0522,-0.03957108,-0.027830586,-0.0056037903,0.0,0.0,0.0
767.5077,409.8678,146934463,0.875,0.12765957,375.59552,-918.2597,-0.03957108,-0.027830586,-0.0056037903,0.0,0.0,0.0
776.2616,397.96936,146934480,0.875,0.10638297,471.19025,-363.9413,-0.03957108,-0.027830586,-0.0056037903,0.0,0.0,0.0
785.9074,387.9071,146934496,0.875,0.08510638,571.98987,-189.02338,-0.03957108,-0.027830586,-0.0056037903,0.0,0.0,0.0
795.13794,382.16223,146934513,0.8875,0.09574468,597.8496,-116.397255,-0.03957108,-0.027830586,-0.0056037903,0.0,0.0,0.0
806.78357,379.2578,146934530,0.8875,0.09574468,703.4139,-109.597,-0.03957108,-0.027830586,-0.0056037903,0.0,0.0,0.0
821.9679,380.23987,146934547,0.8875,0.08510638,856.9507,85.59209,-0.03957108,-0.027830586,-0.0056037903,0.0,0.0,0.0
842.13403,385.9104,146934563,0.875,0.10638297,1142.7665,398.53012,-0.03957108,-0.027830586,-0.0056037903,0.0,0.0,0.0
854.47284,393.05286,146934580,0.8625,0.12765957,1171.3558,599.6569,-0.03957108,-0.027830586,-0.0056037903,0.0,0.0,0.0
862.467,399.05408,146934597,0.875,0.12765957,834.2303,635.89526,-0.03957108,-0.027830586,-0.0056037903,0.0,0.0,0.0
870.18964,413.4613,146934613,0.8625,0.08510638,437.45724,763.4447,-0.015656866,-0.0062644705,-0.020483017,0.0,0.0,0.0
873.9354,431.97485,146934630,0.8875,0.10638297,78.757614,1064.8138,-0.015656866,-0.0062644705,-0.020483017,0.0,0.0,0.0
869.36304,448.86328,146934647,0.875,0.12765957,-175.70132,1289.416,-0.015656866,-0.0062644705,-0.020483017,0.0,0.0,0.0
856.33405,470.99255,146934663,0.8875,0.10638297,-685.40796,1466.4961,-0.015656866,-0.0062644705,-0.020483017,0.0,0.0,0.0
836.1289,491.78967,146934680,0.875,0.09574468,-1301.2555,1361.6561,-0.015656866,-0.0062644705,-0.020483017,0.0,0.0,0.0
806.7317,511.42273,146934697,0.8625,0.12765957,-1950.1931,1302.9841,-0.015656866,-0.0062644705,-0.020483017,0.0,0.0,0.0
780.612,520.9579,146934714,0.875,0.09574468,-2177.7021,1005.8476,-0.015656866,-0.0062644705,-0.020483017,0.0,0.0,0.0
762.94635,523.2047,146934730,0.8625,0.11702127,-1891.4403,367.74127,-0.015656866,-0.0062644705,-0.020483017,0.0,0.0,0.0
752.02924,522.276,146934747,0.875,0.10638297,-1051.6471,-260.2469,-0.015656866,-0.0062644705,-0.020483017,0.0,0.0,0.0
745.3508,520.4254,146934764,0.8625,0.10638297,-291.18658,-544.7054,-0.015656866,-0.0062644705,-0.020483017,0.0,0.0,0.0
741.8799,518.551,146934780,0.875,0.12765957,95.47469,-450.14957,-0.015656866,-0.0062644705,-0.020483017,0.0,0.0,0.0
741.0793,516.7057,146934797,0.8875,0.12765957,239.9987,-285.16678,-0.015656866,-0.0062644705,-0.020483017,0.0,0.0,0.0
740.7367,516.9852,146934814,0.8875,0.12765957,226.33008,-109.13267,-0.015656866,-0.0062644705,-0.020483017,0.0,0.0,0.0
740.97284,516.9852,146934831,0.8875,0.10638297,155.27538,18.29456,-0.015656866,-0.0062644705,-0.020483017,0.0,0.0,0.0
742.4662,518.2825,146934847,0.8875,0.11702127,144.86668,85.135,-0.015656866,-0.0062644705,-0.020483017,0.0,0.0,0.0
744.33026,521.59607,146934864,0.90000004,0.11702127,150.16165,181.65689,-0.015656866,-0.0062644705,-0.020483017,0.0,0.0,0.0
746.06976,523.5022,146934881,0.9125,0.11702127,160.20091,213.68564,-0.015656866,-0.0062644705,-0.020483017,0.0,0.0,0.0
749.4704,526.52466,146934897,0.9125,0.11702127,195.30742,230.74756,-0.015656866,-0.0062644705,-0.020483017,0.0,0.0,0.0
752.97,529.3076,146934914,0.9125,0.11702127,222.01622,194.91705,-0.015656866,-0.0062644705,-0.020483017,0.0,0.0,0.0
757.15393,532.021,146934931,0.9125,0.11702127,270.45242,164.80786,-0.015656866,-0.0062644705,-0.020483017,0.0,0.0,0.0
761.75665,533.8788,146934948,0.9125,0.10638297,307.73245,141.86914,-0.015656866,-0.0062644705,-0.020483017,0.0,0.0,0.0
767.5142,535.7285,146934964,0.9125,0.10638297,344.05228,115.22564,-0.015656866,-0.0062644705,-0.020483017,0.0,0.0,0.0
772.4853,537.5128,146934981,0.925,0.10638297,356.3892,88.02001,-0.015656866,-0.0062644705,-0.020483017,0.0,0.0,0.0
776.80133,539.454,146934998,0.9125,0.10638297,319.96017,89.54715,-0.015656866,-0.0062644705,-0.020483017,0.0,0.0,0.0
779.9414,541.0714,146935014,0.925,0.10638297,237.61102,92.79157,-0.015656866,-0.0062644705,-0.020483017,0.0,0.0,0.0
784.08905,540.97485,146935031,0.9375,0.10638297,195.09186,55.337715,-0.015656866,-0.0062644705,-0.020483017,0.0,0.0,0.0
788.0108,540.97485,146935048,0.925,0.10638297,201.86757,-16.46719,-0.015656866,-0.0062644705,-0.020483017,0.0,0.0,0.0
791.0741,541.4806,146935065,0.9125,0.10638297,206.73738,-41.754105,-0.015656866,-0.0062644705,-0.020483017,0.0,0.0,0.0
793.7955,541.8633,146935081,0.925,0.11702127,176.80219,-9.074072,-0.015656866,-0.0062644705,-0.020483017,0.0,0.0,0.0
797.33936,542.75183,146935098,0.9125,0.11702127,152.40045,44.94163,-0.015656866,-0.0062644705,-0.020483017,0.0,0.0,0.0
800.0394,542.75183,146935115,0.9125,0.11702127,163.17743,42.41428,-0.015656866,-0.0062644705,-0.020483017,0.0,0.0,0.0
803.103,542.75183,146935131,0.925,0.11702127,171.657,10.503498,-0.015656866,-0.0062644705,-0.020483017,0.0,0.0,0.0
806.7323,542.75183,146935148,0.9125,0.11702127,195.69798,-14.650954,0.011474507,0.010988429,-3.8719177E-4,0.0,0.0,0.0
811.9796,542.75183,146935165,0.925,0.10638297,264.31113,-14.049644,0.011474507,0.010988429,-3.8719177E-4,0.0,0.0,0.0
817.72076,542.75183,146935182,0.9125,0.10638297,346.46756,-8.922019,0.011474507,0.010988429,-3.8719177E-4,0.0,0.0,0.0
824.0481,541.61487,146935198,0.9125,0.10638297,419.9514,-26.048983,0.011474507,0.010988429,-3.8719177E-4,0.0,0.0,0.0
830.97186,538.5559,146935215,0.90000004,0.10638297,447.63943,-115.047905,0.011474507,0.010988429,-3.8719177E-4,0.0,0.0,0.0
836.4379,537.0558,146935232,0.90000004,0.10638297,425.15927,-173.95769,0.011474507,0.010988429,-3.8719177E-4,0.0,0.0,0.0
841.6842,533.8843,146935248,0.8875,0.10638297,363.28714,-214.42659,0.011474507,0.010988429,-3.8719177E-4,0.0,0.0,0.0
846.3229,530.2057,146935265,0.90000004,0.10638297,284.47562,-235.59671,0.011474507,0.010988429,-3.8719177E-4,0.0,0.0,0.0
850.40784,527.1112,146935282,0.8875,0.11702127,219.6941,-232.1316,0.011474507,0.010988429,-3.8719177E-4,0.0,0.0,0.0
854.0471,524.3833,146935298,0.90000004,0.11702127,179.34607,-211.407,0.011474507,0.010988429,-3.8719177E-4,0.0,0.0,0.0
858.2136,522.5316,146935315,0.8625,0.12765957,188.11852,-140.03664,0.011474507,0.010988429,-3.8719177E-4,0.0,0.0,0.0
862.4633,520.6432,146935332,0.8875,0.12765957,226.35272,-80.86463,0.011474507,0.010988429,-3.8719177E-4,0.0,0.0,0.0
867.11743,517.0547,146935349,0.90000004,0.12765957,266.9801,-114.743774,0.011474507,0.010988429,-3.8719177E-4,0.0,0.0,0.0
872.27014,515.18115,146935365,0.8875,0.12765957,307.51813,-152.31175,0.011474507,0.010988429,-3.8719177E-4,0.0,0.0,0.0
878.1266,513.3026,146935382,0.8875,0.12765957,342.27795,-140.55061,0.011474507,0.010988429,-3.8719177E-4,0.0,0.0,0.0
883.8932,510.266,146935399,0.8875,0.12765957,367.46405,-137.20798,0.011474507,0.010988429,-3.8719177E-4,0.0,0.0,0.0
888.9842,508.70593,146935415,0.8875,0.12765957,360.09918,-118.1075,0.011474507,0.010988429,-3.8719177E-4,0.0,0.0,0.0
894.3852,506.59106,146935432,0.875,0.10638297,340.87302,-114.2463,0.011474507,0.010988429,-3.8719177E-4,0.0,0.0,0.0
899.253,503.45593,146935449,0.875,0.10638297,307.99683,-161.37723,0.011474507,0.010988429,-3.8719177E-4,0.0,0.0,0.0
905.23987,500.5227,146935466,0.8625,0.11702127,323.63464,-185.38058,0.011474507,0.010988429,-3.8719177E-4,0.0,0.0,0.0
909.2344,497.39148,146935482,0.875,0.11702127,297.43918,-202.99084,0.011474507,0.010988429,-3.8719177E-4,0.0,0.0,0.0
913.73083,493.67053,146935499,0.8625,0.09574468,245.03558,-219.72618,0.011474507,0.010988429,-3.8719177E-4,0.0,0.0,0.0
918.2413,490.10815,146935516,0.875,0.09574468,222.87111,-217.78018,0.011474507,0.010988429,-3.8719177E-4,0.0,0.0,0.0
923.2491,485.4557,146935532,0.875,0.08510638,247.11993,-254.69385,0.011474507,0.010988429,-3.8719177E-4,0.0,0.0,0.0
928.33887,481.64453,146935549,0.875,0.08510638,297.18652,-273.10034,0.011474507,0.010988429,-3.8719177E-4,0.0,0.0,0.0
933.21655,477.86096,146935566,0.8625,0.10638297,322.35376,-255.94673,0.011474507,0.010988429,-3.8719177E-4,0.0,0.0,0.0
937.8841,474.14905,146935583,0.8625,0.09574468,308.77167,-234.67401,0.011474507,0.010988429,-3.8719177E-4,0.0,0.0,0.0
942.0167,470.47607,146935599,0.85,0.10638297,273.02676,-212.82307,0.011474507,0.010988429,-3.8719177E-4,0.0,0.0,0.0
946.56866,466.43042,146935616,0.8625,0.12765957,241.61613,-208.84927,0.011474507,0.010988429,-3.8719177E-4,0.0,0.0,0.0
948.41113,463.245,146935633,0.8625,0.12765957,175.09964,-214.80826,0.011474507,0.010988429,-3.8719177E-4,0.0,0.0,0.0
952.658,459.54028,146935649,0.83750004,0.12765957,173.10982,-216.9389,0.011474507,0.010988429,-3.8719177E-4,0.0,0.0,0.0
955.1825,455.65088,146935666,0.83750004,0.10638297,171.68214,-229.80122,0.011474507,0.010988429,-3.8719177E-4,0.0,0.0,0.0
957.24524,451.98413,146935683,0.83750004,0.10638297,132.65047,-229.48741,-0.014820393,-0.0072092637,0.015690804,0.0,0.0,0.0
959.2772,447.82837,146935700,0.85,0.09574468,99.34549,-227.4769,-0.014820393,-0.0072092637,0.015690804,0.0,0.0,0.0
962.1902,440.80957,146935716,0.83750004,0.09574468,96.43578,-316.4759,-0.014820393,-0.0072092637,0.015690804,0.0,0.0,0.0
964.4447,434.93884,146935733,0.85,0.09574468,136.20045,-408.5044,-0.014820393,-0.0072092637,0.015690804,0.0,0.0,0.0
966.0209,428.64136,146935750,0.83750004,0.09574468,138.72726,-449.89584,-0.014820393,-0.0072092637,0.015690804,0.0,0.0,0.0
967.66504,422.79822,146935766,0.825,0.11702127,98.79142,-417.364,-0.014820393,-0.0072092637,0.015690804,0.0,0.0,0.0
968.68787,417.33765,146935783,0.825,0.12765957,58.455124,-348.0387,-0.014820393,-0.0072092637,0.015690804,0.0,0.0,0.0
969.7451,411.69995,146935800,0.825,0.12765957,39.84714,-319.00067,-0.014820393,-0.0072092637,0.015690804,0.0,0.0,0.0
970.80334,406.05652,146935817,0.825,0.12765957,45.881207,-321.5418,-0.014820393,-0.0072092637,0.015690804,0.0,0.0,0.0
971.16174,401.69263,146935833,0.825,0.11702127,33.304817,-292.2444,-0.014820393,-0.0072092637,0.015690804,0.0,0.0,0.0
971.6615,398.4674,146935850,0.83750004,0.11702127,20.285194,-242.0553,-0.014820393,-0.0072092637,0.015690804,0.0,0.0,0.0
971.6615,397.92578,146935867,0.83750004,0.12765957,-4.069327,-82.694145,-0.014820393,-0.0072092637,0.015690804,0.0,0.0,0.0
971.6615,399.89185,146935883,0.85,0.12765957,-20.156563,97.979126,-0.014820393,-0.0072092637,0.015690804,0.0,0.0,0.0
967.8434,421.30225,146935900,0.875,0.11702127,-108.62219,727.2069,-0.014820393,-0.0072092637,0.015690804,0.0,0.0,0.0
958.6499,450.9901,146935917,0.875,0.12765957,-396.9373,1752.3363,-0.014820393,-0.0072092637,0.015690804,0.0,0.0,0.0
946.6744,485.87366,146935933,0.8875,0.09574468,-745.4752,2543.702,-0.014820393,-0.0072092637,0.015690804,0.0,0.0,0.0
934.93713,518.39087,146935950,0.8875,0.12765957,-972.7494,2822.9465,-0.014820393,-0.0072092637,0.015690804,0.0,0.0,0.0
925.8634,551.04626,146935967,0.90000004,0.11702127,-907.33905,2537.8196,-0.014820393,-0.0072092637,0.015690804,0.0,0.0,0.0
917.27716,589.3784,146935984,0.90000004,0.11702127,-647.2981,2218.1433,-0.014820393,-0.0072092637,0.015690804,0.0,0.0,0.0
911.28674,621.03235,146936000,0.90000004,0.10638297,-392.9117,2138.6758,-0.014820393,-0.0072092637,0.015690804,0.0,0.0,0.0
906.66614,649.0314,146936017,0.9125,0.10638297,-227.8555,1866.6763,-0.014820393,-0.0072092637,0.015690804,0.0,0.0,0.0
904.4226,660.53625,146936034,0.925,0.12765957,-110.70405,1223.0621,-0.014820393,-0.0072092637,0.015690804,0.0,0.0,0.0
903.4982,666.9131,146936050,0.925,0.12765957,5.037721,368.64478,-0.014820393,-0.0072092637,0.015690804,0.0,0.0,0.0
903.18384,670.2042,146936067,0.925,0.12765957,82.424385,-269.23853,-0.014820393,-0.0072092637,0.015690804,0.0,0.0,0.0
903.18384,671.1405,146936075,0.925,0.12765957,98.09422,-409.05048,-0.014820393,-0.0072092637,0.015690804,0.0,0.0,0.0
902.684,670.1686,146936101,0.925,0.12765957,45.726467,-324.38928,-0.014820393,-0.0072092637,0.015690804,0.0,0.0,0.0
902.684,664.6924,146936117,0.8875,0.10638297,19.055172,-349.8916,-0.014820393,-0.0072092637,0.015690804,0.0,0.0,0.0
902.684,641.0243,146936134,0.8625,0.08510638,9.020275,-965.46625,-0.014820393,-0.0072092637,0.015690804,0.0,0.0,0.0
902.684,608.1791,146936151,0.8625,0.10638297,4.746915,-1923.0298,-0.014820393,-0.0072092637,0.015690804,0.0,0.0,0.0
903.64935,575.65344,146936167,0.8625,0.10638297,31.11954,-2664.4236,-0.014820393,-0.0072092637,0.015690804,0.0,0.0,0.0
906.6842,539.1837,146936184,0.83750004,0.10638297,129.52574,-2732.1006,-0.014820393,-0.0072092637,0.015690804,0.0,0.0,0.0
911.4195,509.49487,146936201,0.83750004,0.09574468,259.88644,-2407.0496,-0.014820393,-0.0072092637,0.015690804,0.0,0.0,0.0
917.61743,479.1527,146936218,0.85,0.09574468,414.8302,-1977.3992,0.004143685,0.026232585,0.012553215,0.0,0.0,0.0
924.52527,454.94287,146936234,0.83750004,0.10638297,502.0313,-1580.4674,0.004143685,0.026232585,0.012553215,0.0,0.0,0.0
931.6384,438.51855,146936251,0.85,0.08510638,525.6302,-1145.0442,0.004143685,0.026232585,0.012553215,0.0,0.0,0.0
940.53625,424.19055,146936268,0.83750004,0.12765957,524.90607,-656.1945,0.004143685,0.026232585,0.012553215,0.0,0.0,0.0
951.2973,411.37048,146936284,0.83750004,0.12765957,617.14056,-432.72775,0.004143685,0.026232585,0.012553215,0.0,0.0,0.0
961.18176,402.1576,146936301,0.825,0.11702127,705.2435,-396.35242,0.004143685,0.026232585,0.012553215,0.0,0.0,0.0
970.3436,396.33728,146936318,0.85,0.11702127,663.96075,-319.738,0.004143685,0.026232585,0.012553215,0.0,0.0,0.0
980.4651,393.78418,146936335,0.85,0.10638297,598.8766,-108.06263,0.004143685,0.026232585,0.012553215,0.0,0.0,0.0
990.9175,394.17188,146936351,0.8625,0.12765957,558.20276,145.27763,0.004143685,0.026232585,0.012553215,0.0,0.0,0.0
1001.2761,398.5918,146936368,0.85,0.12765957,634.7738,336.5401,0.004143685,0.026232585,0.012553215,0.0,0.0,0.0
1008.6127,405.87866,146936385,0.8625,0.12765957,597.3592,544.7691,0.004143685,0.026232585,0.012553215,0.0,0.0,0.0
1016.3407,422.41235,146936401,0.875,0.09574468,452.2822,887.11664,0.004143685,0.026232585,0.012553215,0.0,0.0,0.0
1018.70557,438.85815,146936418,0.8625,0.12765957,244.562,1218.2334,0.004143685,0.026232585,0.012553215,0.0,0.0,0.0
1014.4945,450.85156,146936435,0.8625,0.12765957,-114.04677,1223.346,0.004143685,0.026232585,0.012553215,0.0,0.0,0.0
1008.14453,459.53467,146936452,0.8625,0.09574468,-465.6689,906.10614,0.004143685,0.026232585,0.012553215,0.0,0.0,0.0
991.84143,471.08435,146936468,0.8875,0.10638297,-928.43256,601.03455,0.004143685,0.026232585,0.012553215,0.0,0.0,0.0
971.5969,480.0653,146936485,0.8625,0.10638297,-1404.6857,420.10617,0.004143685,0.026232585,0.012553215,0.0,0.0,0.0
954.80505,484.1372,146936502,0.8625,0.09574468,-1516.4154,363.33356,0.004143685,0.026232585,0.012553215,0.0,0.0,0.0
943.6064,485.8877,146936518,0.8625,0.10638297,-1202.493,133.41428,0.004143685,0.026232585,0.012553215,0.0,0.0,0.0
937.2151,486.77612,146936535,0.85,0.08510638,-566.4107,-121.21767,0.004143685,0.026232585,0.012553215,0.0,0.0,0.0
935.81134,486.77612,146936552,0.75,0.08510638,12.290065,-189.09991,0.004143685,0.026232585,0.012553215,0.0,0.0,0.0
935.6733,486.77612,146936553,0.425,0.10638297,39.859447,-180.63223,0.004143685,0.026232585,0.012553215,0.0,0.0,0.0
935.6733,486.77612,146936561,0.425,0.10638297,39.859447,-180.63223,0.004143685,0.026232585,0.012553215,0.0,0.0,0.0
