x,y,timestamp,pressure,fingerarea,velocityx,velocityy,accelx,accely,accelz,gyrox,gyroy,gyroz
172.42174,175.80005,130439620,0.7375,0.09574468,0.0,0.0,-0.00864014,-0.012904078,0.03500843,0.0,0.0,0.0
172.42174,175.80005,130439642,0.8125,0.09574468,0.026024083,0.025789067,-0.00864014,-0.012904078,0.03500843,0.0,0.0,0.0
172.42174,175.80005,130439659,0.9375,0.12765957,-0.008534317,-0.0102722775,-0.00864014,-0.012904078,0.03500843,0.0,0.0,0.0
172.42174,175.80005,130439676,1.0125,0.12765957,0.011746558,0.012309236,-0.00864014,-0.012904078,0.03500843,0.0,0.0,0.0
172.42174,175.80005,130439688,1.0625,0.12765957,0.0046742824,0.006223361,-0.00864014,-0.012904078,0.03500843,0.0,0.0,0.0
172.42174,175.80005,130439709,1.075,0.12765957,-0.012507283,-0.013009011,-0.00864014,-0.012904078,0.03500843,0.0,0.0,0.0
172.42174,175.80005,130439726,1.075,0.10638297,-0.014285019,-0.014482835,-0.00864014,-0.012904078,0.03500843,0.0,0.0,0.0
199.59491,175.60938,130439742,1.025,0.11702127,772.3973,3.0701,-0.00864014,-0.012904078,0.03500843,0.0,0.0,0.0
229.8829,170.36243,130439759,1.025,0.08510638,1779.3671,-141.00659,-0.00864014,-0.012904078,0.03500843,0.0,0.0,0.0
261.88727,161.39844,130439776,0.975,0.09574468,2487.732,-422.83246,-0.00864014,-0.012904078,0.03500843,0.0,0.0,0.0
298.14426,151.57068,130439793,0.96250004,0.08510638,2777.4475,-748.6165,-0.00864014,-0.012904078,0.03500843,0.0,0.0,0.0
333.41296,142.80457,130439809,0.96250004,0.09574468,2475.867,-808.0081,-0.00864014,-0.012904078,0.03500843,0.0,0.0,0.0
365.67975,135.45715,130439826,0.925,0.12765957,2227.9714,-618.9373,-0.00864014,-0.012904078,0.03500843,0.0,0.0,0.0
398.81122,129.57556,130439843,0.9375,0.10638297,1996.8123,-395.08505,-0.00864014,-0.012904078,0.03500843,0.0,0.0,0.0
426.96472,125.59949,130439859,0.9125,0.11702127,1755.4052,-226.04253,-0.00864014,-0.012904078,0.03500843,0.0,0.0,0.0
453.04724,121.86536,130439876,0.9125,0.09574468,1577.4303,-142.3499,-0.00864014,-0.012904078,0.03500843,0.0,0.0,0.0
473.80164,116.409424,130439893,0.8875,0.09574468,1288.4224,-162.00127,-0.00864014,-0.012904078,0.03500843,0.0,0.0,0.0
491.57117,110.85974,130439910,0.875,0.08510638,973.02704,-270.82208,-0.00864014,-0.012904078,0.03500843,0.0,0.0,0.0
505.0467,107.184814,130439926,0.8875,0.08510638,699.6762,-301.72153,-0.00864014,-0.012904078,0.03500843,0.0,0.0,0.0
513.5887,104.546875,130439943,0.90000004,0.08510638,435.43463,-236.00919,-0.00864014,-0.012904078,0.03500843,0.0,0.0,0.0
519.92834,101.833984,130439960,0.9125,0.09574468,216.57571,-138.6255,-0.00864014,-0.012904078,0.03500843,0.0,0.0,0.0
525.15485,101.16577,130439976,0.8875,0.09574468,83.96312,-34.878716,-0.00864014,-0.012904078,0.03500843,0.0,0.0,0.0
529.23376,101.54614,130439993,0.8875,0.09574468,51.90917,41.062527,-0.00864014,-0.012904078,0.03500843,0.0,0.0,0.0
532.56726,105.62329,130440010,0.7625,0.09574468,99.689735,198.81512,-0.00864014,-0.012904078,0.03500843,0.0,0.0,0.0
533.30426,106.496704,130440014,0.52500004,0.12765957,92.46814,233.13841,-0.00864014,-0.012904078,0.03500843,0.0,0.0,0.0
533.30426,106.496704,130440021,0.52500004,0.12765957,92.46814,233.13841,-0.00864014,-0.012904078,0.03500843,0.0,0.0,0.0
213.40839,264.65027,130440441,1.025,0.09574468,0.0,0.0,-0.0069121122,0.0056767464,0.012007713,0.0,0.0,0.0
213.40839,264.65027,130440461,1.0875,0.09574468,-0.005137369,-0.009787416,-0.0069121122,0.0056767464,0.012007713,0.0,0.0,0.0
213.40839,264.65027,130440478,1.1,0.11702127,-0.0016099685,-9.580074E-4,-0.0069121122,0.0056767464,0.012007713,0.0,0.0,0.0
213.40839,264.65027,130440494,1.0875,0.08510638,-0.009504546,-0.0110612195,-0.0069121122,0.0056767464,0.012007713,0.0,0.0,0.0
234.57916,256.7683,130440511,1.0375,0.10638297,828.0636,-310.4667,-0.0069121122,0.0056767464,0.012007713,0.0,0.0,0.0
256.25372,250.05286,130440528,1.025,0.12765957,1486.1069,-514.8402,-0.0069121122,0.0056767464,0.012007713,0.0,0.0,0.0
279.80618,242.75781,130440545,0.9875,0.10638297,1988.9865,-646.011,-0.0069121122,0.0056767464,0.012007713,0.0,0.0,0.0
302.9831,237.07898,130440561,0.975,0.12765957,1954.3701,-558.77124,-0.0069121122,0.0056767464,0.012007713,0.0,0.0,0.0
330.14062,233.37915,130440578,0.975,0.09574468,1759.4008,-338.653,-0.0069121122,0.0056767464,0.012007713,0.0,0.0,0.0
358.22934,230.57544,130440595,0.96250004,0.11702127,1663.6101,-135.80574,-0.0069121122,0.0056767464,0.012007713,0.0,0.0,0.0
388.86096,228.66467,130440611,0.95,0.09574468,1858.1085,-56.924118,-0.005529687,-0.0114586055,-0.0063943863,0.0,0.0,0.0
417.35574,224.69678,130440628,0.9375,0.09574468,1900.2151,-75.5196,-0.005529687,-0.0114586055,-0.0063943863,0.0,0.0,0.0
445.4159,219.48486,130440645,0.925,0.08510638,1847.0854,-214.0227,-0.005529687,-0.0114586055,-0.0063943863,0.0,0.0,0.0
465.6787,215.09802,130440662,0.925,0.09574468,1477.2583,-333.26062,-0.005529687,-0.0114586055,-0.0063943863,0.0,0.0,0.0
484.47974,210.76746,130440678,0.9375,0.08510638,1064.6296,-320.5917,-0.005529687,-0.0114586055,-0.0063943863,0.0,0.0,0.0
501.49457,206.6355,130440695,0.95,0.08510638,820.46625,-276.10294,-0.005529687,-0.0114586055,-0.0063943863,0.0,0.0,0.0
516.54865,203.58435,130440712,0.9375,0.08510638,717.7547,-210.5401,-0.005529687,-0.0114586055,-0.0063943863,0.0,0.0,0.0
527.9145,200.85413,130440728,0.9375,0.09574468,661.98676,-163.24548,-0.005529687,-0.0114586055,-0.0063943863,0.0,0.0,0.0
538.3718,198.90112,130440745,0.90000004,0.10638297,550.98987,-113.952286,-0.005529687,-0.0114586055,-0.0063943863,0.0,0.0,0.0
546.20355,198.90112,130440762,0.90000004,0.09574468,373.99625,-13.2212715,-0.005529687,-0.0114586055,-0.0063943863,0.0,0.0,0.0
552.4368,198.90112,130440778,0.9375,0.09574468,280.1868,47.174232,-0.005529687,-0.0114586055,-0.0063943863,0.0,0.0,0.0
556.0029,197.8905,130440795,0.9375,0.09574468,168.61829,48.940044,-0.005529687,-0.0114586055,-0.0063943863,0.0,0.0,0.0
557.9029,198.01257,130440812,0.96250004,0.09574468,45.54169,26.878412,-0.005529687,-0.0114586055,-0.0063943863,0.0,0.0,0.0
558.94,197.12402,130440829,0.9375,0.09574468,-49.009876,-26.787403,-0.005529687,-0.0114586055,-0.0063943863,0.0,0.0,0.0
559.2958,197.12402,130440845,0.9125,0.09574468,-85.516106,-35.387043,-0.005529687,-0.0114586055,-0.0063943863,0.0,0.0,0.0
559.06964,197.12402,130440862,0.825,0.09574468,-69.54764,-3.9145527,-0.005529687,-0.0114586055,-0.0063943863,0.0,0.0,0.0
558.79596,197.12402,130440866,0.6125,0.09574468,-80.14079,-0.56000537,-0.005529687,-0.0114586055,-0.0063943863,0.0,0.0,0.0
558.79596,197.12402,130440874,0.6125,0.09574468,-80.14079,-0.56000537,-0.005529687,-0.0114586055,-0.0063943863,0.0,0.0,0.0
362.3599,86.06116,130441517,1.0375,0.12765957,0.0,0.0,-0.0044237524,0.006833136,-0.021115303,0.0,0.0,0.0
362.3599,86.06116,130441547,1.075,0.10638297,-0.032521185,-0.007777903,-0.0044237524,0.006833136,-0.021115303,0.0,0.0,0.0
358.78336,102.75,130441564,1.0875,0.10638297,-244.39154,1140.4232,-0.0044237524,0.006833136,-0.021115303,0.0,0.0,0.0
356.00058,122.14661,130441581,1.075,0.12765957,-285.5846,1605.4861,-0.0044237524,0.006833136,-0.021115303,0.0,0.0,0.0
353.4813,150.02698,130441597,1.0875,0.10638297,-240.88747,1957.887,-0.0044237524,0.006833136,-0.021115303,0.0,0.0,0.0
349.47864,176.86462,130441614,1.075,0.12765957,-260.36053,2197.622,-0.0044237524,0.006833136,-0.021115303,0.0,0.0,0.0
343.6772,212.51428,130441631,1.1,0.10638297,-304.8481,2277.1975,-0.0044237524,0.006833136,-0.021115303,0.0,0.0,0.0
338.333,243.89136,130441647,1.1125001,0.10638297,-353.14865,2178.8416,-0.0044237524,0.006833136,-0.021115303,0.0,0.0,0.0
334.5093,279.14697,130441664,1.1,0.12765957,-367.10526,2275.3865,-0.0044237524,0.006833136,-0.021115303,0.0,0.0,0.0
332.0637,310.68848,130441681,1.1,0.08510638,-245.49486,2138.3484,0.012460992,-0.026533484,-0.016892433,0.0,0.0,0.0
331.1599,338.80847,130441698,1.075,0.12765957,-84.43878,1959.4264,0.012460992,-0.026533484,-0.016892433,0.0,0.0,0.0
331.1192,365.469,130441714,1.0875,0.08510638,48.060833,1594.7084,0.012460992,-0.026533484,-0.016892433,0.0,0.0,0.0
331.8698,389.41235,130441731,1.0625,0.12765957,124.158775,1308.3345,0.012460992,-0.026533484,-0.016892433,0.0,0.0,0.0
331.8698,411.1405,130441748,1.0875,0.10638297,100.36891,1205.7548,0.012460992,-0.026533484,-0.016892433,0.0,0.0,0.0
331.0048,435.27588,130441764,1.075,0.10638297,29.130901,1199.601,0.012460992,-0.026533484,-0.016892433,0.0,0.0,0.0
329.05383,451.54895,130441781,1.075,0.12765957,-79.20094,1132.0604,0.012460992,-0.026533484,-0.016892433,0.0,0.0,0.0
326.9627,467.46875,130441798,1.0875,0.10638297,-165.6854,909.36816,0.012460992,-0.026533484,-0.016892433,0.0,0.0,0.0
325.37817,482.24524,130441815,1.1125001,0.09574468,-176.10715,779.03394,0.012460992,-0.026533484,-0.016892433,0.0,0.0,0.0
324.37225,492.39795,130441831,1.1,0.11702127,-118.64993,566.55865,0.012460992,-0.026533484,-0.016892433,0.0,0.0,0.0
324.37225,497.84375,130441848,1.125,0.12765957,-28.134754,346.44318,0.012460992,-0.026533484,-0.016892433,0.0,0.0,0.0
324.37225,502.4568,130441865,1.1,0.12765957,34.663532,147.95906,0.012460992,-0.026533484,-0.016892433,0.0,0.0,0.0
324.2837,507.68396,130441881,1.125,0.12765957,47.290863,48.85199,0.012460992,-0.026533484,-0.016892433,0.0,0.0,0.0
323.87244,513.5786,130441898,1.0875,0.11702127,17.444553,130.28874,0.012460992,-0.026533484,-0.016892433,0.0,0.0,0.0
323.1477,519.073,130441915,1.1,0.11702127,-38.451313,318.24084,0.012460992,-0.026533484,-0.016892433,0.0,0.0,0.0
322.60147,523.28076,130441931,1.1,0.11702127,-47.29689,319.9744,0.012460992,-0.026533484,-0.016892433,0.0,0.0,0.0
321.56314,526.97205,130441948,1.1125001,0.11702127,-57.6669,243.72113,0.012460992,-0.026533484,-0.016892433,0.0,0.0,0.0
320.52664,529.1522,130441965,1.15,0.11702127,-66.75102,137.24341,0.012460992,-0.026533484,-0.016892433,0.0,0.0,0.0
319.87372,531.0039,130441982,1.1125001,0.09574468,-69.68105,63.731567,0.012460992,-0.026533484,-0.016892433,0.0,0.0,0.0
319.87372,532.85486,130441998,1.125,0.09574468,-35.33671,41.040325,0.012460992,-0.026533484,-0.016892433,0.0,0.0,0.0
319.87372,532.9783,130442015,1.1,0.09574468,8.104779,18.413523,0.012460992,-0.026533484,-0.016892433,0.0,0.0,0.0
320.90622,534.8137,130442032,0.77500004,0.08510638,52.556797,21.693836,0.012460992,-0.026533484,-0.016892433,0.0,0.0,0.0
320.90622,534.8137,130442039,0.77500004,0.08510638,52.556797,21.693836,0.012460992,-0.026533484,-0.016892433,0.0,0.0,0.0
395.34915,511.65417,130442829,1.0,0.10638297,0.0,0.0,-0.016024977,-0.0041814744,0.001988411,0.0,0.0,0.0
395.34915,511.65417,130442851,1.0375,0.10638297,-0.07507112,-0.087094106,-0.016024977,-0.0041814744,0.001988411,0.0,0.0,0.0
395.34915,511.65417,130442865,1.0375,0.10638297,0.0011465786,-8.187764E-4,-0.016024977,-0.0041814744,0.001988411,0.0,0.0,0.0
395.34915,511.65417,130442901,1.0125,0.10638297,-0.0022651104,-0.002903898,-0.016024977,-0.0041814744,0.001988411,0.0,0.0,0.0
409.2531,506.35803,130442917,0.9875,0.12765957,331.61862,-126.3041,-0.016024977,-0.0041814744,0.001988411,0.0,0.0,0.0
425.33875,497.12134,130442934,0.96250004,0.08510638,1126.719,-535.9261,-0.016024977,-0.0041814744,0.001988411,0.0,0.0,0.0
443.74988,481.0088,130442951,0.925,0.08510638,1440.1877,-914.15924,-0.016024977,-0.0041814744,0.001988411,0.0,0.0,0.0
464.72272,459.05933,130442968,0.90000004,0.11702127,1524.052,-1456.4762,-0.016024977,-0.0041814744,0.001988411,0.0,0.0,0.0
486.04535,431.4912,130442984,0.9125,0.08510638,1562.206,-1809.8004,-0.016024977,-0.0041814744,0.001988411,0.0,0.0,0.0
506.42114,402.52136,130443001,0.8875,0.08510638,1376.9061,-2071.4587,-0.016024977,-0.0041814744,0.001988411,0.0,0.0,0.0
523.0318,372.73828,130443018,0.875,0.11702127,1181.8546,-2063.3313,-0.016024977,-0.0041814744,0.001988411,0.0,0.0,0.0
534.74,347.29993,130443034,0.875,0.11702127,850.5967,-1920.5021,-0.016024977,-0.0041814744,0.001988411,0.0,0.0,0.0
538.9184,335.6598,130443051,0.875,0.08510638,349.40112,-1225.0137,-0.016024977,-0.0041814744,0.001988411,0.0,0.0,0.0
539.3023,330.67346,130443068,0.9375,0.09574468,-134.89255,-350.48398,-0.016024977,-0.0041814744,0.001988411,0.0,0.0,0.0
538.01855,329.5111,130443085,0.95,0.09574468,-408.58047,330.6639,-0.016024977,-0.0041814744,0.001988411,0.0,0.0,0.0
532.78503,334.354,130443101,0.9875,0.11702127,-530.249,702.7296,-0.016024977,-0.0041814744,0.001988411,0.0,0.0,0.0
522.5546,346.93018,130443118,1.0125,0.10638297,-631.97833,845.2545,-0.016024977,-0.0041814744,0.001988411,0.0,0.0,0.0
505.60168,379.73706,130443135,0.975,0.09574468,-1010.7142,1678.9525,-0.016024977,-0.0041814744,0.001988411,0.0,0.0,0.0
496.85107,403.81458,130443151,0.975,0.10638297,-1047.1532,2154.1445,-0.016024977,-0.0041814744,0.001988411,0.0,0.0,0.0
491.3189,427.7749,130443168,0.9875,0.08510638,-733.6249,2159.6191,-0.016024977,-0.0041814744,0.001988411,0.0,0.0,0.0
490.81805,443.94495,130443185,0.975,0.12765957,-191.7917,1577.3679,-0.016024977,-0.0041814744,0.001988411,0.0,0.0,0.0
491.51355,456.3352,130443201,0.9875,0.12765957,230.85558,848.64026,-0.016024977,-0.0041814744,0.001988411,0.0,0.0,0.0
493.96484,464.3214,130443218,1.0125,0.10638297,387.30194,359.41107,-0.016024977,-0.0041814744,0.001988411,0.0,0.0,0.0
497.08167,469.46704,130443235,1.025,0.08510638,339.79498,103.849106,-0.016024977,-0.0041814744,0.001988411,0.0,0.0,0.0
505.57007,473.97473,130443252,1.0,0.08510638,432.77744,31.305763,-0.016024977,-0.0041814744,0.001988411,0.0,0.0,0.0
519.5076,473.14563,130443268,0.975,0.10638297,741.1591,-91.352615,-0.016024977,-0.0041814744,0.001988411,0.0,0.0,0.0
539.26697,465.0266,130443285,0.95,0.12765957,1191.5729,-396.77933,0.011180013,0.028654844,0.08159065,0.0,0.0,0.0
556.81616,452.38696,130443302,0.9375,0.09574468,1461.4763,-819.1335,0.011180013,0.028654844,0.08159065,0.0,0.0,0.0
569.8668,435.86157,130443318,0.925,0.08510638,1307.0168,-1222.3915,0.011180013,0.028654844,0.08159065,0.0,0.0,0.0
579.2774,420.1626,130443335,0.8875,0.11702127,839.3222,-1363.8097,0.011180013,0.028654844,0.08159065,0.0,0.0,0.0
588.52,400.1068,130443352,0.90000004,0.09574468,428.6816,-1355.9286,0.011180013,0.028654844,0.08159065,0.0,0.0,0.0
591.50397,386.35718,130443369,0.90000004,0.09574468,135.35033,-1142.9927,0.011180013,0.028654844,0.08159065,0.0,0.0,0.0
592.28503,377.58093,130443385,0.90000004,0.09574468,-53.16841,-771.5728,0.011180013,0.028654844,0.08159065,0.0,0.0,0.0
592.28503,370.46326,130443402,0.9125,0.09574468,-181.24236,-394.76736,0.011180013,0.028654844,0.08159065,0.0,0.0,0.0
592.28503,364.96106,130443419,0.90000004,0.11702127,-217.71962,-138.26573,0.011180013,0.028654844,0.08159065,0.0,0.0,0.0
592.28503,360.65796,130443435,0.925,0.12765957,-91.63189,-128.13344,0.011180013,0.028654844,0.08159065,0.0,0.0,0.0
592.28503,357.84814,130443452,0.9375,0.12765957,-33.6162,-93.26825,0.011180013,0.028654844,0.08159065,0.0,0.0,0.0
592.28503,355.6045,130443469,0.9375,0.12765957,-5.4058104,-60.388683,0.011180013,0.028654844,0.08159065,0.0,0.0,0.0
592.28503,353.80884,130443486,0.95,0.12765957,0.03407487,-35.021194,0.011180013,0.028654844,0.08159065,0.0,0.0,0.0
592.28503,353.5006,130443502,0.9875,0.12765957,0.050044946,-3.0978189,0.011180013,0.028654844,0.08159065,0.0,0.0,0.0
592.28503,354.26245,130443519,1.0125,0.12765957,0.017634729,44.591587,0.011180013,0.028654844,0.08159065,0.0,0.0,0.0
592.28503,359.5299,130443536,1.0375,0.11702127,0.01365723,204.32086,0.011180013,0.028654844,0.08159065,0.0,0.0,0.0
591.76794,374.21277,130443552,1.025,0.09574468,-12.762867,660.1238,0.011180013,0.028654844,0.08159065,0.0,0.0,0.0
589.59875,390.0387,130443569,1.0,0.12765957,-74.96317,1101.2407,0.011180013,0.028654844,0.08159065,0.0,0.0,0.0
586.51526,409.30872,130443586,1.0,0.11702127,-174.78218,1420.4373,0.011180013,0.028654844,0.08159065,0.0,0.0,0.0
583.39825,427.54712,130443603,1.025,0.11702127,-247.01155,1469.7769,0.011180013,0.028654844,0.08159065,0.0,0.0,0.0
581.78845,441.2384,130443619,1.025,0.12765957,-230.30334,1209.6716,0.011180013,0.028654844,0.08159065,0.0,0.0,0.0
582.00116,448.8164,130443636,1.0375,0.12765957,-95.88758,735.3292,0.011180013,0.028654844,0.08159065,0.0,0.0,0.0
583.0446,454.38086,130443653,1.0500001,0.12765957,92.97128,209.7482,0.011180013,0.028654844,0.08159065,0.0,0.0,0.0
585.1761,460.4497,130443669,1.0375,0.11702127,184.05637,35.222458,0.011180013,0.028654844,0.08159065,0.0,0.0,0.0
588.6298,468.4364,130443686,1.0375,0.11702127,246.64961,164.95757,0.011180013,0.028654844,0.08159065,0.0,0.0,0.0
592.7834,478.5542,130443703,1.025,0.09574468,291.56818,474.54446,0.011180013,0.028654844,0.08159065,0.0,0.0,0.0
595.8689,487.3241,130443719,1.025,0.10638297,292.41653,626.80676,0.011180013,0.028654844,0.08159065,0.0,0.0,0.0
598.1389,493.49976,130443736,1.0375,0.10638297,221.49786,558.69006,0.011180013,0.028654844,0.08159065,0.0,0.0,0.0
599.77966,496.54443,130443753,1.0625,0.12765957,122.64544,335.08377,0.011180013,0.028654844,0.08159065,0.0,0.0,0.0
601.3613,498.3971,130443770,1.075,0.12765957,52.1082,60.047527,0.011180013,0.028654844,0.08159065,0.0,0.0,0.0
605.0855,500.2389,130443786,1.075,0.12765957,105.10326,-48.19948,0.011180013,0.028654844,0.08159065,0.0,0.0,0.0
609.84106,500.10364,130443803,1.0625,0.09574468,229.89003,-83.425674,0.011180013,0.028654844,0.08159065,0.0,0.0,0.0
615.6767,500.10364,130443820,1.0375,0.09574468,363.48987,-69.07159,-0.007055983,-0.025076121,-0.030727386,0.0,0.0,0.0
622.61676,500.10364,130443836,1.025,0.10638297,465.04727,-56.01833,-0.007055983,-0.025076121,-0.030727386,0.0,0.0,0.0
629.4148,498.79834,130443853,1.0,0.11702127,484.54788,-75.583694,-0.007055983,-0.025076121,-0.030727386,0.0,0.0,0.0
638.00507,495.09167,130443870,0.96250004,0.09574468,509.73117,-152.96558,-0.007055983,-0.025076121,-0.030727386,0.0,0.0,0.0
649.8643,487.52942,130443887,0.9375,0.08510638,632.79114,-368.58466,-0.007055983,-0.025076121,-0.030727386,0.0,0.0,0.0
662.59393,477.0039,130443903,0.925,0.08510638,792.764,-646.3736,-0.007055983,-0.025076121,-0.030727386,0.0,0.0,0.0
677.265,464.21448,130443920,0.8875,0.12765957,952.44934,-880.2906,-0.007055983,-0.025076121,-0.030727386,0.0,0.0,0.0
692.5413,444.88525,130443937,0.875,0.09574468,1016.56323,-1113.5396,-0.007055983,-0.025076121,-0.030727386,0.0,0.0,0.0
711.3105,417.2677,130443953,0.90000004,0.10638297,1113.3582,-1556.7225,-0.007055983,-0.025076121,-0.030727386,0.0,0.0,0.0
736.2291,372.11902,130443970,0.8625,0.08510638,1361.4679,-2386.3042,-0.007055983,-0.025076121,-0.030727386,0.0,0.0,0.0
749.96735,338.26782,130443987,0.8625,0.09574468,1331.1439,-2853.8845,-0.007055983,-0.025076121,-0.030727386,0.0,0.0,0.0
763.44794,304.05017,130444004,0.8625,0.12765957,1057.3945,-2765.6423,-0.007055983,-0.025076121,-0.030727386,0.0,0.0,0.0
770.12616,274.8723,130444020,0.875,0.08510638,559.9679,-2208.1504,-0.007055983,-0.025076121,-0.030727386,0.0,0.0,0.0
770.7269,257.42017,130444037,0.8875,0.10638297,20.744774,-1387.4119,-0.007055983,-0.025076121,-0.030727386,0.0,0.0,0.0
766.36615,247.50806,130444054,0.8875,0.12765957,-424.0442,-570.3425,-0.007055983,-0.025076121,-0.030727386,0.0,0.0,0.0
758.9176,242.41736,130444070,0.8875,0.12765957,-683.1656,5.0969987,-0.007055983,-0.025076121,-0.030727386,0.0,0.0,0.0
742.55414,241.58154,130444087,0.925,0.12765957,-1004.30316,335.2426,-0.007055983,-0.025076121,-0.030727386,0.0,0.0,0.0
720.787,248.04639,130444104,0.9375,0.10638297,-1433.1847,568.6152,-0.007055983,-0.025076121,-0.030727386,0.0,0.0,0.0
699.2057,261.511,130444121,0.95,0.09574468,-1685.4728,888.8754,-0.007055983,-0.025076121,-0.030727386,0.0,0.0,0.0
680.8775,275.82886,130444137,0.975,0.09574468,-1609.8756,1219.058,-0.007055983,-0.025076121,-0.030727386,0.0,0.0,0.0
670.12616,283.95325,130444154,1.0,0.10638297,-1130.1548,1163.3058,-0.007055983,-0.025076121,-0.030727386,0.0,0.0,0.0
666.2798,286.8518,130444171,1.0,0.12765957,-401.9281,630.0704,-0.007055983,-0.025076121,-0.030727386,0.0,0.0,0.0
664.7615,288.1958,130444183,1.0125,0.12765957,-6.5309176,233.78654,-0.007055983,-0.025076121,-0.030727386,0.0,0.0,0.0
666.41595,287.75146,130444204,1.0125,0.10638297,400.2953,-270.35153,-0.007055983,-0.025076121,-0.030727386,0.0,0.0,0.0
675.4918,289.74768,130444221,0.95,0.12765957,610.81116,-208.65259,-0.007055983,-0.025076121,-0.030727386,0.0,0.0,0.0
688.82324,293.6953,130444238,0.8875,0.12765957,878.0436,41.415565,-0.007055983,-0.025076121,-0.030727386,0.0,0.0,0.0
701.663,298.54504,130444254,0.9375,0.12765957,1091.0181,262.15854,-0.007055983,-0.025076121,-0.030727386,0.0,0.0,0.0
712.11694,305.8224,130444271,0.9125,0.08510638,1030.0411,460.03522,-0.007055983,-0.025076121,-0.030727386,0.0,0.0,0.0
720.3483,318.50537,130444288,0.96250004,0.08510638,680.95386,654.4461,-0.007055983,-0.025076121,-0.030727386,0.0,0.0,0.0
726.8619,335.27075,130444304,0.975,0.10638297,377.0176,1021.7388,-0.007055983,-0.025076121,-0.030727386,0.0,0.0,0.0
729.81,349.55396,130444321,0.9875,0.10638297,152.84987,1162.1587,-0.007055983,-0.025076121,-0.030727386,0.0,0.0,0.0
731.1132,365.69116,130444338,1.0125,0.08510638,-15.647165,1145.6707,-0.007055983,-0.025076121,-0.030727386,0.0,0.0,0.0
732.16766,379.3899,130444354,0.9875,0.08510638,-100.7773,1004.6594,0.010355204,0.027939111,0.023417473,0.0,0.0,0.0
732.70917,387.93762,130444371,1.0,0.10638297,-113.34322,698.01306,0.010355204,0.027939111,0.023417473,0.0,0.0,0.0
733.25446,394.45337,130444388,0.975,0.12765957,-37.332012,417.10245,0.010355204,0.027939111,0.023417473,0.0,0.0,0.0
733.739,400.9005,130444405,0.975,0.10638297,4.5264053,207.19495,0.010355204,0.027939111,0.023417473,0.0,0.0,0.0
733.739,405.40112,130444421,1.0125,0.10638297,5.493218,126.65832,0.010355204,0.027939111,0.023417473,0.0,0.0,0.0
734.39124,410.01807,130444438,0.9875,0.10638297,7.5189795,164.73723,0.010355204,0.027939111,0.023417473,0.0,0.0,0.0
734.94574,413.76672,130444455,1.0,0.08510638,18.982685,176.57098,0.010355204,0.027939111,0.023417473,0.0,0.0,0.0
735.73834,417.33887,130444471,1.0125,0.08510638,44.093513,166.6507,0.010355204,0.027939111,0.023417473,0.0,0.0,0.0
736.23816,420.56128,130444488,1.025,0.08510638,60.480736,182.40854,0.010355204,0.027939111,0.023417473,0.0,0.0,0.0
736.73804,422.38208,130444505,1.0125,0.08510638,40.700657,133.47748,0.010355204,0.027939111,0.023417473,0.0,0.0,0.0
737.23785,424.23206,130444522,1.0375,0.08510638,25.512434,85.75186,0.010355204,0.027939111,0.023417473,0.0,0.0,0.0
737.23785,425.46936,130444538,1.0375,0.08510638,5.9645395,43.92307,0.010355204,0.027939111,0.023417473,0.0,0.0,0.0
737.7377,427.08008,130444555,1.0375,0.08510638,10.599883,36.249096,0.010355204,0.027939111,0.023417473,0.0,0.0,0.0
738.3765,428.38196,130444572,1.0375,0.08510638,20.831581,64.175095,0.010355204,0.027939111,0.023417473,0.0,0.0,0.0
738.7259,429.8711,130444588,1.025,0.08510638,25.53116,63.417538,0.010355204,0.027939111,0.023417473,0.0,0.0,0.0
738.73737,429.912,130444605,1.0375,0.09574468,21.627317,48.071194,0.010355204,0.027939111,0.023417473,0.0,0.0,0.0
739.2372,431.68896,130444622,1.0125,0.09574468,19.336649,65.07843,0.010355204,0.027939111,0.023417473,0.0,0.0,0.0
740.33167,433.63452,130444639,1.0375,0.11702127,36.594704,85.81685,0.010355204,0.027939111,0.023417473,0.0,0.0,0.0
740.9866,434.79883,130444652,1.0375,0.11702127,53.112083,105.07797,0.010355204,0.027939111,0.023417473,0.0,0.0,0.0
741.42487,435.57764,130444672,1.0375,0.11702127,44.941406,63.398506,0.010355204,0.027939111,0.023417473,0.0,0.0,0.0
742.4601,438.3064,130444689,1.0375,0.11702127,47.010162,92.21952,0.010355204,0.027939111,0.023417473,0.0,0.0,0.0
743.49414,439.68542,130444705,1.025,0.11702127,59.49964,132.03978,0.010355204,0.027939111,0.023417473,0.0,0.0,0.0
744.5425,441.1195,130444722,1.0125,0.11702127,74.556656,119.36519,0.010355204,0.027939111,0.023417473,0.0,0.0,0.0
745.5735,442.95227,130444739,1.0125,0.11702127,76.87782,106.24663,0.010355204,0.027939111,0.023417473,0.0,0.0,0.0
746.6048,444.7854,130444756,1.0375,0.12765957,60.40299,82.3731,0.010355204,0.027939111,0.023417473,0.0,0.0,0.0
747.2346,445.90503,130444772,1.025,0.12765957,54.019848,95.87138,0.010355204,0.027939111,0.023417473,0.0,0.0,0.0
747.9844,447.23767,130444785,1.0375,0.12765957,45.062817,94.94922,0.010355204,0.027939111,0.023417473,0.0,0.0,0.0
748.747,448.59338,130444806,1.025,0.12765957,34.02376,60.442665,0.010355204,0.027939111,0.023417473,0.0,0.0,0.0
749.78613,450.44067,130444822,1.025,0.12765957,43.699333,77.63155,0.010355204,0.027939111,0.023417473,0.0,0.0,0.0
751.41016,453.3275,130444839,1.0375,0.12765957,74.85527,133.02245,0.010355204,0.027939111,0.023417473,0.0,0.0,0.0
753.00745,456.16663,130444856,1.0375,0.12765957,105.4239,187.36331,0.010355204,0.027939111,0.023417473,0.0,0.0,0.0
753.9407,457.82568,130444872,1.0375,0.12765957,100.909775,179.36992,0.010355204,0.027939111,0.023417473,0.0,0.0,0.0
754.9258,458.68823,130444889,1.0375,0.11702127,71.643456,95.63602,-0.007715836,-0.00964874,-0.01326561,0.0,0.0,0.0
755.9798,460.5619,130444906,1.025,0.11702127,52.263332,61.26396,-0.007715836,-0.00964874,-0.01326561,0.0,0.0,0.0
757.29156,462.39575,130444923,1.0375,0.11702127,53.04608,72.2568,-0.007715836,-0.00964874,-0.01326561,0.0,0.0,0.0
759.38025,464.25232,130444939,1.0375,0.11702127,95.983696,109.01603,-0.007715836,-0.00964874,-0.01326561,0.0,0.0,0.0
761.0583,466.03528,130444956,1.025,0.11702127,127.06896,122.28527,-0.007715836,-0.00964874,-0.01326561,0.0,0.0,0.0
763.00525,467.91833,130444973,1.025,0.10638297,131.75249,106.700386,-0.007715836,-0.00964874,-0.01326561,0.0,0.0,0.0
765.10974,469.78882,130444989,1.025,0.10638297,132.19418,110.7223,-0.007715836,-0.00964874,-0.01326561,0.0,0.0,0.0
766.7108,471.65613,130445006,1.025,0.08510638,114.58776,114.192726,-0.007715836,-0.00964874,-0.01326561,0.0,0.0,0.0
768.79425,473.5078,130445023,1.0375,0.08510638,116.05717,113.81689,-0.007715836,-0.00964874,-0.01326561,0.0,0.0,0.0
770.30206,475.3589,130445040,1.0375,0.08510638,109.63134,111.54533,-0.007715836,-0.00964874,-0.01326561,0.0,0.0,0.0
772.4626,476.32397,130445056,1.0500001,0.08510638,107.10884,81.72136,-0.007715836,-0.00964874,-0.01326561,0.0,0.0,0.0
773.3973,476.11414,130445073,1.025,0.08510638,88.46064,24.197805,-0.007715836,-0.00964874,-0.01326561,0.0,0.0,0.0
774.9006,477.00256,130445090,1.0500001,0.08510638,76.19208,3.3009236,-0.007715836,-0.00964874,-0.01326561,0.0,0.0,0.0
776.1863,478.30078,130445106,1.025,0.08510638,64.46377,19.645103,-0.007715836,-0.00964874,-0.01326561,0.0,0.0,0.0
778.25903,479.25452,130445123,1.0375,0.08510638,89.87862,63.12296,-0.007715836,-0.00964874,-0.01326561,0.0,0.0,0.0
780.0249,479.6681,130445140,1.0500001,0.08510638,121.635155,65.40434,-0.007715836,-0.00964874,-0.01326561,0.0,0.0,0.0
781.3657,479.6681,130445157,1.025,0.08510638,106.857445,18.13783,-0.007715836,-0.00964874,-0.01326561,0.0,0.0,0.0
782.5971,479.6681,130445173,1.0375,0.08510638,87.63733,-18.103989,-0.007715836,-0.00964874,-0.01326561,0.0,0.0,0.0
783.6413,479.6681,130445190,1.0500001,0.08510638,53.853523,-34.529137,-0.007715836,-0.00964874,-0.01326561,0.0,0.0,0.0
784.68945,479.6681,130445207,1.0500001,0.08510638,45.546196,-15.068244,-0.007715836,-0.00964874,-0.01326561,0.0,0.0,0.0
785.7325,479.6681,130445223,1.0500001,0.08510638,53.431755,-5.431562E-4,-0.007715836,-0.00964874,-0.01326561,0.0,0.0,0.0
786.7744,479.6681,130445240,1.0375,0.08510638,55.541084,-0.03920263,-0.007715836,-0.00964874,-0.01326561,0.0,0.0,0.0
787.8163,479.6681,130445257,1.0375,0.08510638,62.339302,-0.032915697,-0.007715836,-0.00964874,-0.01326561,0.0,0.0,0.0
788.8642,479.6681,130445274,1.0500001,0.08510638,61.87665,-0.025333952,-0.007715836,-0.00964874,-0.01326561,0.0,0.0,0.0
790.5207,479.6681,130445290,1.025,0.08510638,75.76873,0.006102022,-0.007715836,-0.00964874,-0.01326561,0.0,0.0,0.0
791.4294,479.6681,130445307,1.025,0.08510638,80.57531,-0.022454875,-0.007715836,-0.00964874,-0.01326561,0.0,0.0,0.0
792.46796,479.6681,130445324,1.025,0.08510638,74.56272,0.037897386,-0.007715836,-0.00964874,-0.01326561,0.0,0.0,0.0
793.50696,479.6681,130445340,1.0375,0.08510638,62.015976,0.046985168,-0.007715836,-0.00964874,-0.01326561,0.0,0.0,0.0
794.5244,479.6681,130445357,1.0375,0.08510638,51.707836,0.035785705,-0.007715836,-0.00964874,-0.01326561,0.0,0.0,0.0
795.5745,480.30005,130445374,1.0,0.08510638,55.174522,11.034015,-0.007715836,-0.00964874,-0.01326561,0.0,0.0,0.0
797.0044,480.55664,130445391,1.0125,0.09574468,67.77299,32.912655,-0.007715836,-0.00964874,-0.01326561,0.0,0.0,0.0
798.62256,480.55664,130445407,1.0125,0.09574468,90.21441,27.45065,-0.007715836,-0.00964874,-0.01326561,0.0,0.0,0.0
800.20703,481.44507,130445424,1.0125,0.09574468,112.631905,34.46106,-0.006172672,-0.00771901,-0.010612488,0.0,0.0,0.0
801.7477,482.38843,130445441,1.0,0.09574468,111.91962,44.038586,-0.006172672,-0.00771901,-0.010612488,0.0,0.0,0.0
803.8595,482.33362,130445457,1.0,0.09574468,115.13732,35.646984,-0.006172672,-0.00771901,-0.010612488,0.0,0.0,0.0
805.32837,482.33362,130445474,1.0,0.09574468,107.884834,19.74282,-0.006172672,-0.00771901,-0.010612488,0.0,0.0,0.0
807.4719,483.22217,130445491,1.0,0.09574468,114.45997,18.08125,-0.006172672,-0.00771901,-0.010612488,0.0,0.0,0.0
810.2604,483.22217,130445508,0.9875,0.09574468,141.77509,9.689188,-0.006172672,-0.00771901,-0.010612488,0.0,0.0,0.0
812.7599,483.22217,130445524,0.975,0.08510638,168.1836,4.2115927,-0.006172672,-0.00771901,-0.010612488,0.0,0.0,0.0
816.01605,483.22217,130445541,0.975,0.08510638,199.44978,-7.410534,-0.006172672,-0.00771901,-0.010612488,0.0,0.0,0.0
818.8207,483.22217,130445558,0.96250004,0.08510638,205.95036,-16.62827,-0.006172672,-0.00771901,-0.010612488,0.0,0.0,0.0
820.8742,483.22217,130445574,0.975,0.08510638,161.77289,0.051993463,-0.006172672,-0.00771901,-0.010612488,0.0,0.0,0.0
823.21387,483.22217,130445591,0.975,0.08510638,121.117584,0.039924197,-0.006172672,-0.00771901,-0.010612488,0.0,0.0,0.0
825.5457,483.22217,130445608,0.96250004,0.08510638,115.697716,0.055959217,-0.006172672,-0.00771901,-0.010612488,0.0,0.0,0.0
829.13904,482.33362,130445624,0.95,0.08510638,159.09267,-26.213524,-0.006172672,-0.00771901,-0.010612488,0.0,0.0,0.0
832.23395,481.42114,130445641,0.95,0.08510638,213.4956,-53.55959,-0.006172672,-0.00771901,-0.010612488,0.0,0.0,0.0
835.2916,479.6173,130445658,0.9375,0.08510638,214.90924,-100.52021,-0.006172672,-0.00771901,-0.010612488,0.0,0.0,0.0
839.05115,477.73718,130445675,0.925,0.08510638,213.61049,-136.06546,-0.006172672,-0.00771901,-0.010612488,0.0,0.0,0.0
842.72156,475.88403,130445691,0.925,0.08510638,223.32452,-145.89836,-0.006172672,-0.00771901,-0.010612488,0.0,0.0,0.0
846.30945,474.33704,130445708,0.9125,0.08510638,227.2778,-133.71765,-0.006172672,-0.00771901,-0.010612488,0.0,0.0,0.0
850.232,473.13416,130445725,0.925,0.09574468,243.39273,-89.35818,-0.006172672,-0.00771901,-0.010612488,0.0,0.0,0.0
854.01166,471.3109,130445741,0.925,0.09574468,227.49242,-78.269585,-0.006172672,-0.00771901,-0.010612488,0.0,0.0,0.0
858.31134,469.6223,130445758,0.9125,0.11702127,240.11163,-92.60444,-0.006172672,-0.00771901,-0.010612488,0.0,0.0,0.0
864.1509,467.6007,130445775,0.8875,0.11702127,306.54086,-117.428566,-0.006172672,-0.00771901,-0.010612488,0.0,0.0,0.0
869.7533,465.73083,130445792,0.8875,0.10638297,358.72946,-128.11176,-0.006172672,-0.00771901,-0.010612488,0.0,0.0,0.0
875.5587,463.8629,130445808,0.875,0.10638297,388.60184,-114.5416,-0.006172672,-0.00771901,-0.010612488,0.0,0.0,0.0
881.8968,461.114,130445825,0.90000004,0.10638297,400.56134,-139.73734,-0.006172672,-0.00771901,-0.010612488,0.0,0.0,0.0
887.6259,458.38135,130445842,0.8625,0.10638297,383.8991,-162.94687,-0.006172672,-0.00771901,-0.010612488,0.0,0.0,0.0
892.84814,455.62122,130445858,0.85,0.10638297,347.65982,-190.74297,-0.006172672,-0.00771901,-0.010612488,0.0,0.0,0.0
898.532,451.87817,130445875,0.8625,0.10638297,327.69955,-215.73097,-0.006172672,-0.00771901,-0.010612488,0.0,0.0,0.0
903.6352,450.18713,130445892,0.83750004,0.11702127,304.38303,-178.5686,-0.006172672,-0.00771901,-0.010612488,0.0,0.0,0.0
910.2333,445.99243,130445909,0.825,0.09574468,331.74448,-184.23793,-0.006172672,-0.00771901,-0.010612488,0.0,0.0,0.0
918.1581,440.14832,130445925,0.8625,0.09574468,419.27792,-265.93347,-0.006172672,-0.00771901,-0.010612488,0.0,0.0,0.0
926.2353,433.61682,130445942,0.83750004,0.07446808,516.71106,-409.1659,-0.006172672,-0.00771901,-0.010612488,0.0,0.0,0.0
934.94965,426.33728,130445959,0.85,0.08510638,574.7981,-507.5124,-0.0049381405,-0.030175194,-0.008489609,0.0,0.0,0.0
945.24603,417.95203,130445975,0.83750004,0.09574468,615.1713,-548.4293,-0.0049381405,-0.030175194,-0.008489609,0.0,0.0,0.0
954.591,409.25537,130445992,0.825,0.12765957,619.7988,-555.9704,-0.0049381405,-0.030175194,-0.008489609,0.0,0.0,0.0
965.29785,398.8225,130446009,0.825,0.11702127,628.42786,-600.3334,-0.0049381405,-0.030175194,-0.008489609,0.0,0.0,0.0
979.63904,383.09778,130446026,0.83750004,0.07446808,758.29614,-806.1039,-0.0049381405,-0.030175194,-0.008489609,0.0,0.0,0.0
996.10205,364.81604,130446042,0.8125,0.09574468,949.2946,-1080.2286,-0.0049381405,-0.030175194,-0.008489609,0.0,0.0,0.0
1010.29846,346.18823,130446059,0.8125,0.09574468,1056.5933,-1305.0283,-0.0049381405,-0.030175194,-0.008489609,0.0,0.0,0.0
1023.34216,327.66907,130446076,0.825,0.09574468,969.71783,-1331.2786,-0.0049381405,-0.030175194,-0.008489609,0.0,0.0,0.0
1034.4712,312.20667,130446092,0.825,0.12765957,762.9674,-1154.6033,-0.0049381405,-0.030175194,-0.008489609,0.0,0.0,0.0
1044.0626,296.94336,130446109,0.825,0.08510638,563.6933,-954.07666,-0.0049381405,-0.030175194,-0.008489609,0.0,0.0,0.0
1051.4785,281.4701,130446126,0.8125,0.06382979,398.1283,-829.28656,-0.0049381405,-0.030175194,-0.008489609,0.0,0.0,0.0
1062.7671,258.8778,130446143,0.8125,0.10638297,438.88754,-1007.48193,-0.0049381405,-0.030175194,-0.008489609,0.0,0.0,0.0
1069.3868,238.41162,130446159,0.825,0.10638297,477.31726,-1346.5947,-0.0049381405,-0.030175194,-0.008489609,0.0,0.0,0.0
1075.0858,217.1908,130446176,0.825,0.08510638,407.8589,-1465.4082,-0.0049381405,-0.030175194,-0.008489609,0.0,0.0,0.0
1079.4519,197.75488,130446193,0.8125,0.12765957,235.33728,-1325.5969,-0.0049381405,-0.030175194,-0.008489609,0.0,0.0,0.0
1083.1906,179.26318,130446209,0.8,0.09574468,111.06843,-1125.2039,-0.0049381405,-0.030175194,-0.008489609,0.0,0.0,0.0
1086.2928,163.1543,130446226,0.8125,0.08510638,93.90819,-949.4249,-0.0049381405,-0.030175194,-0.008489609,0.0,0.0,0.0
1089.4192,147.56714,130446243,0.7875,0.11702127,126.55452,-859.9677,-0.0049381405,-0.030175194,-0.008489609,0.0,0.0,0.0
1091.6033,133.27124,130446259,0.8,0.12765957,116.99688,-803.67993,-0.0049381405,-0.030175194,-0.008489609,0.0,0.0,0.0
1092.652,120.34253,130446276,0.825,0.08510638,78.26087,-744.2739,-0.0049381405,-0.030175194,-0.008489609,0.0,0.0,0.0
1093.122,110.29016,130446293,0.8125,0.08510638,18.741558,-623.5624,-0.0049381405,-0.030175194,-0.008489609,0.0,0.0,0.0
1091.3978,101.05591,130446310,0.8,0.09574468,-82.473854,-503.45853,-0.0049381405,-0.030175194,-0.008489609,0.0,0.0,0.0
1088.616,90.47705,130446326,0.8,0.12765957,-187.968,-456.8168,-0.0049381405,-0.030175194,-0.008489609,0.0,0.0,0.0
1084.8851,82.97009,130446343,0.8,0.12765957,-276.6346,-458.55978,-0.0049381405,-0.030175194,-0.008489609,0.0,0.0,0.0
1080.9957,76.056274,130446360,0.8,0.11702127,-324.32062,-434.62943,-0.0049381405,-0.030175194,-0.008489609,0.0,0.0,0.0
1077.2832,70.41211,130446376,0.825,0.08510638,-288.56238,-326.93036,-0.0049381405,-0.030175194,-0.008489609,0.0,0.0,0.0
1071.4045,64.98193,130446393,0.825,0.08510638,-307.78085,-240.33333,-0.0049381405,-0.030175194,-0.008489609,0.0,0.0,0.0
1064.654,60.011963,130446410,0.83750004,0.08510638,-387.71368,-228.96799,-0.0049381405,-0.030175194,-0.008489609,0.0,0.0,0.0
1058.6731,57.004517,130446427,0.85,0.08510638,-434.1965,-197.93082,-0.0049381405,-0.030175194,-0.008489609,0.0,0.0,0.0
1051.7881,55.12915,130446443,0.825,0.08510638,-451.23227,-113.48449,-0.0049381405,-0.030175194,-0.008489609,0.0,0.0,0.0
1045.3087,54.075073,130446460,0.8625,0.09574468,-434.56915,-24.338825,-0.0049381405,-0.030175194,-0.008489609,0.0,0.0,0.0
1039.1222,54.075073,130446477,0.875,0.09574468,-393.6346,51.72221,-0.0049381405,-0.030175194,-0.008489609,0.0,0.0,0.0
1032.8075,56.91028,130446493,0.8625,0.09574468,-376.469,145.02785,0.012049481,-1.4016032E-4,-0.0067920685,0.0,0.0,0.0
1024.9622,60.597534,130446510,0.875,0.10638297,-407.3833,259.66174,0.012049481,-1.4016032E-4,-0.0067920685,0.0,0.0,0.0
1014.8657,66.30896,130446527,0.8875,0.10638297,-523.7434,385.23853,0.012049481,-1.4016032E-4,-0.0067920685,0.0,0.0,0.0
1004.9603,71.957886,130446544,0.8875,0.10638297,-644.6656,444.83112,0.012049481,-1.4016032E-4,-0.0067920685,0.0,0.0,0.0
995.74133,79.458984,130446560,0.875,0.10638297,-674.1302,486.89813,0.012049481,-1.4016032E-4,-0.0067920685,0.0,0.0,0.0
985.1658,89.3645,130446577,0.90000004,0.09574468,-646.6812,577.0334,0.012049481,-1.4016032E-4,-0.0067920685,0.0,0.0,0.0
974.3379,101.69226,130446594,0.875,0.09574468,-643.00977,736.799,0.012049481,-1.4016032E-4,-0.0067920685,0.0,0.0,0.0
962.88086,114.34302,130446610,0.8875,0.10638297,-672.68396,863.5331,0.012049481,-1.4016032E-4,-0.0067920685,0.0,0.0,0.0
950.5552,127.65881,130446627,0.9125,0.10638297,-726.5498,888.6056,0.012049481,-1.4016032E-4,-0.0067920685,0.0,0.0,0.0
937.88196,142.67725,130446644,0.90000004,0.08510638,-762.9308,907.44,0.012049481,-1.4016032E-4,-0.0067920685,0.0,0.0,0.0
927.2053,156.40991,130446661,0.875,0.09574468,-761.53735,929.6791,0.012049481,-1.4016032E-4,-0.0067920685,0.0,0.0,0.0
917.3427,169.35437,130446677,0.8875,0.12765957,-666.764,876.37366,0.012049481,-1.4016032E-4,-0.0067920685,0.0,0.0,0.0
908.02576,181.33948,130446694,0.90000004,0.10638297,-545.8757,772.27576,0.012049481,-1.4016032E-4,-0.0067920685,0.0,0.0,0.0
899.64355,190.61731,130446711,0.9125,0.08510638,-464.6084,605.96326,0.012049481,-1.4016032E-4,-0.0067920685,0.0,0.0,0.0
890.29974,200.77612,130446727,0.8875,0.08510638,-471.81235,517.95135,0.012049481,-1.4016032E-4,-0.0067920685,0.0,0.0,0.0
881.9411,212.11719,130446744,0.8875,0.08510638,-487.85013,540.79877,0.012049481,-1.4016032E-4,-0.0067920685,0.0,0.0,0.0
873.4959,220.66675,130446761,0.875,0.11702127,-488.82092,543.2405,0.012049481,-1.4016032E-4,-0.0067920685,0.0,0.0,0.0
864.5548,228.79175,130446778,0.875,0.12765957,-514.75543,526.81506,0.012049481,-1.4016032E-4,-0.0067920685,0.0,0.0,0.0
855.86224,236.96191,130446794,0.8875,0.10638297,-521.6561,447.9867,0.012049481,-1.4016032E-4,-0.0067920685,0.0,0.0,0.0
846.4584,245.49341,130446811,0.8875,0.09574468,-554.56366,431.88,0.012049481,-1.4016032E-4,-0.0067920685,0.0,0.0,0.0
838.7624,252.9248,130446828,0.8875,0.08510638,-505.4822,429.568,0.012049481,-1.4016032E-4,-0.0067920685,0.0,0.0,0.0
830.6534,261.93384,130446844,0.8875,0.08510638,-463.62912,478.07416,0.012049481,-1.4016032E-4,-0.0067920685,0.0,0.0,0.0
821.79517,271.44202,130446861,0.8875,0.09574468,-463.6696,528.92444,0.012049481,-1.4016032E-4,-0.0067920685,0.0,0.0,0.0
813.56476,279.3977,130446878,0.875,0.11702127,-472.61,527.33856,0.012049481,-1.4016032E-4,-0.0067920685,0.0,0.0,0.0
806.23364,285.96045,130446895,0.875,0.12765957,-479.90094,486.30103,0.012049481,-1.4016032E-4,-0.0067920685,0.0,0.0,0.0
798.89813,292.43738,130446911,0.9125,0.10638297,-450.1719,380.7015,0.012049481,-1.4016032E-4,-0.0067920685,0.0,0.0,0.0
793.475,297.7422,130446928,0.9125,0.09574468,-375.10083,308.11954,0.012049481,-1.4016032E-4,-0.0067920685,0.0,0.0,0.0
787.38837,303.21118,130446945,0.90000004,0.08510638,-329.95923,278.14047,0.012049481,-1.4016032E-4,-0.0067920685,0.0,0.0,0.0
779.9271,309.33923,130446961,0.8875,0.08510638,-345.46185,291.60986,0.012049481,-1.4016032E-4,-0.0067920685,0.0,0.0,0.0
773.792,314.51367,130446978,0.8875,0.08510638,-378.91013,312.25024,0.012049481,-1.4016032E-4,-0.0067920685,0.0,0.0,0.0
768.63666,320.0122,130446995,0.90000004,0.09574468,-371.1862,338.6048,0.012049481,-1.4016032E-4,-0.0067920685,0.0,0.0,0.0
762.53125,325.4735,130447011,0.8875,0.09574468,-324.68713,329.3056,0.012049481,-1.4016032E-4,-0.0067920685,0.0,0.0,0.0
756.1823,330.8877,130447028,0.90000004,0.11702127,-333.04834,316.34613,0.009639576,-1.1214614E-4,0.010566711,0.0,0.0,0.0
749.8095,335.66333,130447045,0.9125,0.12765957,-367.8027,293.6622,0.009639576,-1.1214614E-4,0.010566711,0.0,0.0,0.0
744.06885,339.67957,130447062,0.9125,0.10638297,-377.22388,252.8242,0.009639576,-1.1214614E-4,0.010566711,0.0,0.0,0.0
738.6418,343.4397,130447078,0.9125,0.10638297,-342.18015,208.54773,0.009639576,-1.1214614E-4,0.010566711,0.0,0.0,0.0
733.3257,347.2196,130447095,0.9125,0.10638297,-309.3741,190.53154,0.009639576,-1.1214614E-4,0.010566711,0.0,0.0,0.0
728.1067,350.93042,130447112,0.9125,0.09574468,-302.89597,199.76616,0.009639576,-1.1214614E-4,0.010566711,0.0,0.0,0.0
723.4873,354.61572,130447128,0.925,0.09574468,-287.80038,214.08028,0.009639576,-1.1214614E-4,0.010566711,0.0,0.0,0.0
719.9348,357.23755,130447145,0.9375,0.08510638,-240.76761,195.64929,0.009639576,-1.1214614E-4,0.010566711,0.0,0.0,0.0
716.7364,359.1327,130447162,0.925,0.08510638,-178.96178,130.29543,0.009639576,-1.1214614E-4,0.010566711,0.0,0.0,0.0
714.3791,361.82263,130447179,0.925,0.08510638,-126.05951,108.86082,0.009639576,-1.1214614E-4,0.010566711,0.0,0.0,0.0
711.4307,365.61194,130447195,0.9375,0.09574468,-107.09048,130.24608,0.009639576,-1.1214614E-4,0.010566711,0.0,0.0,0.0
708.10016,371.14893,130447212,0.9375,0.09574468,-159.5604,284.73895,0.009639576,-1.1214614E-4,0.010566711,0.0,0.0,0.0
705.7186,374.87708,130447229,0.95,0.09574468,-174.26717,340.19492,0.009639576,-1.1214614E-4,0.010566711,0.0,0.0,0.0
703.6306,378.58875,130447245,0.9375,0.09574468,-144.43147,288.99713,0.009639576,-1.1214614E-4,0.010566711,0.0,0.0,0.0
701.92303,381.62415,130447262,0.925,0.09574468,-100.54757,209.63367,0.009639576,-1.1214614E-4,0.010566711,0.0,0.0,0.0
700.859,384.20996,130447279,0.95,0.11702127,-48.397095,115.96946,0.009639576,-1.1214614E-4,0.010566711,0.0,0.0,0.0
699.7822,386.3181,130447296,0.9375,0.11702127,-36.68604,113.69872,0.009639576,-1.1214614E-4,0.010566711,0.0,0.0,0.0
699.25024,389.07263,130447312,0.9375,0.11702127,-26.207298,115.77494,0.009639576,-1.1214614E-4,0.010566711,0.0,0.0,0.0
699.25024,390.906,130447329,0.95,0.12765957,3.613334,115.97235,0.009639576,-1.1214614E-4,0.010566711,0.0,0.0,0.0
699.25024,392.74463,130447346,0.9375,0.12765957,20.726171,113.34523,0.009639576,-1.1214614E-4,0.010566711,0.0,0.0,0.0
699.25024,394.5775,130447362,0.975,0.12765957,28.393005,99.01002,0.009639576,-1.1214614E-4,0.010566711,0.0,0.0,0.0
699.25024,396.42627,130447379,0.975,0.12765957,20.417933,98.63199,0.009639576,-1.1214614E-4,0.010566711,0.0,0.0,0.0
699.25024,398.29053,130447396,0.975,0.12765957,5.0917454,97.597565,0.009639576,-1.1214614E-4,0.010566711,0.0,0.0,0.0
699.25024,400.12793,130447413,0.9875,0.12765957,0.03269363,110.79531,0.009639576,-1.1214614E-4,0.010566711,0.0,0.0,0.0
699.25024,400.5913,130447429,0.975,0.12765957,0.042388894,74.54973,0.009639576,-1.1214614E-4,0.010566711,0.0,0.0,0.0
700.04425,402.3683,130447446,1.0,0.12765957,19.636545,59.133167,0.009639576,-1.1214614E-4,0.010566711,0.0,0.0,0.0
701.07245,402.9419,130447463,1.0125,0.12765957,57.205734,35.493626,0.009639576,-1.1214614E-4,0.010566711,0.0,0.0,0.0
702.1058,404.7787,130447479,1.025,0.12765957,83.5311,58.90487,0.009639576,-1.1214614E-4,0.010566711,0.0,0.0,0.0
704.1288,405.92236,130447496,1.025,0.12765957,115.07746,94.12398,0.009639576,-1.1214614E-4,0.010566711,0.0,0.0,0.0
706.7021,406.7837,130447513,1.025,0.12765957,150.0399,75.06727,0.009639576,-1.1214614E-4,0.010566711,0.0,0.0,0.0
710.34827,406.8108,130447530,1.0125,0.12765957,210.98514,26.660503,0.009639576,-1.1214614E-4,0.010566711,0.0,0.0,0.0
713.442,407.69934,130447546,1.0,0.12765957,246.57452,12.234516,-0.01628834,0.015910298,-0.039546967,0.0,0.0,0.0
717.15015,407.87964,130447563,0.9875,0.10638297,251.21281,0.2204466,-0.01628834,0.015910298,-0.039546967,0.0,0.0,0.0
721.78235,408.5879,130447580,0.975,0.10638297,270.88388,25.3075,-0.01628834,0.015910298,-0.039546967,0.0,0.0,0.0
726.63605,408.5879,130447596,0.9875,0.10638297,297.69815,14.356849,-0.01628834,0.015910298,-0.039546967,0.0,0.0,0.0
731.6127,408.5879,130447613,0.9375,0.12765957,330.4872,-4.588442,-0.01628834,0.015910298,-0.039546967,0.0,0.0,0.0
736.9503,408.15698,130447630,0.925,0.12765957,342.39304,-15.253104,-0.01628834,0.015910298,-0.039546967,0.0,0.0,0.0
741.34406,407.42944,130447647,0.9125,0.12765957,314.79382,-52.581165,-0.01628834,0.015910298,-0.039546967,0.0,0.0,0.0
746.96515,406.8108,130447663,0.90000004,0.12765957,290.56964,-59.938587,-0.01628834,0.015910298,-0.039546967,0.0,0.0,0.0
752.1526,406.8108,130447680,0.9125,0.12765957,307.44028,-41.15726,-0.01628834,0.015910298,-0.039546967,0.0,0.0,0.0
757.202,406.8108,130447697,0.9125,0.12765957,313.3305,-2.292568,-0.01628834,0.015910298,-0.039546967,0.0,0.0,0.0
761.525,406.01343,130447713,0.9125,0.12765957,308.80026,8.715414,-0.01628834,0.015910298,-0.039546967,0.0,0.0,0.0
766.7388,405.03003,130447730,0.925,0.10638297,289.77664,-40.20047,-0.01628834,0.015910298,-0.039546967,0.0,0.0,0.0
771.98065,404.0702,130447747,0.9125,0.10638297,279.11035,-80.49007,-0.01628834,0.015910298,-0.039546967,0.0,0.0,0.0
777.6672,403.25684,130447763,0.90000004,0.10638297,330.44495,-87.98646,-0.01628834,0.015910298,-0.039546967,0.0,0.0,0.0
783.554,402.3683,130447780,0.8875,0.10638297,359.95505,-73.667305,-0.01628834,0.015910298,-0.039546967,0.0,0.0,0.0
790.1605,401.20154,130447797,0.875,0.12765957,400.696,-52.40112,-0.01628834,0.015910298,-0.039546967,0.0,0.0,0.0
795.5156,400.5913,130447814,0.8625,0.12765957,387.7948,-45.2957,-0.01628834,0.015910298,-0.039546967,0.0,0.0,0.0
800.9484,399.26514,130447830,0.875,0.12765957,335.26483,-53.52337,-0.01628834,0.015910298,-0.039546967,0.0,0.0,0.0
806.61664,397.92578,130447847,0.875,0.12765957,316.32684,-93.435555,-0.01628834,0.015910298,-0.039546967,0.0,0.0,0.0
812.5423,396.4956,130447864,0.875,0.10638297,314.5137,-98.93308,-0.01628834,0.015910298,-0.039546967,0.0,0.0,0.0
818.5503,395.26025,130447880,0.8875,0.09574468,351.11145,-95.02682,-0.01628834,0.015910298,-0.039546967,0.0,0.0,0.0
825.8023,393.7135,130447897,0.8625,0.09574468,403.95346,-81.08921,-0.01628834,0.015910298,-0.039546967,0.0,0.0,0.0
833.1845,391.83887,130447914,0.8625,0.09574468,444.00647,-91.672165,-0.01628834,0.015910298,-0.039546967,0.0,0.0,0.0
840.09686,389.96118,130447931,0.875,0.08510638,479.58597,-120.58852,-0.01628834,0.015910298,-0.039546967,0.0,0.0,0.0
846.79504,388.12476,130447947,0.8625,0.08510638,447.34113,-123.6569,-0.01628834,0.015910298,-0.039546967,0.0,0.0,0.0
852.53076,384.3634,130447964,0.875,0.09574468,380.2843,-178.39395,-0.01628834,0.015910298,-0.039546967,0.0,0.0,0.0
859.3325,381.74487,130447981,0.875,0.09574468,353.5762,-202.35945,-0.01628834,0.015910298,-0.039546967,0.0,0.0,0.0
866.519,377.8911,130447997,0.8625,0.08510638,383.3492,-233.72969,-0.01628834,0.015910298,-0.039546967,0.0,0.0,0.0
872.79016,374.1753,130448014,0.8625,0.08510638,403.7291,-247.97784,-0.01628834,0.015910298,-0.039546967,0.0,0.0,0.0
878.2767,370.88525,130448031,0.875,0.08510638,375.6353,-234.8096,-0.01628834,0.015910298,-0.039546967,0.0,0.0,0.0
884.5235,367.67432,130448048,0.875,0.08510638,332.61966,-205.58917,-0.01628834,0.015910298,-0.039546967,0.0,0.0,0.0
891.15076,364.53125,130448064,0.85,0.08510638,358.32324,-191.7162,-0.01628834,0.015910298,-0.039546967,0.0,0.0,0.0
896.26715,362.71228,130448081,0.8625,0.10638297,355.63016,-139.09122,-0.01628834,0.015910298,-0.039546967,0.0,0.0,0.0
901.7196,360.29163,130448098,0.85,0.10638297,321.48468,-102.64278,-0.013030678,0.012728244,0.032361984,0.0,0.0,0.0
907.16504,356.53394,130448114,0.83750004,0.12765957,293.10318,-140.87914,-0.013030678,0.012728244,0.032361984,0.0,0.0,0.0
913.44525,353.64,130448131,0.825,0.12765957,318.29678,-182.55432,-0.013030678,0.012728244,0.032361984,0.0,0.0,0.0
919.6763,350.83643,130448148,0.83750004,0.12765957,380.65744,-211.97527,-0.013030678,0.012728244,0.032361984,0.0,0.0,0.0
924.8263,347.1748,130448165,0.8625,0.12765957,367.8546,-213.31189,-0.013030678,0.012728244,0.032361984,0.0,0.0,0.0
931.09985,345.3783,130448181,0.85,0.09574468,355.4547,-162.03844,-0.013030678,0.012728244,0.032361984,0.0,0.0,0.0
936.75024,342.63342,130448198,0.83750004,0.09574468,347.53882,-147.3446,-0.013030678,0.012728244,0.032361984,0.0,0.0,0.0
941.44464,340.51196,130448215,0.8625,0.09574468,312.37772,-123.00375,-0.013030678,0.012728244,0.032361984,0.0,0.0,0.0
946.3001,338.1161,130448231,0.85,0.08510638,283.81274,-115.71895,-0.013030678,0.012728244,0.032361984,0.0,0.0,0.0
950.5847,335.80493,130448248,0.8625,0.08510638,236.1336,-128.62529,-0.013030678,0.012728244,0.032361984,0.0,0.0,0.0
954.6979,333.4956,130448265,0.85,0.08510638,222.91103,-136.83688,-0.013030678,0.012728244,0.032361984,0.0,0.0,0.0
959.2854,331.18152,130448282,0.83750004,0.09574468,241.15144,-136.98682,-0.013030678,0.012728244,0.032361984,0.0,0.0,0.0
964.13074,328.10132,130448298,0.85,0.09574468,260.64935,-158.58348,-0.013030678,0.012728244,0.032361984,0.0,0.0,0.0
970.12036,324.70898,130448315,0.8625,0.09574468,313.4394,-194.01982,-0.013030678,0.012728244,0.032361984,0.0,0.0,0.0
974.9315,322.50476,130448332,0.85,0.09574468,359.404,-197.10776,-0.013030678,0.012728244,0.032361984,0.0,0.0,0.0
979.0919,320.65576,130448348,0.85,0.08510638,317.58148,-155.33032,-0.013030678,0.012728244,0.032361984,0.0,0.0,0.0
984.2362,318.81396,130448365,0.85,0.08510638,281.074,-92.15512,-0.013030678,0.012728244,0.032361984,0.0,0.0,0.0
988.90234,316.96252,130448382,0.85,0.08510638,262.6762,-77.5418,-0.013030678,0.012728244,0.032361984,0.0,0.0,0.0
993.6316,314.23682,130448398,0.85,0.08510638,268.3469,-115.66593,-0.013030678,0.012728244,0.032361984,0.0,0.0,0.0
997.7688,312.35596,130448415,0.875,0.08510638,272.75003,-140.17531,-0.013030678,0.012728244,0.032361984,0.0,0.0,0.0
1001.6969,310.61035,130448432,0.8625,0.08510638,238.10736,-124.204666,-0.013030678,0.012728244,0.032361984,0.0,0.0,0.0
1005.5646,308.8302,130448449,0.8625,0.09574468,223.27826,-105.49121,-0.013030678,0.012728244,0.032361984,0.0,0.0,0.0
1008.9945,306.9231,130448465,0.85,0.10638297,205.81035,-93.64125,-0.013030678,0.012728244,0.032361984,0.0,0.0,0.0
1012.66675,305.06067,130448482,0.83750004,0.10638297,202.7255,-111.87541,-0.013030678,0.012728244,0.032361984,0.0,0.0,0.0
1016.2351,303.7445,130448499,0.83750004,0.11702127,191.12163,-100.61341,-0.013030678,0.012728244,0.032361984,0.0,0.0,0.0
1019.96924,302.26794,130448515,0.83750004,0.11702127,201.29033,-75.26724,-0.013030678,0.012728244,0.032361984,0.0,0.0,0.0
1023.89465,301.22693,130448532,0.85,0.12765957,235.76865,-59.07162,-0.013030678,0.012728244,0.032361984,0.0,0.0,0.0
1026.9722,300.19043,130448549,0.85,0.12765957,215.24464,-55.99833,-0.013030678,0.012728244,0.032361984,0.0,0.0,0.0
1031.1448,299.302,130448566,0.8625,0.12765957,223.82137,-51.87841,-0.013030678,0.012728244,0.032361984,0.0,0.0,0.0
1034.7686,298.3379,130448582,0.8625,0.12765957,222.86409,-43.633118,-0.013030678,0.012728244,0.032361984,0.0,0.0,0.0
1037.8926,298.41345,130448599,0.8625,0.12765957,213.01118,-14.493169,-0.013030678,0.012728244,0.032361984,0.0,0.0,0.0
1042.1616,297.29248,130448616,0.8625,0.10638297,225.24915,-18.72883,-0.013030678,0.012728244,0.032361984,0.0,0.0,0.0
1044.7626,296.26636,130448632,0.875,0.10638297,188.4899,-39.636173,-0.0024245381,0.026182592,-0.0061101913,0.0,0.0,0.0
1048.0258,296.63647,130448649,0.8625,0.10638297,183.78564,-33.442898,-0.0024245381,0.026182592,-0.0061101913,0.0,0.0,0.0
1051.3606,295.74792,130448666,0.8625,0.10638297,190.46788,-33.087128,-0.0024245381,0.026182592,-0.0061101913,0.0,0.0,0.0
1054.2644,295.74792,130448683,0.8625,0.10638297,176.1593,-13.971298,-0.0024245381,0.026182592,-0.0061101913,0.0,0.0,0.0
1057.9185,295.74792,130448699,0.8625,0.10638297,198.06606,6.115123,-0.0024245381,0.026182592,-0.0061101913,0.0,0.0,0.0
1061.5812,295.74792,130448716,0.8625,0.12765957,208.50845,10.157504,-0.0024245381,0.026182592,-0.0061101913,0.0,0.0,0.0
1064.3423,295.74792,130448733,0.85,0.12765957,208.61401,16.600077,-0.0024245381,0.026182592,-0.0061101913,0.0,0.0,0.0
1066.9224,295.74792,130448749,0.8625,0.12765957,169.05676,9.891189,-0.0024245381,0.026182592,-0.0061101913,0.0,0.0,0.0
1069.5719,295.74792,130448766,0.8625,0.12765957,137.09613,0.03945541,-0.0024245381,0.026182592,-0.0061101913,0.0,0.0,0.0
1071.6703,294.82263,130448783,0.8625,0.12765957,119.1679,-22.94115,-0.0024245381,0.026182592,-0.0061101913,0.0,0.0,0.0
1073.7377,294.85938,130448800,0.85,0.12765957,114.07068,-32.06606,-0.0024245381,0.026182592,-0.0061101913,0.0,0.0,0.0
1076.7936,294.85938,130448816,0.85,0.12765957,141.64389,-21.977522,-0.0024245381,0.026182592,-0.0061101913,0.0,0.0,0.0
1079.4755,294.85938,130448833,0.875,0.12765957,159.55673,-3.7991385,-0.0024245381,0.026182592,-0.0061101913,0.0,0.0,0.0
1082.6434,294.85938,130448850,0.85,0.12765957,185.47453,11.481599,-0.0024245381,0.026182592,-0.0061101913,0.0,0.0,0.0
1086.1936,294.85938,130448866,0.8625,0.12765957,219.15358,13.167503,-0.0024245381,0.026182592,-0.0061101913,0.0,0.0,0.0
1089.2623,294.85938,130448883,0.8625,0.12765957,215.54666,0.015215534,-0.0024245381,0.026182592,-0.0061101913,0.0,0.0,0.0
1092.3258,295.27612,130448900,0.8625,0.12765957,202.77678,6.7709627,-0.0024245381,0.026182592,-0.0061101913,0.0,0.0,0.0
1095.487,296.26086,130448916,0.8625,0.10638297,182.06148,40.291134,-0.0024245381,0.026182592,-0.0061101913,0.0,0.0,0.0
1098.2307,297.5249,130448933,0.8625,0.10638297,163.77313,86.90365,-0.0024245381,0.026182592,-0.0061101913,0.0,0.0,0.0
1100.3232,298.15002,130448950,0.875,0.10638297,140.79472,80.13526,-0.0024245381,0.026182592,-0.0061101913,0.0,0.0,0.0
1102.4779,300.0652,130448966,0.8875,0.09574468,115.03442,92.577324,-0.0024245381,0.026182592,-0.0061101913,0.0,0.0,0.0
1104.571,301.9254,130448983,0.8875,0.09574468,100.84113,111.48143,-0.0024245381,0.026182592,-0.0061101913,0.0,0.0,0.0
1106.1406,302.89648,130449000,0.8875,0.09574468,96.31911,105.53728,-0.0024245381,0.026182592,-0.0061101913,0.0,0.0,0.0
1107.6611,303.7445,130449017,0.9125,0.09574468,88.847046,84.341324,-0.0024245381,0.026182592,-0.0061101913,0.0,0.0,0.0
1109.234,304.63293,130449033,0.925,0.08510638,79.306435,45.425007,-0.0024245381,0.026182592,-0.0061101913,0.0,0.0,0.0
1110.2626,305.52148,130449050,0.9125,0.08510638,59.953632,31.587767,-0.0024245381,0.026182592,-0.0061101913,0.0,0.0,0.0
1111.308,307.63965,130449067,0.925,0.08510638,49.611065,66.67808,-0.0024245381,0.026182592,-0.0061101913,0.0,0.0,0.0
1111.7755,308.47058,130449083,0.925,0.08510638,31.561537,77.502625,-0.0024245381,0.026182592,-0.0061101913,0.0,0.0,0.0
1113.3237,311.59277,130449100,0.9375,0.08510638,49.137947,137.14085,-0.0024245381,0.026182592,-0.0061101913,0.0,0.0,0.0
1114.3588,314.3844,130449117,0.9375,0.08510638,73.50239,194.47585,-0.0024245381,0.026182592,-0.0061101913,0.0,0.0,0.0
1115.3718,317.9856,130449134,0.925,0.08510638,75.67285,236.67827,-0.0024245381,0.026182592,-0.0061101913,0.0,0.0,0.0
1116.4962,321.98315,130449150,0.9375,0.08510638,72.96662,275.28653,-0.0019396245,-0.01105395,0.011112213,0.0,0.0,0.0
1117.5314,325.66345,130449167,0.9375,0.08510638,55.424995,256.14154,-0.0019396245,-0.01105395,0.011112213,0.0,0.0,0.0
1117.614,328.54028,130449184,0.925,0.10638297,34.164444,225.82448,-0.0019396245,-0.01105395,0.011112213,0.0,0.0,0.0
1117.614,330.39587,130449200,0.9375,0.10638297,1.1857549,157.42622,-0.0019396245,-0.01105395,0.011112213,0.0,0.0,0.0
1118.1542,332.24805,130449217,0.9125,0.10638297,-11.654564,81.65827,-0.0019396245,-0.01105395,0.011112213,0.0,0.0,0.0
1118.6802,334.07202,130449234,0.925,0.10638297,5.6955814,62.269073,-0.0019396245,-0.01105395,0.011112213,0.0,0.0,0.0
1118.6136,335.95483,130449251,0.9375,0.12765957,18.13813,74.37796,-0.0019396245,-0.01105395,0.011112213,0.0,0.0,0.0
1118.6136,337.55737,130449267,0.9375,0.12765957,13.645391,95.80884,-0.0019396245,-0.01105395,0.011112213,0.0,0.0,0.0
1118.6136,339.40613,130449284,0.95,0.12765957,-4.7911725,103.64513,-0.0019396245,-0.01105395,0.011112213,0.0,0.0,0.0
1118.6136,341.49304,130449301,0.925,0.12765957,-14.449628,114.33339,-0.0019396245,-0.01105395,0.011112213,0.0,0.0,0.0
1118.6136,343.7788,130449317,0.96250004,0.12765957,-5.01331,125.66975,-0.0019396245,-0.01105395,0.011112213,0.0,0.0,0.0
1118.1139,345.9602,130449334,0.96250004,0.12765957,-14.748194,144.03326,-0.0019396245,-0.01105395,0.011112213,0.0,0.0,0.0
1117.614,347.86255,130449351,0.95,0.12765957,-34.000385,134.54393,-0.0019396245,-0.01105395,0.011112213,0.0,0.0,0.0
1116.8059,350.15417,130449368,0.9375,0.12765957,-49.04999,118.05833,-0.0019396245,-0.01105395,0.011112213,0.0,0.0,0.0
1115.7552,352.3623,130449384,0.9375,0.10638297,-65.96291,125.86688,-0.0019396245,-0.01105395,0.011112213,0.0,0.0,0.0
1114.6483,355.21863,130449401,0.925,0.09574468,-75.53994,148.26857,-0.0019396245,-0.01105395,0.011112213,0.0,0.0,0.0
1112.5487,357.11414,130449418,0.95,0.08510638,-105.87119,153.85703,-0.0019396245,-0.01105395,0.011112213,0.0,0.0,0.0
1110.4899,360.8335,130449434,0.95,0.08510638,-140.1095,182.30698,-0.0019396245,-0.01105395,0.011112213,0.0,0.0,0.0
1108.4125,364.52612,130449451,0.9375,0.08510638,-154.31952,220.94072,-0.0019396245,-0.01105395,0.011112213,0.0,0.0,0.0
1105.1586,369.14966,130449468,0.9125,0.08510638,-184.07076,284.4517,-0.0019396245,-0.01105395,0.011112213,0.0,0.0,0.0
1101.998,375.0398,130449485,0.90000004,0.08510638,-204.47604,346.67303,-0.0019396245,-0.01105395,0.011112213,0.0,0.0,0.0
1098.4694,379.1499,130449501,0.90000004,0.08510638,-221.42525,338.2229,-0.0019396245,-0.01105395,0.011112213,0.0,0.0,0.0
1094.6473,382.79834,130449518,0.8875,0.11702127,-250.72162,284.26645,-0.0019396245,-0.01105395,0.011112213,0.0,0.0,0.0
1089.5007,387.8169,130449535,0.8875,0.12765957,-285.34396,252.89247,-0.0019396245,-0.01105395,0.011112213,0.0,0.0,0.0
1082.2782,394.2362,130449551,0.8875,0.12765957,-385.18536,307.58725,-0.0019396245,-0.01105395,0.011112213,0.0,0.0,0.0
1073.1167,402.08154,130449568,0.8875,0.10638297,-532.8887,437.70712,-0.0019396245,-0.01105395,0.011112213,0.0,0.0,0.0
1063.2592,410.2517,130449585,0.875,0.09574468,-644.71515,521.4123,-0.0019396245,-0.01105395,0.011112213,0.0,0.0,0.0
1050.613,420.67358,130449601,0.8875,0.08510638,-781.6906,641.0146,-0.0019396245,-0.01105395,0.011112213,0.0,0.0,0.0
1038.0946,429.94556,130449618,0.8875,0.09574468,-853.1568,658.2823,-0.0019396245,-0.01105395,0.011112213,0.0,0.0,0.0
1026.7994,436.31494,130449635,0.8875,0.10638297,-828.4962,552.1906,-0.0019396245,-0.01105395,0.011112213,0.0,0.0,0.0
1013.5586,442.73816,130449652,0.8875,0.09574468,-804.0561,415.25333,-0.0019396245,-0.01105395,0.011112213,0.0,0.0,0.0
999.9855,447.7561,130449668,0.875,0.10638297,-804.7889,264.79416,-0.0019396245,-0.01105395,0.011112213,0.0,0.0,0.0
985.5342,455.06226,130449685,0.875,0.12765957,-853.10425,266.06882,-0.0015517026,-0.008843154,-0.0071105957,0.0,0.0,0.0
971.50415,461.5741,130449702,0.875,0.10638297,-896.81836,344.7742,-0.0015517026,-0.008843154,-0.0071105957,0.0,0.0,0.0
959.2007,467.65466,130449718,0.9125,0.09574468,-833.7006,409.0849,-0.0015517026,-0.008843154,-0.0071105957,0.0,0.0,0.0
946.8293,472.68103,130449735,0.90000004,0.08510638,-734.00323,368.62057,-0.0015517026,-0.008843154,-0.0071105957,0.0,0.0,0.0
937.1696,476.214,130449752,0.90000004,0.08510638,-615.213,235.03856,-0.0015517026,-0.008843154,-0.0071105957,0.0,0.0,0.0
928.43494,479.91724,130449769,0.8875,0.09574468,-495.84274,154.94054,-0.0015517026,-0.008843154,-0.0071105957,0.0,0.0,0.0
919.82697,483.60034,130449785,0.9125,0.09574468,-421.27988,146.41245,-0.0015517026,-0.008843154,-0.0071105957,0.0,0.0,0.0
912.5839,487.45996,130449802,0.90000004,0.08510638,-390.80276,186.6959,-0.0015517026,-0.008843154,-0.0071105957,0.0,0.0,0.0
905.7833,491.15918,130449819,0.9125,0.09574468,-367.1602,222.92633,-0.0015517026,-0.008843154,-0.0071105957,0.0,0.0,0.0
900.083,494.8451,130449835,0.925,0.09574468,-333.50995,226.88353,-0.0015517026,-0.008843154,-0.0071105957,0.0,0.0,0.0
896.00574,497.54517,130449852,0.9375,0.10638297,-252.72421,197.17336,-0.0015517026,-0.008843154,-0.0071105957,0.0,0.0,0.0
893.6239,499.27124,130449869,0.95,0.10638297,-137.0115,128.25923,-0.0015517026,-0.008843154,-0.0071105957,0.0,0.0,0.0
892.0539,500.34094,130449886,0.95,0.10638297,-46.11073,52.533253,-0.0015517026,-0.008843154,-0.0071105957,0.0,0.0,0.0
891.4376,500.10364,130449895,0.96250004,0.10638297,7.182438,-0.30179903,-0.0015517026,-0.008843154,-0.0071105957,0.0,0.0,0.0
891.8727,500.9922,130449919,1.0,0.10638297,78.9528,-28.993559,-0.0015517026,-0.008843154,-0.0071105957,0.0,0.0,0.0
893.7961,501.35303,130449936,1.0125,0.12765957,122.64606,-12.043901,-0.0015517026,-0.008843154,-0.0071105957,0.0,0.0,0.0
898.15576,502.76917,130449952,1.0125,0.12765957,239.5821,40.339905,-0.0015517026,-0.008843154,-0.0071105957,0.0,0.0,0.0
904.6856,502.261,130449969,1.0125,0.11702127,399.5848,34.831173,-0.0015517026,-0.008843154,-0.0071105957,0.0,0.0,0.0
911.1061,500.42212,130449986,0.975,0.11702127,503.04486,-49.911667,-0.0015517026,-0.008843154,-0.0071105957,0.0,0.0,0.0
918.19684,500.10364,130450003,0.9375,0.11702127,525.44885,-101.37031,-0.0015517026,-0.008843154,-0.0071105957,0.0,0.0,0.0
925.97723,500.10364,130450019,0.90000004,0.10638297,501.04874,-85.24402,-0.0015517026,-0.008843154,-0.0071105957,0.0,0.0,0.0
934.6283,500.10364,130450036,0.9125,0.09574468,522.4325,-9.678922,-0.0015517026,-0.008843154,-0.0071105957,0.0,0.0,0.0
943.9603,501.94507,130450053,0.875,0.09574468,589.48083,88.56133,-0.0015517026,-0.008843154,-0.0071105957,0.0,0.0,0.0
953.36945,502.9077,130450069,0.8625,0.10638297,623.24567,109.6484,-0.0015517026,-0.008843154,-0.0071105957,0.0,0.0,0.0
963.2905,502.76917,130450086,0.85,0.11702127,625.2642,71.05246,-0.0015517026,-0.008843154,-0.0071105957,0.0,0.0,0.0
972.8329,502.76917,130450103,0.875,0.10638297,601.01385,21.90563,-0.0015517026,-0.008843154,-0.0071105957,0.0,0.0,0.0
983.0381,502.76917,130450120,0.8875,0.09574468,607.38324,-23.20052,-0.0015517026,-0.008843154,-0.0071105957,0.0,0.0,0.0
992.44714,501.52686,130450136,0.8875,0.09574468,611.01904,-57.0637,-0.0015517026,-0.008843154,-0.0071105957,0.0,0.0,0.0
1002.083,500.56006,130450153,0.875,0.09574468,585.12506,-81.70827,-0.0015517026,-0.008843154,-0.0071105957,0.0,0.0,0.0
1010.85803,500.10364,130450170,0.8625,0.10638297,539.6347,-78.09963,-0.0015517026,-0.008843154,-0.0071105957,0.0,0.0,0.0
1020.9829,500.10364,130450186,0.8625,0.11702127,521.53143,-34.84982,-0.0015517026,-0.008843154,-0.0071105957,0.0,0.0,0.0
1032.3323,499.2152,130450203,0.8875,0.10638297,601.1379,-11.664743,-0.0015517026,-0.008843154,-0.0071105957,0.0,0.0,0.0
1041.5583,498.32666,130450220,0.875,0.09574468,622.06274,-26.48283,-0.02524136,-0.007074535,-0.037688255,0.0,0.0,0.0
1052.384,496.59436,130450236,0.875,0.08510638,651.14233,-82.01603,-0.02524136,-0.007074535,-0.037688255,0.0,0.0,0.0
1061.7013,494.75903,130450253,0.85,0.08510638,612.3851,-131.50453,-0.02524136,-0.007074535,-0.037688255,0.0,0.0,0.0
1071.586,493.79395,130450270,0.85,0.09574468,583.28613,-111.30729,-0.02524136,-0.007074535,-0.037688255,0.0,0.0,0.0
1083.0999,492.9956,130450287,0.85,0.08510638,629.3193,-78.751045,-0.02524136,-0.007074535,-0.037688255,0.0,0.0,0.0
1092.311,492.10718,130450303,0.83750004,0.08510638,626.8534,-46.3816,-0.02524136,-0.007074535,-0.037688255,0.0,0.0,0.0
1102.1001,491.21863,130450320,0.85,0.08510638,609.29047,-25.3976,-0.02524136,-0.007074535,-0.037688255,0.0,0.0,0.0
1111.2765,490.03564,130450337,0.8625,0.08510638,566.6687,-39.5055,-0.02524136,-0.007074535,-0.037688255,0.0,0.0,0.0
1120.4026,488.10107,130450353,0.85,0.08510638,513.57526,-87.284515,-0.02524136,-0.007074535,-0.037688255,0.0,0.0,0.0
1129.7516,486.3495,130450370,0.8625,0.09574468,518.2718,-130.12979,-0.02524136,-0.007074535,-0.037688255,0.0,0.0,0.0
1140.1395,484.50916,130450387,0.8625,0.08510638,566.40424,-140.43767,-0.02524136,-0.007074535,-0.037688255,0.0,0.0,0.0
1149.8918,482.67163,130450404,0.83750004,0.08510638,606.60693,-121.60653,-0.02524136,-0.007074535,-0.037688255,0.0,0.0,0.0
1158.6637,480.87573,130450420,0.83750004,0.08510638,578.48596,-105.08244,-0.02524136,-0.007074535,-0.037688255,0.0,0.0,0.0
1168.6759,478.8629,130450437,0.85,0.08510638,569.7454,-115.828926,-0.02524136,-0.007074535,-0.037688255,0.0,0.0,0.0
1176.9834,476.16357,130450454,0.85,0.08510638,527.8266,-133.41446,-0.02524136,-0.007074535,-0.037688255,0.0,0.0,0.0
1187.9631,474.27698,130450470,0.825,0.09574468,571.92413,-147.28156,-0.02524136,-0.007074535,-0.037688255,0.0,0.0,0.0
1197.2782,471.5354,130450487,0.8125,0.10638297,604.6731,-163.13638,-0.02524136,-0.007074535,-0.037688255,0.0,0.0,0.0
1207.6659,468.62183,130450504,0.8125,0.09574468,625.18134,-169.58849,-0.02524136,-0.007074535,-0.037688255,0.0,0.0,0.0
1216.5972,465.18274,130450521,0.8125,0.10638297,601.2521,-200.77095,-0.02524136,-0.007074535,-0.037688255,0.0,0.0,0.0
1225.9523,462.0891,130450537,0.7875,0.12765957,569.4236,-208.10469,-0.02524136,-0.007074535,-0.037688255,0.0,0.0,0.0
1234.2096,458.39,130450554,0.7875,0.12765957,503.73853,-225.3603,-0.02524136,-0.007074535,-0.037688255,0.0,0.0,0.0
1244.8254,453.3225,130450571,0.8,0.12765957,534.0639,-270.56998,-0.02524136,-0.007074535,-0.037688255,0.0,0.0,0.0
1254.7485,449.04907,130450587,0.7875,0.09574468,586.48456,-290.7479,-0.02524136,-0.007074535,-0.037688255,0.0,0.0,0.0
1264.7119,443.58655,130450604,0.7875,0.08510638,622.8669,-331.1751,-0.02524136,-0.007074535,-0.037688255,0.0,0.0,0.0
1273.8129,436.62524,130450621,0.77500004,0.06382979,597.5494,-376.05582,-0.02524136,-0.007074535,-0.037688255,0.0,0.0,0.0
1283.532,429.04834,130450638,0.7875,0.08510638,543.54987,-449.04996,-0.02524136,-0.007074535,-0.037688255,0.0,0.0,0.0
1293.3291,419.4746,130450654,0.7625,0.09574468,557.1971,-570.28076,-0.02524136,-0.007074535,-0.037688255,0.0,0.0,0.0
1300.363,413.20056,130450671,0.7625,0.12765957,514.59375,-571.86835,-0.02524136,-0.007074535,-0.037688255,0.0,0.0,0.0
1307.8263,404.7091,130450688,0.77500004,0.10638297,452.05002,-517.18335,-0.02524136,-0.007074535,-0.037688255,0.0,0.0,0.0
1313.0629,399.3341,130450704,0.7875,0.09574468,331.5272,-408.6183,-0.02524136,-0.007074535,-0.037688255,0.0,0.0,0.0
1316.0681,393.45007,130450721,0.7625,0.08510638,191.79459,-321.6264,-0.02524136,-0.007074535,-0.037688255,0.0,0.0,0.0
1318.073,389.84363,130450738,0.7875,0.06382979,78.889336,-242.55373,-0.02524136,-0.007074535,-0.037688255,0.0,0.0,0.0
1319.0485,385.60107,130450754,0.77500004,0.06382979,-15.736097,-190.1138,0.0038069189,-0.00565964,-0.0141506195,0.0,0.0,0.0
1318.2944,382.3695,130450771,0.8,0.07446808,-95.794586,-153.1415,0.0038069189,-0.00565964,-0.0141506195,0.0,0.0,0.0
1317.259,380.01355,130450788,0.8,0.07446808,-132.29001,-112.707184,0.0038069189,-0.00565964,-0.0141506195,0.0,0.0,0.0
1316.217,377.7881,130450805,0.8,0.08510638,-145.68694,-99.64982,0.0038069189,-0.00565964,-0.0141506195,0.0,0.0,0.0
1314.3086,375.943,130450821,0.8125,0.09574468,-141.70772,-82.12759,0.0038069189,-0.00565964,-0.0141506195,0.0,0.0,0.0
1312.2275,374.09338,130450838,0.8,0.09574468,-141.61392,-78.1055,0.0038069189,-0.00565964,-0.0141506195,0.0,0.0,0.0
1309.6906,372.24158,130450855,0.7875,0.09574468,-157.39456,-90.50454,0.0038069189,-0.00565964,-0.0141506195,0.0,0.0,0.0
1306.5621,370.38794,130450871,0.7875,0.09574468,-196.37543,-95.75749,0.0038069189,-0.00565964,-0.0141506195,0.0,0.0,0.0
1303.6533,368.66443,130450888,0.8,0.09574468,-212.04477,-108.63886,0.0038069189,-0.00565964,-0.0141506195,0.0,0.0,0.0
1300.3596,366.71277,130450905,0.8,0.09574468,-212.8502,-109.94333,0.0038069189,-0.00565964,-0.0141506195,0.0,0.0,0.0
1296.7443,364.86658,130450922,0.8125,0.08510638,-224.3749,-111.284645,0.0038069189,-0.00565964,-0.0141506195,0.0,0.0,0.0
1293.6038,364.16272,130450938,0.8125,0.08510638,-211.4658,-85.47782,0.0038069189,-0.00565964,-0.0141506195,0.0,0.0,0.0
1291.1361,363.27417,130450955,0.8,0.08510638,-178.47998,-50.783207,0.0038069189,-0.00565964,-0.0141506195,0.0,0.0,0.0
1288.4475,361.13538,130450972,0.8125,0.10638297,-142.53087,-54.428886,0.0038069189,-0.00565964,-0.0141506195,0.0,0.0,0.0
1285.4628,360.34363,130450988,0.7875,0.09574468,-143.80492,-58.431152,0.0038069189,-0.00565964,-0.0141506195,0.0,0.0,0.0
1281.1226,358.49817,130451005,0.8,0.09574468,-209.83546,-90.329666,0.0038069189,-0.00565964,-0.0141506195,0.0,0.0,0.0
1275.303,356.4292,130451022,0.7875,0.09574468,-319.627,-119.66207,0.0038069189,-0.00565964,-0.0141506195,0.0,0.0,0.0
1270.899,354.58765,130451039,0.8,0.12765957,-364.52914,-127.4229,0.0038069189,-0.00565964,-0.0141506195,0.0,0.0,0.0
1265.4203,353.5006,130451055,0.7875,0.12765957,-355.95013,-118.74603,0.0038069189,-0.00565964,-0.0141506195,0.0,0.0,0.0
1260.6823,352.6632,130451072,0.7875,0.12765957,-324.76486,-62.97956,0.0038069189,-0.00565964,-0.0141506195,0.0,0.0,0.0
1256.5743,350.83752,130451089,0.7875,0.12765957,-272.51276,-49.140823,0.0038069189,-0.00565964,-0.0141506195,0.0,0.0,0.0
1252.888,350.83508,130451105,0.7875,0.12765957,-228.20726,-36.827877,0.0038069189,-0.00565964,-0.0141506195,0.0,0.0,0.0
1247.6671,349.94666,130451122,0.8,0.12765957,-240.97449,-35.67994,0.0038069189,-0.00565964,-0.0141506195,0.0,0.0,0.0
1243.0767,349.0581,130451139,0.8,0.12765957,-265.41647,-40.892494,0.0038069189,-0.00565964,-0.0141506195,0.0,0.0,0.0
1238.1002,347.28113,130451156,0.8125,0.10638297,-306.7544,-59.234543,0.0038069189,-0.00565964,-0.0141506195,0.0,0.0,0.0
1233.8308,346.1277,130451172,0.8125,0.10638297,-295.2171,-80.293274,0.0038069189,-0.00565964,-0.0141506195,0.0,0.0,0.0
1229.2654,345.50415,130451189,0.8125,0.10638297,-259.27652,-75.7272,0.0038069189,-0.00565964,-0.0141506195,0.0,0.0,0.0
1225.5146,345.16992,130451206,0.825,0.10638297,-236.36113,-30.048313,0.0038069189,-0.00565964,-0.0141506195,0.0,0.0,0.0
1221.427,343.72717,130451222,0.8125,0.10638297,-218.44882,-36.021828,0.0038069189,-0.00565964,-0.0141506195,0.0,0.0,0.0
1217.1034,343.07043,130451239,0.8125,0.10638297,-232.14868,-40.681877,0.0038069189,-0.00565964,-0.0141506195,0.0,0.0,0.0
1213.4584,342.11694,130451256,0.8125,0.12765957,-230.28831,-51.648403,0.0038069189,-0.00565964,-0.0141506195,0.0,0.0,0.0
1210.2495,341.95007,130451273,0.8125,0.10638297,-219.20607,-50.51645,0.0038069189,-0.00565964,-0.0141506195,0.0,0.0,0.0
1206.618,341.95007,130451289,0.8125,0.10638297,-198.83867,-2.73001,-0.02095446,-0.02052769,0.036679268,0.0,0.0,0.0
1203.512,341.95007,130451306,0.8,0.11702127,-179.03345,13.474995,-0.02095446,-0.02052769,0.036679268,0.0,0.0,0.0
1200.3766,341.95007,130451323,0.8125,0.11702127,-178.91963,23.49784,-0.02095446,-0.02052769,0.036679268,0.0,0.0,0.0
1198.2715,341.06165,130451339,0.8125,0.11702127,-149.60875,-15.447014,-0.02095446,-0.02052769,0.036679268,0.0,0.0,0.0
1195.1781,340.1731,130451356,0.8125,0.11702127,-142.55289,-53.330803,-0.02095446,-0.02052769,0.036679268,0.0,0.0,0.0
1192.533,340.1731,130451373,0.825,0.11702127,-146.21593,-48.761353,-0.02095446,-0.02052769,0.036679268,0.0,0.0,0.0
1189.9083,340.1731,130451389,0.8,0.10638297,-157.76987,-13.142379,-0.02095446,-0.02052769,0.036679268,0.0,0.0,0.0
1186.7925,340.1731,130451406,0.825,0.10638297,-175.24846,17.59892,-0.02095446,-0.02052769,0.036679268,0.0,0.0,0.0
1183.6692,340.1731,130451423,0.825,0.10638297,-182.13692,15.902871,-0.02095446,-0.02052769,0.036679268,0.0,0.0,0.0
1181.0552,340.1731,130451440,0.83750004,0.10638297,-181.28467,9.800751,-0.02095446,-0.02052769,0.036679268,0.0,0.0,0.0
1178.3198,340.1731,130451456,0.83750004,0.09574468,-174.45491,-0.021730736,-0.02095446,-0.02052769,0.036679268,0.0,0.0,0.0
1175.7542,340.1731,130451473,0.83750004,0.09574468,-153.84663,0.019186333,-0.02095446,-0.02052769,0.036679268,0.0,0.0,0.0
1172.7366,340.1731,130451490,0.83750004,0.09574468,-151.6444,0.02319958,-0.02095446,-0.02052769,0.036679268,0.0,0.0,0.0
1169.5977,340.1731,130451506,0.83750004,0.09574468,-176.03131,0.008284952,-0.02095446,-0.02052769,0.036679268,0.0,0.0,0.0
1166.4691,340.1731,130451523,0.83750004,0.09574468,-195.48326,0.003784846,-0.02095446,-0.02052769,0.036679268,0.0,0.0,0.0
1163.3406,340.1731,130451540,0.83750004,0.09574468,-201.52682,0.010241999,-0.02095446,-0.02052769,0.036679268,0.0,0.0,0.0
1161.4691,340.1731,130451557,0.825,0.09574468,-160.28532,-0.017038833,-0.02095446,-0.02052769,0.036679268,0.0,0.0,0.0
1159.3318,340.1731,130451573,0.83750004,0.12765957,-115.582375,-0.008479676,-0.02095446,-0.02052769,0.036679268,0.0,0.0,0.0
1156.855,340.1731,130451590,0.85,0.10638297,-109.37539,-0.016034551,-0.02095446,-0.02052769,0.036679268,0.0,0.0,0.0
1154.913,340.1731,130451607,0.825,0.12765957,-112.00966,0.019488255,-0.02095446,-0.02052769,0.036679268,0.0,0.0,0.0
1152.2443,340.1731,130451623,0.83750004,0.12765957,-136.35849,0.016593227,-0.02095446,-0.02052769,0.036679268,0.0,0.0,0.0
1149.6213,340.1731,130451640,0.825,0.12765957,-152.4979,-0.025247723,-0.02095446,-0.02052769,0.036679268,0.0,0.0,0.0
1146.5038,340.1731,130451657,0.825,0.12765957,-177.53542,-0.0076173455,-0.02095446,-0.02052769,0.036679268,0.0,0.0,0.0
1143.3888,340.1731,130451674,0.83750004,0.12765957,-206.44504,0.01293527,-0.02095446,-0.02052769,0.036679268,0.0,0.0,0.0
1139.8252,340.1731,130451690,0.825,0.12765957,-215.86728,-0.009409896,-0.02095446,-0.02052769,0.036679268,0.0,0.0,0.0
1136.7034,340.1731,130451707,0.85,0.12765957,-218.77449,0.0021902246,-0.02095446,-0.02052769,0.036679268,0.0,0.0,0.0
1132.5416,340.1731,130451724,0.85,0.12765957,-232.5021,-0.008425023,-0.02095446,-0.02052769,0.036679268,0.0,0.0,0.0
1128.7521,340.1731,130451740,0.83750004,0.12765957,-246.46031,-0.024094516,-0.02095446,-0.02052769,0.036679268,0.0,0.0,0.0
1124.3313,340.1731,130451757,0.85,0.10638297,-264.7588,-0.00385811,-0.02095446,-0.02052769,0.036679268,0.0,0.0,0.0
1119.9165,340.1731,130451774,0.825,0.10638297,-271.00043,-0.029654166,-0.02095446,-0.02052769,0.036679268,0.0,0.0,0.0
1115.3971,340.1731,130451791,0.83750004,0.10638297,-285.22144,-0.011416413,-0.02095446,-0.02052769,0.036679268,0.0,0.0,0.0
1111.7345,340.1731,130451807,0.85,0.10638297,-260.75186,0.002348942,-0.02095446,-0.02052769,0.036679268,0.0,0.0,0.0
1107.561,340.1731,130451824,0.83750004,0.10638297,-238.45638,-0.0061765024,0.007236436,-0.016422153,0.029343605,0.0,0.0,0.0
1103.4083,340.1731,130451841,0.83750004,0.12765957,-232.244,-0.0010333556,0.007236436,-0.016422153,0.029343605,0.0,0.0,0.0
1099.7477,340.1731,130451857,0.83750004,0.12765957,-220.48723,0.003996098,0.007236436,-0.016422153,0.029343605,0.0,0.0,0.0
1095.5868,340.1731,130451874,0.83750004,0.12765957,-237.92911,0.02577736,0.007236436,-0.016422153,0.029343605,0.0,0.0,0.0
1090.5051,340.1731,130451891,0.83750004,0.12765957,-264.71927,0.0057843514,0.007236436,-0.016422153,0.029343605,0.0,0.0,0.0
1085.4624,340.1731,130451907,0.825,0.12765957,-306.57257,-0.017445432,0.007236436,-0.016422153,0.029343605,0.0,0.0,0.0
1080.1334,340.1731,130451924,0.83750004,0.12765957,-344.19702,-0.009489563,0.007236436,-0.016422153,0.029343605,0.0,0.0,0.0
1076.0881,340.1731,130451941,0.83750004,0.12765957,-314.1081,0.0086974865,0.007236436,-0.016422153,0.029343605,0.0,0.0,0.0
1072.3483,340.1731,130451958,0.85,0.10638297,-242.11116,-0.0027364858,0.007236436,-0.016422153,0.029343605,0.0,0.0,0.0
1069.3035,340.1731,130451974,0.83750004,0.10638297,-174.66646,-0.0057117324,0.007236436,-0.016422153,0.029343605,0.0,0.0,0.0
1066.012,340.1731,130451991,0.83750004,0.10638297,-148.56267,-0.006776051,0.007236436,-0.016422153,0.029343605,0.0,0.0,0.0
1061.7714,340.1731,130452008,0.85,0.10638297,-186.55614,0.012091031,0.007236436,-0.016422153,0.029343605,0.0,0.0,0.0
1058.4192,340.1731,130452024,0.85,0.10638297,-230.08574,0.015998743,0.007236436,-0.016422153,0.029343605,0.0,0.0,0.0
1054.02,340.1731,130452041,0.85,0.10638297,-244.64297,0.02413276,0.007236436,-0.016422153,0.029343605,0.0,0.0,0.0
1050.6787,340.1731,130452058,0.83750004,0.10638297,-239.18588,0.022113899,0.007236436,-0.016422153,0.029343605,0.0,0.0,0.0
1047.5602,340.1731,130452075,0.85,0.12765957,-200.90022,0.029430626,0.007236436,-0.016422153,0.029343605,0.0,0.0,0.0
1044.0505,340.8783,130452091,0.83750004,0.12765957,-188.54596,12.66455,0.007236436,-0.016422153,0.029343605,0.0,0.0,0.0
1040.823,341.06165,130452108,0.825,0.12765957,-180.96893,33.24569,0.007236436,-0.016422153,0.029343605,0.0,0.0,0.0
1037.2499,341.06165,130452125,0.825,0.12765957,-194.65517,26.534113,0.007236436,-0.016422153,0.029343605,0.0,0.0,0.0
1033.0819,341.97656,130452141,0.83750004,0.12765957,-236.02997,28.245232,0.007236436,-0.016422153,0.029343605,0.0,0.0,0.0
1029.4757,341.95007,130452158,0.825,0.12765957,-242.73341,21.831818,0.007236436,-0.016422153,0.029343605,0.0,0.0,0.0
1025.2412,341.95007,130452175,0.83750004,0.12765957,-247.54555,8.988129,0.007236436,-0.016422153,0.029343605,0.0,0.0,0.0
1022.1698,341.95007,130452192,0.83750004,0.12765957,-225.36987,3.862553,0.007236436,-0.016422153,0.029343605,0.0,0.0,0.0
1018.4647,341.95007,130452208,0.85,0.10638297,-204.50935,-11.597711,0.007236436,-0.016422153,0.029343605,0.0,0.0,0.0
1015.51086,341.95007,130452225,0.85,0.10638297,-184.68488,-13.339392,0.007236436,-0.016422153,0.029343605,0.0,0.0,0.0
1012.3771,341.95007,130452242,0.83750004,0.10638297,-178.61214,0.0053236163,0.007236436,-0.016422153,0.029343605,0.0,0.0,0.0
1009.25964,341.95007,130452258,0.85,0.10638297,-178.7314,-0.013035129,0.007236436,-0.016422153,0.029343605,0.0,0.0,0.0
1006.1416,341.95007,130452275,0.8625,0.10638297,-176.71898,0.024483327,0.007236436,-0.016422153,0.029343605,0.0,0.0,0.0
1003.0254,341.95007,130452292,0.8625,0.10638297,-183.80942,0.022646468,0.007236436,-0.016422153,0.029343605,0.0,0.0,0.0
999.48975,341.95007,130452309,0.85,0.10638297,-191.583,-0.001963895,0.007236436,-0.016422153,0.029343605,0.0,0.0,0.0
996.2805,341.95007,130452325,0.83750004,0.10638297,-205.25533,0.0031774088,0.007236436,-0.016422153,0.029343605,0.0,0.0,0.0
993.16077,341.95007,130452342,0.85,0.12765957,-201.65887,0.0039435257,0.007236436,-0.016422153,0.029343605,0.0,0.0,0.0
990.0514,341.95007,130452359,0.85,0.12765957,-189.49358,-0.017319296,-0.0022108555,0.018862277,0.007475853,0.0,0.0,0.0
986.94617,341.95007,130452375,0.83750004,0.12765957,-180.31845,0.021760391,-0.0022108555,0.018862277,0.007475853,0.0,0.0,0.0
983.7908,341.95007,130452392,0.83750004,0.12765957,-178.45284,0.012371339,-0.0022108555,0.018862277,0.007475853,0.0,0.0,0.0
980.13306,341.95007,130452409,0.83750004,0.12765957,-202.69778,-0.019544162,-0.0022108555,0.018862277,0.007475853,0.0,0.0,0.0
977.08105,341.95007,130452425,0.83750004,0.12765957,-204.38496,-0.0069847177,-0.0022108555,0.018862277,0.007475853,0.0,0.0,0.0
973.94934,341.95007,130452442,0.83750004,0.12765957,-197.4967,-0.0022789203,-0.0022108555,0.018862277,0.007475853,0.0,0.0,0.0
970.83655,341.95007,130452459,0.85,0.12765957,-185.32957,0.012343413,-0.0022108555,0.018862277,0.007475853,0.0,0.0,0.0
967.40393,341.95007,130452476,0.83750004,0.12765957,-182.13014,0.025012886,-0.0022108555,0.018862277,0.007475853,0.0,0.0,0.0
963.4099,341.95007,130452492,0.85,0.10638297,-215.03249,0.03280855,-0.0022108555,0.018862277,0.007475853,0.0,0.0,0.0
958.69507,341.95007,130452509,0.85,0.10638297,-266.0221,0.05446186,-0.0022108555,0.018862277,0.007475853,0.0,0.0,0.0
953.5022,341.95007,130452526,0.83750004,0.10638297,-323.29266,0.014535155,-0.0022108555,0.018862277,0.007475853,0.0,0.0,0.0
947.86523,341.95007,130452542,0.83750004,0.10638297,-363.7367,0.021670934,-0.0022108555,0.018862277,0.007475853,0.0,0.0,0.0
943.1023,341.95007,130452559,0.85,0.10638297,-349.56964,-5.0598575E-4,-0.0022108555,0.018862277,0.007475853,0.0,0.0,0.0
937.88696,341.95007,130452576,0.83750004,0.12765957,-323.77032,-0.01722432,-0.0022108555,0.018862277,0.007475853,0.0,0.0,0.0
933.69037,341.95007,130452593,0.83750004,0.12765957,-274.4867,0.005017788,-0.0022108555,0.018862277,0.007475853,0.0,0.0,0.0
929.04504,341.95007,130452609,0.85,0.12765957,-252.14615,0.007297273,-0.0022108555,0.018862277,0.007475853,0.0,0.0,0.0
923.3565,341.95007,130452626,0.83750004,0.11702127,-286.7386,-0.00864895,-0.0022108555,0.018862277,0.007475853,0.0,0.0,0.0
917.4,341.06165,130452643,0.825,0.10638297,-344.0472,-23.117924,-0.0022108555,0.018862277,0.007475853,0.0,0.0,0.0
911.1692,341.06165,130452659,0.8625,0.10638297,-403.2271,-34.254684,-0.0022108555,0.018862277,0.007475853,0.0,0.0,0.0
905.2144,340.53967,130452676,0.85,0.09574468,-402.28293,-29.283659,-0.0022108555,0.018862277,0.007475853,0.0,0.0,0.0
898.87476,340.1731,130452693,0.85,0.09574468,-379.7677,-31.612457,-0.0022108555,0.018862277,0.007475853,0.0,0.0,0.0
892.9502,340.1731,130452710,0.83750004,0.09574468,-368.73642,-11.851022,-0.0022108555,0.018862277,0.007475853,0.0,0.0,0.0
886.2713,340.1731,130452726,0.83750004,0.10638297,-377.04517,1.13453,-0.0022108555,0.018862277,0.007475853,0.0,0.0,0.0
878.63873,340.1731,130452743,0.83750004,0.10638297,-420.16357,10.166211,-0.0022108555,0.018862277,0.007475853,0.0,0.0,0.0
870.8364,340.1731,130452760,0.83750004,0.11702127,-476.71964,15.078727,-0.0022108555,0.018862277,0.007475853,0.0,0.0,0.0
862.952,340.1731,130452776,0.85,0.10638297,-504.55838,-0.007710706,-0.0022108555,0.018862277,0.007475853,0.0,0.0,0.0
854.6088,340.1731,130452793,0.85,0.10638297,-525.1589,-0.018919228,-0.0022108555,0.018862277,0.007475853,0.0,0.0,0.0
847.9352,340.1731,130452810,0.8625,0.10638297,-472.50565,-0.011510983,-0.0022108555,0.018862277,0.007475853,0.0,0.0,0.0
840.19336,340.1731,130452827,0.85,0.09574468,-440.00015,-0.0011215012,-0.0022108555,0.018862277,0.007475853,0.0,0.0,0.0
833.1024,340.1731,130452843,0.85,0.09574468,-426.2884,-0.020909593,-0.0022108555,0.018862277,0.007475853,0.0,0.0,0.0
826.3211,340.1731,130452860,0.825,0.10638297,-406.50876,0.0049607167,-0.0022108555,0.018862277,0.007475853,0.0,0.0,0.0
820.1207,339.28455,130452877,0.8625,0.11702127,-386.91058,-26.197433,-0.0022108555,0.018862277,0.007475853,0.0,0.0,0.0
813.58777,339.28455,130452893,0.83750004,0.11702127,-351.73865,-34.129623,-0.0017686784,-9.101927E-4,0.0059804916,0.0,0.0,0.0
806.115,338.66248,130452910,0.85,0.10638297,-391.96973,-31.124777,-0.0017686784,-9.101927E-4,0.0059804916,0.0,0.0,0.0
799.0205,338.39612,130452927,0.85,0.09574468,-432.84915,-31.719578,-0.0017686784,-9.101927E-4,0.0059804916,0.0,0.0,0.0
792.7827,338.39612,130452943,0.8625,0.09574468,-420.52563,-11.109622,-0.0017686784,-9.101927E-4,0.0059804916,0.0,0.0,0.0
785.967,337.50757,130452960,0.8625,0.09574468,-400.54736,-23.997124,-0.0017686784,-9.101927E-4,0.0059804916,0.0,0.0,0.0
779.7004,336.61914,130452977,0.85,0.09574468,-374.64453,-49.252098,-0.0017686784,-9.101927E-4,0.0059804916,0.0,0.0,0.0
775.02997,335.7306,130452994,0.85,0.10638297,-326.79196,-62.70513,-0.0017686784,-9.101927E-4,0.0059804916,0.0,0.0,0.0
769.7644,334.84204,130453010,0.85,0.10638297,-283.59598,-73.78578,-0.0017686784,-9.101927E-4,0.0059804916,0.0,0.0,0.0
764.9969,333.69348,130453027,0.8625,0.11702127,-247.94908,-56.825375,-0.0017686784,-9.101927E-4,0.0059804916,0.0,0.0,0.0
759.874,333.9536,130453044,0.8625,0.11702127,-259.3638,-24.52403,-0.0017686784,-9.101927E-4,0.0059804916,0.0,0.0,0.0
754.7239,333.06506,130453060,0.875,0.11702127,-293.9034,-18.752792,-0.0017686784,-9.101927E-4,0.0059804916,0.0,0.0,0.0
750.25696,332.63123,130453077,0.875,0.10638297,-302.5416,-21.597414,-0.0017686784,-9.101927E-4,0.0059804916,0.0,0.0,0.0
745.0729,331.6842,130453094,0.875,0.09574468,-287.90326,-44.204075,-0.0017686784,-9.101927E-4,0.0059804916,0.0,0.0,0.0
739.622,331.2881,130453111,0.875,0.09574468,-302.2095,-51.627026,-0.0017686784,-9.101927E-4,0.0059804916,0.0,0.0,0.0
733.8947,330.39954,130453127,0.8625,0.08510638,-338.68552,-48.273685,-0.0017686784,-9.101927E-4,0.0059804916,0.0,0.0,0.0
728.7568,329.69458,130453144,0.8625,0.08510638,-344.15784,-35.314396,-0.0017686784,-9.101927E-4,0.0059804916,0.0,0.0,0.0
723.5198,329.5111,130453161,0.8625,0.08510638,-330.07266,-27.919472,-0.0017686784,-9.101927E-4,0.0059804916,0.0,0.0,0.0
718.33105,329.5111,130453177,0.8625,0.08510638,-302.36127,-10.296301,-0.0017686784,-9.101927E-4,0.0059804916,0.0,0.0,0.0
714.14655,329.5111,130453194,0.8625,0.08510638,-275.3335,8.704668,-0.0017686784,-9.101927E-4,0.0059804916,0.0,0.0,0.0
708.93585,328.62256,130453211,0.875,0.09574468,-272.30905,-9.554738,-0.0017686784,-9.101927E-4,0.0059804916,0.0,0.0,0.0
702.50653,327.734,130453228,0.8625,0.09574468,-318.08743,-45.958107,-0.0017686784,-9.101927E-4,0.0059804916,0.0,0.0,0.0
696.79297,326.84558,130453244,0.875,0.08510638,-361.69678,-75.182175,-0.0017686784,-9.101927E-4,0.0059804916,0.0,0.0,0.0
690.6801,325.0686,130453261,0.8625,0.08510638,-388.87177,-95.36901,-0.0017686784,-9.101927E-4,0.0059804916,0.0,0.0,0.0
684.2017,325.0686,130453278,0.8625,0.08510638,-411.18637,-64.126526,-0.0017686784,-9.101927E-4,0.0059804916,0.0,0.0,0.0
677.6715,325.0686,130453294,0.875,0.08510638,-412.93384,-11.601378,-0.0017686784,-9.101927E-4,0.0059804916,0.0,0.0,0.0
671.6272,324.52734,130453311,0.875,0.08510638,-396.93353,14.671926,-0.0017686784,-9.101927E-4,0.0059804916,0.0,0.0,0.0
665.2141,323.57373,130453328,0.8875,0.08510638,-379.1509,-10.271782,-0.0017686784,-9.101927E-4,0.0059804916,0.0,0.0,0.0
659.847,323.2915,130453345,0.875,0.08510638,-333.70157,-52.386658,-0.0017686784,-9.101927E-4,0.0059804916,0.0,0.0,0.0
652.9584,323.2915,130453361,0.85,0.09574468,-341.42477,-35.390854,-0.0017686784,-9.101927E-4,0.0059804916,0.0,0.0,0.0
645.02655,322.40308,130453378,0.8625,0.08510638,-424.05585,-23.814274,-0.0017686784,-9.101927E-4,0.0059804916,0.0,0.0,0.0
637.2385,321.51453,130453395,0.875,0.08510638,-493.85028,-36.270416,-0.0017686784,-9.101927E-4,0.0059804916,0.0,0.0,0.0
629.5764,321.51453,130453411,0.8625,0.08510638,-518.1832,-33.94358,-0.0017686784,-9.101927E-4,0.0059804916,0.0,0.0,0.0
621.132,321.51453,130453428,0.8625,0.08510638,-519.6698,-14.777598,-0.0014149547,-7.2816014E-4,-0.027215958,0.0,0.0,0.0
612.5985,321.51453,130453445,0.8625,0.08510638,-502.43478,16.071783,-0.0014149547,-7.2816014E-4,-0.027215958,0.0,0.0,0.0
604.7311,321.51453,130453461,0.8625,0.09574468,-500.1039,23.061018,-0.0014149547,-7.2816014E-4,-0.027215958,0.0,0.0,0.0
596.4863,322.75793,130453478,0.875,0.09574468,-494.68677,36.39987,-0.0014149547,-7.2816014E-4,-0.027215958,0.0,0.0,0.0
588.6083,323.2915,130453495,0.8625,0.08510638,-496.92322,66.9406,-0.0014149547,-7.2816014E-4,-0.027215958,0.0,0.0,0.0
580.603,324.18005,130453512,0.8625,0.08510638,-489.3008,75.99657,-0.0014149547,-7.2816014E-4,-0.027215958,0.0,0.0,0.0
572.2374,324.74744,130453528,0.8875,0.08510638,-489.86935,52.84369,-0.0014149547,-7.2816014E-4,-0.027215958,0.0,0.0,0.0
563.99445,325.95703,130453545,0.8625,0.08510638,-484.5127,53.47603,-0.0014149547,-7.2816014E-4,-0.027215958,0.0,0.0,0.0
555.66345,327.5415,130453562,0.875,0.08510638,-485.8265,73.65578,-0.0014149547,-7.2816014E-4,-0.027215958,0.0,0.0,0.0
546.8692,329.39868,130453578,0.8625,0.11702127,-519.67365,119.656715,-0.0014149547,-7.2816014E-4,-0.027215958,0.0,0.0,0.0
537.5063,330.35938,130453595,0.8875,0.11702127,-540.9075,107.65068,-0.0014149547,-7.2816014E-4,-0.027215958,0.0,0.0,0.0
529.1975,331.2881,130453612,0.8875,0.09574468,-547.33356,76.29452,-0.0014149547,-7.2816014E-4,-0.027215958,0.0,0.0,0.0
519.41846,333.1421,130453629,0.8875,0.09574468,-565.7999,74.770454,-0.0014149547,-7.2816014E-4,-0.027215958,0.0,0.0,0.0
511.12695,333.9536,130453645,0.875,0.09574468,-543.0521,65.16414,-0.0014149547,-7.2816014E-4,-0.027215958,0.0,0.0,0.0
503.21832,335.08545,130453662,0.8875,0.09574468,-494.68106,60.2387,-0.0014149547,-7.2816014E-4,-0.027215958,0.0,0.0,0.0
496.11908,336.03455,130453679,0.8625,0.10638297,-439.35623,51.13788,-0.0014149547,-7.2816014E-4,-0.027215958,0.0,0.0,0.0
488.10535,337.88818,130453695,0.875,0.11702127,-400.5565,71.7904,-0.0014149547,-7.2816014E-4,-0.027215958,0.0,0.0,0.0
478.5296,339.73572,130453712,0.8875,0.12765957,-491.2878,122.25052,-0.0014149547,-7.2816014E-4,-0.027215958,0.0,0.0,0.0
468.20514,341.57898,130453729,0.8875,0.10638297,-631.37683,146.72386,-0.0014149547,-7.2816014E-4,-0.027215958,0.0,0.0,0.0
458.03418,342.53552,130453745,0.8875,0.10638297,-693.28125,104.00879,-0.0014149547,-7.2816014E-4,-0.027215958,0.0,0.0,0.0
448.56116,344.37292,130453762,0.90000004,0.10638297,-663.60785,76.88208,-0.0014149547,-7.2816014E-4,-0.027215958,0.0,0.0,0.0
440.11142,346.2201,130453779,0.8875,0.12765957,-536.2027,86.398575,-0.0014149547,-7.2816014E-4,-0.027215958,0.0,0.0,0.0
430.85202,348.07825,130453796,0.90000004,0.12765957,-494.4709,112.04715,-0.0014149547,-7.2816014E-4,-0.027215958,0.0,0.0,0.0
421.4414,349.92676,130453812,0.90000004,0.12765957,-515.9886,126.996086,-0.0014149547,-7.2816014E-4,-0.027215958,0.0,0.0,0.0
410.56122,353.6012,130453829,0.9125,0.08510638,-595.2766,171.20488,-0.0014149547,-7.2816014E-4,-0.027215958,0.0,0.0,0.0
400.17743,356.28528,130453846,0.925,0.09574468,-660.3544,202.02988,-0.0014149547,-7.2816014E-4,-0.027215958,0.0,0.0,0.0
390.27042,359.04504,130453863,0.925,0.10638297,-656.8591,208.17401,-0.0014149547,-7.2816014E-4,-0.027215958,0.0,0.0,0.0
383.09,359.7202,130453879,0.9125,0.11702127,-532.19385,131.51578,-0.0014149547,-7.2816014E-4,-0.027215958,0.0,0.0,0.0
378.749,359.7202,130453896,0.8875,0.11702127,-342.8623,9.8826275,-0.0014149547,-7.2816014E-4,-0.027215958,0.0,0.0,0.0
376.11453,358.83167,130453913,0.8875,0.11702127,-120.13626,-98.88298,-0.0014149547,-7.2816014E-4,-0.027215958,0.0,0.0,0.0
375.35565,358.83167,130453925,0.475,0.12765957,-11.983062,-112.30415,-0.0014149547,-7.2816014E-4,-0.027215958,0.0,0.0,0.0
375.35565,358.83167,130453932,0.475,0.12765957,-11.983062,-112.30415,-0.0014149547,-7.2816014E-4,-0.027215958,0.0,0.0,0.0
