x,y,timestamp,pressure,fingerarea,velocityx,velocityy,accelx,accely,accelz,gyrox,gyroy,gyroz
133.43442,223.77917,130400271,1.025,0.08510638,0.0,0.0,0.0036717057,0.0022565424,-0.014460564,0.0,0.0,0.0
133.43442,223.77917,130400290,1.0375,0.08510638,-0.021926373,-0.034444913,0.0036717057,0.0022565424,-0.014460564,0.0,0.0,0.0
145.57826,217.94495,130400306,1.0,0.09574468,899.5637,-432.16107,0.0036717057,0.0022565424,-0.014460564,0.0,0.0,0.0
176.79112,206.19543,130400323,0.95,0.08510638,2345.4766,-957.6823,0.0036717057,0.0022565424,-0.014460564,0.0,0.0,0.0
216.16791,196.06665,130400340,0.90000004,0.11702127,3003.25,-954.56445,0.0036717057,0.0022565424,-0.014460564,0.0,0.0,0.0
259.23978,184.32397,130400356,0.8625,0.12765957,3401.4058,-925.9383,0.0036717057,0.0022565424,-0.014460564,0.0,0.0,0.0
307.18927,168.75903,130400373,0.8875,0.08510638,3471.8687,-910.7846,0.0036717057,0.0022565424,-0.014460564,0.0,0.0,0.0
365.86932,149.38379,130400390,0.8625,0.09574468,3605.7104,-1084.5248,0.0036717057,0.0022565424,-0.014460564,0.0,0.0,0.0
419.9297,127.032715,130400407,0.83750004,0.11702127,3714.6113,-1392.9431,0.0036717057,0.0022565424,-0.014460564,0.0,0.0,0.0
464.2503,109.2843,130400423,0.83750004,0.08510638,3383.6438,-1439.902,0.0036717057,0.0022565424,-0.014460564,0.0,0.0,0.0
496.03882,99.73181,130400440,0.8125,0.08510638,2553.271,-1066.5049,0.0036717057,0.0022565424,-0.014460564,0.0,0.0,0.0
506.81287,97.611694,130400454,0.5,0.09574468,1516.4159,-553.9477,0.0036717057,0.0022565424,-0.014460564,0.0,0.0,0.0
506.81287,97.611694,130400461,0.5,0.09574468,1516.4159,-553.9477,0.0036717057,0.0022565424,-0.014460564,0.0,0.0,0.0
168.92287,326.84558,130400752,0.975,0.08510638,0.0,0.0,-0.0050626397,0.0018052161,-0.011568069,0.0,0.0,0.0
168.92287,326.84558,130400774,0.9875,0.08510638,-0.0036325273,-0.007297081,-0.0050626397,0.0018052161,-0.011568069,0.0,0.0,0.0
182.53482,317.77185,130400791,0.96250004,0.08510638,1004.54645,-669.6619,-0.0050626397,0.0018052161,-0.011568069,0.0,0.0,0.0
206.48471,305.0127,130400808,0.925,0.11702127,1889.6487,-1116.1627,-0.0050626397,0.0018052161,-0.011568069,0.0,0.0,0.0
239.0712,292.12744,130400824,0.8875,0.10638297,2402.5166,-1099.4764,-0.0050626397,0.0018052161,-0.011568069,0.0,0.0,0.0
279.3756,279.0974,130400841,0.875,0.08510638,2844.7532,-1066.1528,-0.0050626397,0.0018052161,-0.011568069,0.0,0.0,0.0
328.81653,260.28088,130400858,0.875,0.08510638,3259.3274,-1066.3098,-0.0050626397,0.0018052161,-0.011568069,0.0,0.0,0.0
385.61646,237.14673,130400874,0.8625,0.10638297,3667.252,-1275.2178,-0.0050626397,0.0018052161,-0.011568069,0.0,0.0,0.0
446.27185,213.14417,130400891,0.825,0.06382979,4087.623,-1582.7548,-0.0050626397,0.0018052161,-0.011568069,0.0,0.0,0.0
496.3399,193.04211,130400908,0.8,0.10638297,3902.849,-1611.0165,-0.0050626397,0.0018052161,-0.011568069,0.0,0.0,0.0
535.13306,176.32007,130400925,0.8,0.09574468,2972.7214,-1255.9797,-0.0050626397,0.0018052161,-0.011568069,0.0,0.0,0.0
554.7187,167.71643,130400941,0.75,0.06382979,1595.5457,-708.22516,-0.0050626397,0.0018052161,-0.011568069,0.0,0.0,0.0
569.79236,164.24951,130400953,0.26250002,0.09574468,879.97534,-375.16788,-0.0050626397,0.0018052161,-0.011568069,0.0,0.0,0.0
569.79236,164.24951,130400960,0.26250002,0.09574468,879.97534,-375.16788,-0.0050626397,0.0018052161,-0.011568069,0.0,0.0,0.0
326.87146,75.39917,130401773,1.0625,0.12765957,0.0,0.0,-0.004840076,0.01715535,0.011796951,0.0,0.0,0.0
326.87146,75.39917,130401810,1.0875,0.12765957,-0.0020996958,-6.0405285E-4,-0.004840076,0.01715535,0.011796951,0.0,0.0,0.0
326.87146,75.39917,130401827,1.1125001,0.12765957,-0.0019544205,-2.226534E-4,-0.004840076,0.01715535,0.011796951,0.0,0.0,0.0
323.3726,112.99194,130401844,1.1,0.09574468,-174.81953,1693.6365,-0.004840076,0.01715535,0.011796951,0.0,0.0,0.0
322.42828,154.5835,130401860,1.075,0.11702127,-168.11203,2757.2305,-0.004840076,0.01715535,0.011796951,0.0,0.0,0.0
320.42355,202.677,130401877,1.0500001,0.12765957,-131.31494,3813.3284,-0.004840076,0.01715535,0.011796951,0.0,0.0,0.0
318.84537,253.74158,130401894,1.0375,0.09574468,-129.99228,3972.6462,-0.004840076,0.01715535,0.011796951,0.0,0.0,0.0
315.1599,305.2838,130401911,1.0500001,0.09574468,-154.16986,3755.3464,-0.004840076,0.01715535,0.011796951,0.0,0.0,0.0
311.54907,357.92883,130401927,1.0500001,0.11702127,-218.86171,3422.998,-0.004840076,0.01715535,0.011796951,0.0,0.0,0.0
307.80667,404.26746,130401944,1.0625,0.12765957,-268.13516,3161.426,-0.004840076,0.01715535,0.011796951,0.0,0.0,0.0
304.1903,445.16223,130401961,1.0625,0.12765957,-269.04822,2677.5378,-0.004840076,0.01715535,0.011796951,0.0,0.0,0.0
304.60764,479.40088,130401977,1.0625,0.08510638,-124.6073,1998.8694,-0.004840076,0.01715535,0.011796951,0.0,0.0,0.0
306.1655,504.38904,130401994,1.075,0.12765957,74.08452,1443.4215,-0.004840076,0.01715535,0.011796951,0.0,0.0,0.0
309.27444,525.4971,130402011,1.0500001,0.09574468,261.02835,994.2106,-0.004840076,0.01715535,0.011796951,0.0,0.0,0.0
311.86932,543.0149,130402028,0.9125,0.09574468,318.59912,727.6274,-0.004840076,0.01715535,0.011796951,0.0,0.0,0.0
314.60837,565.8473,130402044,0.7875,0.12765957,258.83405,740.0442,-0.004840076,0.01715535,0.011796951,0.0,0.0,0.0
314.87537,580.7456,130402061,0.7375,0.08510638,133.50821,903.88116,-0.004840076,0.01715535,0.011796951,0.0,0.0,0.0
314.40372,585.2998,130402078,0.8875,0.08510638,-4.657169,676.98846,-0.004840076,0.01715535,0.011796951,0.0,0.0,0.0
313.87567,586.28845,130402094,0.9875,0.09574468,-97.96,51.995068,-0.004840076,0.01715535,0.011796951,0.0,0.0,0.0
313.87567,586.28845,130402111,0.3625,0.09574468,-96.366394,-376.27573,-0.004840076,0.01715535,0.011796951,0.0,0.0,0.0
313.87567,586.28845,130402118,0.3625,0.09574468,-96.366394,-376.27573,-0.004840076,0.01715535,0.011796951,0.0,0.0,0.0
388.8513,575.62646,130403235,0.75,0.09574468,0.0,0.0,-0.007897645,-0.0018205941,-0.021249771,0.0,0.0,0.0
388.8513,575.62646,130403264,0.875,0.09574468,-0.061745085,-0.08647398,0.017681882,-0.017456472,-0.0010004044,0.0,0.0,0.0
388.8513,575.62646,130403279,0.9375,0.08510638,0.022363076,0.03324163,0.017681882,-0.017456472,-0.0010004044,0.0,0.0,0.0
388.8513,575.62646,130403297,0.95,0.08510638,-0.003617319,-0.0067411507,0.017681882,-0.017456472,-0.0010004044,0.0,0.0,0.0
388.8513,575.62646,130403314,0.95,0.10638297,-3.998705E-6,3.9753367E-4,0.017681882,-0.017456472,-0.0010004044,0.0,0.0,0.0
388.8513,575.62646,130403331,0.95,0.09574468,-0.030008877,-0.042126928,0.017681882,-0.017456472,-0.0010004044,0.0,0.0,0.0
404.03958,567.52686,130403348,0.925,0.12765957,395.1172,-210.71368,0.017681882,-0.017456472,-0.0010004044,0.0,0.0,0.0
420.17285,555.4707,130403364,0.9125,0.09574468,991.5443,-624.9758,0.017681882,-0.017456472,-0.0010004044,0.0,0.0,0.0
439.22974,539.4596,130403381,0.8875,0.08510638,1527.7683,-1124.5435,0.017681882,-0.017456472,-0.0010004044,0.0,0.0,0.0
460.37354,520.7168,130403398,0.8625,0.12765957,1680.3319,-1370.5345,0.017681882,-0.017456472,-0.0010004044,0.0,0.0,0.0
485.1624,495.65173,130403414,0.8625,0.07446808,1661.4976,-1590.9073,0.017681882,-0.017456472,-0.0010004044,0.0,0.0,0.0
510.47083,467.3866,130403431,0.83750004,0.12765957,1625.5845,-1806.2795,0.017681882,-0.017456472,-0.0010004044,0.0,0.0,0.0
532.2863,437.48926,130403448,0.83750004,0.08510638,1579.4131,-2020.2468,0.017681882,-0.017456472,-0.0010004044,0.0,0.0,0.0
551.6092,410.29602,130403465,0.85,0.10638297,1335.7666,-1996.2147,0.017681882,-0.017456472,-0.0010004044,0.0,0.0,0.0
564.9174,388.5182,130403481,0.85,0.07446808,935.9827,-1652.5399,0.017681882,-0.017456472,-0.0010004044,0.0,0.0,0.0
573.83484,372.96997,130403498,0.85,0.11702127,478.25085,-1090.7338,0.017681882,-0.017456472,-0.0010004044,0.0,0.0,0.0
578.9052,363.06848,130403515,0.83750004,0.12765957,160.63611,-552.8861,0.017681882,-0.017456472,-0.0010004044,0.0,0.0,0.0
580.73114,358.1482,130403531,0.85,0.12765957,-102.72061,-88.91633,0.017681882,-0.017456472,-0.0010004044,0.0,0.0,0.0
581.28864,356.18103,130403548,0.8875,0.12765957,-202.28897,163.78207,0.017681882,-0.017456472,-0.0010004044,0.0,0.0,0.0
580.7567,356.16614,130403565,0.925,0.10638297,-211.81107,261.9847,0.017681882,-0.017456472,-0.0010004044,0.0,0.0,0.0
577.64545,359.9126,130403582,0.925,0.08510638,-249.34624,349.15994,0.017681882,-0.017456472,-0.0010004044,0.0,0.0,0.0
568.8215,370.78796,130403598,0.96250004,0.08510638,-439.06796,589.59924,0.017681882,-0.017456472,-0.0010004044,0.0,0.0,0.0
559.1868,384.1565,130403615,0.9375,0.12765957,-662.4199,900.16583,0.017681882,-0.017456472,-0.0010004044,0.0,0.0,0.0
547.939,406.4563,130403632,0.9375,0.10638297,-818.22296,1283.6924,0.017681882,-0.017456472,-0.0010004044,0.0,0.0,0.0
541.6922,422.8551,130403648,0.9125,0.09574468,-707.48364,1457.9677,0.017681882,-0.017456472,-0.0010004044,0.0,0.0,0.0
535.4499,440.86853,130403665,0.9125,0.11702127,-476.31985,1420.6761,0.017681882,-0.017456472,-0.0010004044,0.0,0.0,0.0
530.5835,457.35474,130403682,0.9375,0.11702127,-288.68405,1215.3578,0.017681882,-0.017456472,-0.0010004044,0.0,0.0,0.0
526.7633,475.18445,130403699,0.9375,0.08510638,-156.06187,1004.78174,0.017681882,-0.017456472,-0.0010004044,0.0,0.0,0.0
524.9488,490.97913,130403715,0.925,0.08510638,-63.54039,892.46466,0.017681882,-0.017456472,-0.0010004044,0.0,0.0,0.0
524.3072,501.97778,130403732,0.9375,0.12765957,17.499882,758.638,0.017681882,-0.017456472,-0.0010004044,0.0,0.0,0.0
524.7768,512.2743,130403749,0.95,0.10638297,83.56216,610.4752,0.017681882,-0.017456472,-0.0010004044,0.0,0.0,0.0
526.32874,518.8214,130403765,0.96250004,0.09574468,150.05203,354.977,0.017681882,-0.017456472,-0.0010004044,0.0,0.0,0.0
528.266,521.39233,130403782,0.96250004,0.09574468,190.15054,116.754715,0.017681882,-0.017456472,-0.0010004044,0.0,0.0,0.0
531.7421,525.3705,130403799,0.96250004,0.09574468,218.49654,17.889582,0.0141454935,0.018034816,0.015200615,0.0,0.0,0.0
538.307,529.2051,130403815,0.95,0.08510638,342.39062,33.51995,0.0141454935,0.018034816,0.015200615,0.0,0.0,0.0
547.35504,533.5924,130403832,0.9125,0.08510638,526.59106,136.60197,0.0141454935,0.018034816,0.015200615,0.0,0.0,0.0
560.57495,534.37537,130403849,0.8875,0.08510638,775.94727,169.12914,0.0141454935,0.018034816,0.015200615,0.0,0.0,0.0
575.3121,531.6373,130403866,0.8875,0.09574468,1012.09607,-37.995773,0.0141454935,0.018034816,0.015200615,0.0,0.0,0.0
591.4076,523.6786,130403882,0.8875,0.10638297,1120.3108,-364.12692,0.0141454935,0.018034816,0.015200615,0.0,0.0,0.0
607.5836,511.09045,130403899,0.90000004,0.10638297,1148.9595,-814.7468,0.0141454935,0.018034816,0.015200615,0.0,0.0,0.0
620.12256,494.5111,130403916,0.875,0.07446808,974.37415,-1132.3805,0.0141454935,0.018034816,0.015200615,0.0,0.0,0.0
632.77673,470.38403,130403932,0.8625,0.11702127,760.80615,-1438.8536,0.0141454935,0.018034816,0.015200615,0.0,0.0,0.0
640.4861,447.8004,130403949,0.85,0.09574468,555.1486,-1724.2103,0.0141454935,0.018034816,0.015200615,0.0,0.0,0.0
646.2359,428.22827,130403966,0.8625,0.08510638,307.24643,-1663.4054,0.0141454935,0.018034816,0.015200615,0.0,0.0,0.0
649.75525,411.3125,130403983,0.8625,0.12765957,136.03928,-1346.7803,0.0141454935,0.018034816,0.015200615,0.0,0.0,0.0
651.3262,401.93933,130403999,0.85,0.11702127,-17.557487,-755.53564,0.0141454935,0.018034816,0.015200615,0.0,0.0,0.0
652.2655,395.7527,130404016,0.8875,0.09574468,-92.589035,-267.89413,0.0141454935,0.018034816,0.015200615,0.0,0.0,0.0
652.2655,393.21704,130404033,0.8875,0.09574468,-88.17507,13.935717,0.0141454935,0.018034816,0.015200615,0.0,0.0,0.0
652.07007,392.59485,130404049,0.90000004,0.11702127,-101.77242,216.83604,0.0141454935,0.018034816,0.015200615,0.0,0.0,0.0
650.8009,393.00806,130404066,0.925,0.11702127,-89.544136,217.84805,0.0141454935,0.018034816,0.015200615,0.0,0.0,0.0
647.88684,396.33374,130404083,0.9375,0.12765957,-148.94556,251.23102,0.0141454935,0.018034816,0.015200615,0.0,0.0,0.0
643.0085,405.72705,130404100,0.96250004,0.11702127,-280.87994,468.06335,0.0141454935,0.018034816,0.015200615,0.0,0.0,0.0
638.8655,418.02173,130404116,0.975,0.09574468,-359.90936,780.0045,0.0141454935,0.018034816,0.015200615,0.0,0.0,0.0
635.9921,431.0044,130404133,0.975,0.08510638,-322.31442,1013.03204,0.0141454935,0.018034816,0.015200615,0.0,0.0,0.0
634.77124,441.68262,130404150,0.96250004,0.10638297,-175.30626,996.4265,0.0141454935,0.018034816,0.015200615,0.0,0.0,0.0
633.79926,452.71753,130404166,0.95,0.12765957,-18.847218,797.965,0.0141454935,0.018034816,0.015200615,0.0,0.0,0.0
632.7564,463.8396,130404183,0.96250004,0.08510638,21.250546,647.9264,0.0141454935,0.018034816,0.015200615,0.0,0.0,0.0
631.1629,477.78064,130404200,0.96250004,0.08510638,-13.82596,692.52405,0.0141454935,0.018034816,0.015200615,0.0,0.0,0.0
628.58563,492.38562,130404217,0.95,0.10638297,-107.28759,855.5469,0.0141454935,0.018034816,0.015200615,0.0,0.0,0.0
625.9256,506.40405,130404233,0.96250004,0.10638297,-173.51247,930.55664,0.0141454935,0.018034816,0.015200615,0.0,0.0,0.0
625.7742,521.2792,130404250,0.9375,0.08510638,-132.7258,942.68463,0.0141454935,0.018034816,0.015200615,0.0,0.0,0.0
624.7745,533.81165,130404267,0.95,0.08510638,-66.99963,875.8341,0.0141454935,0.018034816,0.015200615,0.0,0.0,0.0
624.27466,543.6478,130404283,0.975,0.08510638,10.580397,698.7088,0.0141454935,0.018034816,0.015200615,0.0,0.0,0.0
623.7748,549.09265,130404300,0.975,0.09574468,7.681439,434.85806,0.0141454935,0.018034816,0.015200615,0.0,0.0,0.0
623.7748,553.6376,130404317,1.0,0.10638297,-1.3191652,132.47849,0.0141454935,0.018034816,0.015200615,0.0,0.0,0.0
623.7748,556.73206,130404334,1.0,0.10638297,8.469555,6.127033,0.011316389,-0.017572135,0.012160301,0.0,0.0,0.0
624.65063,558.5248,130404350,1.0125,0.12765957,36.45245,-20.717936,0.011316389,-0.017572135,0.012160301,0.0,0.0,0.0
625.72784,560.43945,130404367,1.0125,0.12765957,74.936646,11.088358,0.011316389,-0.017572135,0.012160301,0.0,0.0,0.0
627.76306,562.2897,130404384,1.0125,0.12765957,118.15726,35.558903,0.011316389,-0.017572135,0.012160301,0.0,0.0,0.0
630.9451,562.29895,130404400,1.0,0.12765957,179.38367,15.577043,0.011316389,-0.017572135,0.012160301,0.0,0.0,0.0
634.51025,562.29895,130404417,1.0,0.12765957,244.18497,-12.112298,0.011316389,-0.017572135,0.012160301,0.0,0.0,0.0
638.2414,562.29895,130404434,1.0,0.12765957,272.09772,-45.348667,0.011316389,-0.017572135,0.012160301,0.0,0.0,0.0
642.46185,562.29895,130404450,1.0,0.12765957,287.8337,-46.70455,0.011316389,-0.017572135,0.012160301,0.0,0.0,0.0
648.112,560.1804,130404467,0.95,0.12765957,315.47937,-78.00736,0.011316389,-0.017572135,0.012160301,0.0,0.0,0.0
655.4768,557.0957,130404484,0.9375,0.09574468,413.7054,-166.18243,0.011316389,-0.017572135,0.012160301,0.0,0.0,0.0
665.96375,551.6627,130404501,0.9125,0.08510638,583.0622,-301.92645,0.011316389,-0.017572135,0.012160301,0.0,0.0,0.0
679.21594,542.17017,130404517,0.875,0.08510638,804.9673,-519.0347,0.011316389,-0.017572135,0.012160301,0.0,0.0,0.0
698.3708,526.077,130404534,0.85,0.09574468,1081.4729,-852.6411,0.011316389,-0.017572135,0.012160301,0.0,0.0,0.0
723.7206,500.62012,130404551,0.83750004,0.08510638,1484.6007,-1399.2692,0.011316389,-0.017572135,0.012160301,0.0,0.0,0.0
746.9009,468.16772,130404567,0.8125,0.11702127,1725.8397,-2000.8809,0.011316389,-0.017572135,0.012160301,0.0,0.0,0.0
777.75934,412.16602,130404584,0.8625,0.07446808,1874.6368,-2906.2156,0.011316389,-0.017572135,0.012160301,0.0,0.0,0.0
791.7975,375.89758,130404601,0.825,0.06382979,1669.2236,-3497.5706,0.011316389,-0.017572135,0.012160301,0.0,0.0,0.0
801.52924,336.7312,130404618,0.83750004,0.08510638,907.1955,-3133.2073,0.011316389,-0.017572135,0.012160301,0.0,0.0,0.0
801.71686,312.36597,130404634,0.83750004,0.12765957,98.896164,-2195.1006,0.011316389,-0.017572135,0.012160301,0.0,0.0,0.0
794.96594,299.0752,130404651,0.85,0.10638297,-650.40045,-949.73816,0.011316389,-0.017572135,0.012160301,0.0,0.0,0.0
768.9767,286.89673,130404668,0.8875,0.11702127,-1480.8192,-150.19182,0.011316389,-0.017572135,0.012160301,0.0,0.0,0.0
729.0886,293.2223,130404684,0.9125,0.10638297,-2395.1492,364.35864,0.011316389,-0.017572135,0.012160301,0.0,0.0,0.0
694.5633,307.85034,130404701,0.925,0.10638297,-3068.4363,1109.4729,0.011316389,-0.017572135,0.012160301,0.0,0.0,0.0
673.23785,320.51233,130404718,0.9375,0.08510638,-2590.1372,1479.1919,0.011316389,-0.017572135,0.012160301,0.0,0.0,0.0
664.62634,326.23083,130404735,0.95,0.08510638,-1187.4231,1249.8438,0.011316389,-0.017572135,0.012160301,6.710885E-6,0.0,0.0
662.4493,326.84558,130404751,0.975,0.08510638,169.60887,444.3556,0.011316389,-0.017572135,0.012160301,6.710885E-6,0.0,0.0
665.23926,326.84558,130404768,1.0375,0.08510638,750.6055,-210.96771,0.011316389,-0.017572135,0.012160301,6.710885E-6,0.0,0.0
679.5143,325.95703,130404785,0.95,0.08510638,1070.1853,-386.76535,0.011316389,-0.017572135,0.012160301,6.710885E-6,0.0,0.0
697.5774,328.48962,130404801,0.875,0.09574468,1403.0524,-189.59253,0.011316389,-0.017572135,0.012160301,0.0,0.0,0.0
713.0221,335.8817,130404818,0.90000004,0.10638297,1496.9591,231.24706,0.011316389,-0.017572135,0.012160301,0.0,0.0,0.0
720.1864,343.36353,130404835,0.9375,0.09574468,1122.9958,526.79364,0.011316389,-0.017572135,0.012160301,0.0,0.0,0.0
727.7348,366.26904,130404851,0.96250004,0.08510638,558.25916,1072.7719,0.011316389,-0.017572135,0.012160301,0.0,0.0,0.0
728.9318,384.65234,130404868,0.975,0.10638297,34.03758,1432.7378,0.009053111,0.001942277,0.009728432,0.0,0.0,0.0
728.4239,396.3247,130404885,0.96250004,0.12765957,-236.8227,1336.4661,0.009053111,0.001942277,0.009728432,0.0,0.0,0.0
728.7406,405.71594,130404902,1.0,0.10638297,-257.7083,951.64264,0.009053111,0.001942277,0.009728432,0.0,0.0,0.0
729.00446,414.48694,130404918,0.9875,0.08510638,-168.51132,357.96872,0.009053111,0.001942277,0.009728432,0.0,0.0,0.0
730.8487,425.16064,130404935,0.9875,0.08510638,10.832705,327.9768,0.009053111,0.001942277,0.009728432,0.0,0.0,0.0
732.9245,435.01294,130404952,0.9875,0.08510638,134.32266,512.7572,0.009053111,0.001942277,0.009728432,0.0,0.0,0.0
735.47473,441.64807,130404968,0.9875,0.10638297,187.37144,505.29706,0.009053111,0.001942277,0.009728432,0.0,0.0,0.0
738.4906,447.9856,130404985,0.975,0.12765957,214.76904,395.32266,0.009053111,0.001942277,0.009728432,0.0,0.0,0.0
741.1783,452.07263,130405002,0.975,0.12765957,209.15715,234.3157,0.009053111,0.001942277,0.009728432,0.0,0.0,0.0
742.75543,454.82446,130405019,1.0,0.11702127,149.3372,98.82418,0.009053111,0.001942277,0.009728432,0.0,0.0,0.0
744.3402,456.66003,130405035,1.0,0.11702127,96.91608,46.390675,0.009053111,0.001942277,0.009728432,0.0,0.0,0.0
745.8233,459.3894,130405052,1.0125,0.11702127,63.957703,44.359657,0.009053111,0.001942277,0.009728432,0.0,0.0,0.0
747.7345,462.78662,130405068,1.0,0.11702127,58.140667,74.84467,0.009053111,0.001942277,0.009728432,0.0,0.0,0.0
748.8965,465.74072,130405085,0.975,0.09574468,82.01966,177.28206,0.009053111,0.001942277,0.009728432,0.0,0.0,0.0
749.94556,467.98193,130405102,0.9875,0.09574468,77.82273,187.87329,0.009053111,0.001942277,0.009728432,0.0,0.0,0.0
750.7359,469.89893,130405119,1.025,0.09574468,46.869076,146.00925,0.009053111,0.001942277,0.009728432,0.0,0.0,0.0
752.2998,473.56738,130405136,1.0,0.09574468,54.682156,151.99263,0.009053111,0.001942277,0.009728432,0.0,0.0,0.0
753.5033,477.07617,130405152,1.0125,0.09574468,67.97339,181.58281,0.009053111,0.001942277,0.009728432,0.0,0.0,0.0
754.95526,480.95325,130405169,1.0,0.09574468,87.93667,250.6483,0.009053111,0.001942277,0.009728432,0.0,0.0,0.0
756.53546,485.365,130405186,1.0125,0.09574468,96.47985,275.6657,0.009053111,0.001942277,0.009728432,0.0,0.0,0.0
757.67975,489.2588,130405202,0.9875,0.09574468,88.574905,277.1126,0.009053111,0.001942277,0.009728432,0.0,0.0,0.0
758.7182,492.08472,130405219,1.0,0.09574468,74.94849,237.5469,0.009053111,0.001942277,0.009728432,0.0,0.0,0.0
759.26373,493.0542,130405236,1.0125,0.11702127,43.857403,114.96688,0.009053111,0.001942277,0.009728432,0.0,0.0,0.0
760.3086,494.91187,130405253,1.025,0.11702127,32.687798,44.75448,0.009053111,0.001942277,0.009728432,0.0,0.0,0.0
761.33624,496.7384,130405269,1.025,0.10638297,45.518738,32.001186,0.009053111,0.001942277,0.009728432,0.0,0.0,0.0
762.4069,497.75317,130405286,1.0125,0.10638297,62.989727,47.234505,0.009053111,0.001942277,0.009728432,0.0,0.0,0.0
763.922,499.55786,130405303,0.9875,0.12765957,82.07214,84.36774,0.009053111,0.001942277,0.009728432,0.0,0.0,0.0
765.69037,501.40247,130405319,0.9875,0.12765957,101.37124,98.78188,0.009053111,0.001942277,0.009728432,0.0,0.0,0.0
767.4965,503.24646,130405336,0.975,0.12765957,127.89717,120.26193,0.009053111,0.001942277,0.009728432,0.0,0.0,0.0
769.3316,505.083,130405353,0.9875,0.12765957,128.58998,127.653725,0.009053111,0.001942277,0.009728432,0.0,0.0,0.0
772.5356,508.375,130405370,0.9875,0.12765957,150.19254,143.16742,0.009053111,0.001942277,0.009728432,0.0,0.0,0.0
775.85474,510.54626,130405386,0.975,0.10638297,202.00798,173.58395,0.009053111,0.001942277,0.009728432,0.0,0.0,0.0
779.0108,513.17834,130405403,0.9875,0.09574468,234.71475,174.11624,0.007242486,0.0015538037,-0.024217606,0.0,0.0,0.0
781.9938,515.07227,130405420,0.9875,0.09574468,228.38791,151.58876,0.007242486,0.0015538037,-0.024217606,0.0,0.0,0.0
785.2749,517.905,130405436,0.975,0.10638297,196.39397,140.04787,0.007242486,0.0015538037,-0.024217606,0.0,0.0,0.0
788.3953,519.7539,130405453,0.975,0.08510638,181.78468,125.4475,0.007242486,0.0015538037,-0.024217606,0.0,0.0,0.0
791.5171,522.4922,130405470,0.9875,0.08510638,188.82307,146.47444,0.007242486,0.0015538037,-0.024217606,0.0,0.0,0.0
793.9317,524.28186,130405486,0.975,0.09574468,171.02943,125.00233,0.007242486,0.0015538037,-0.024217606,0.0,0.0,0.0
796.7712,527.4136,130405503,1.0,0.09574468,149.93384,138.63942,0.007242486,0.0015538037,-0.024217606,0.0,0.0,0.0
799.13916,528.9103,130405520,0.9875,0.09574468,141.14316,132.67027,0.007242486,0.0015538037,-0.024217606,0.0,0.0,0.0
801.1393,530.68787,130405537,1.0,0.09574468,124.91518,112.81593,0.007242486,0.0015538037,-0.024217606,0.0,0.0,0.0
803.2858,532.5958,130405553,1.0125,0.09574468,117.2154,108.44605,0.007242486,0.0015538037,-0.024217606,0.0,0.0,0.0
805.36566,534.44434,130405570,0.9875,0.09574468,109.71867,92.42879,0.007242486,0.0015538037,-0.024217606,0.0,0.0,0.0
807.247,536.11646,130405587,1.0,0.09574468,101.73733,94.39486,0.007242486,0.0015538037,-0.024217606,0.0,0.0,0.0
809.3608,536.53235,130405603,1.0,0.09574468,114.098755,66.40912,0.007242486,0.0015538037,-0.024217606,0.0,0.0,0.0
811.9618,537.2717,130405620,0.9875,0.09574468,130.37671,17.53316,0.007242486,0.0015538037,-0.024217606,0.0,0.0,0.0
814.68494,538.29285,130405637,0.9875,0.08510638,160.89397,8.724315,0.007242486,0.0015538037,-0.024217606,0.0,0.0,0.0
817.2773,538.3093,130405654,0.9875,0.08510638,180.9732,12.232802,0.007242486,0.0015538037,-0.024217606,0.0,0.0,0.0
819.3529,538.3093,130405670,1.0,0.08510638,160.59897,5.6449523,0.007242486,0.0015538037,-0.024217606,0.0,0.0,0.0
821.9438,540.2938,130405687,1.0,0.08510638,146.16484,48.005505,0.007242486,0.0015538037,-0.024217606,0.0,0.0,0.0
824.04584,540.0863,130405704,1.0,0.08510638,125.90626,38.63796,0.007242486,0.0015538037,-0.024217606,0.0,0.0,0.0
825.5967,540.4308,130405720,1.0,0.08510638,101.560455,29.425383,0.007242486,0.0015538037,-0.024217606,0.0,0.0,0.0
827.66315,540.97485,130405737,0.9875,0.08510638,103.44975,22.504498,0.007242486,0.0015538037,-0.024217606,0.0,0.0,0.0
829.7447,540.97485,130405754,0.9875,0.08510638,108.16396,-4.2599235,0.007242486,0.0015538037,-0.024217606,0.0,0.0,0.0
831.81946,540.97485,130405771,0.975,0.08510638,128.46631,1.6135277,0.007242486,0.0015538037,-0.024217606,0.0,0.0,0.0
833.887,540.97485,130405787,0.9875,0.08510638,131.49094,-9.507384,0.007242486,0.0015538037,-0.024217606,0.0,0.0,0.0
835.9759,540.97485,130405804,0.9875,0.08510638,122.49701,-15.470114,0.007242486,0.0015538037,-0.024217606,0.0,0.0,0.0
838.5453,540.97485,130405821,0.975,0.08510638,137.2949,0.027253222,0.007242486,0.0015538037,-0.024217606,0.0,0.0,0.0
841.51044,540.97485,130405837,0.9875,0.08510638,161.64465,0.0039014271,0.007242486,0.0015538037,-0.024217606,0.0,0.0,0.0
845.76245,540.97485,130405854,0.95,0.08510638,229.40804,-0.0039012022,0.007242486,0.0015538037,-0.024217606,0.0,0.0,0.0
848.87146,540.0863,130405871,0.95,0.09574468,250.91196,-28.84272,0.007242486,0.0015538037,-0.024217606,0.0,0.0,0.0
851.9892,539.027,130405888,0.95,0.09574468,231.7335,-55.590645,0.007242486,0.0015538037,-0.024217606,0.0,0.0,0.0
855.23846,539.1979,130405904,0.96250004,0.09574468,196.38075,-48.86575,0.007242486,0.0015538037,-0.024217606,0.0,0.0,0.0
858.3017,538.3093,130405921,0.975,0.09574468,171.43756,-47.907665,0.007242486,0.0015538037,-0.024217606,0.0,0.0,0.0
861.33673,537.4208,130405938,0.95,0.09574468,174.25508,-42.098534,-0.010205999,0.017243057,-0.0033740997,0.0,0.0,0.0
864.32043,537.0513,130405954,0.96250004,0.09574468,183.83247,-36.879967,-0.010205999,0.017243057,-0.0033740997,0.0,0.0,0.0
868.0525,535.1361,130405971,0.9375,0.08510638,200.97647,-71.059074,-0.010205999,0.017243057,-0.0033740997,0.0,0.0,0.0
871.5096,533.8668,130405988,0.9125,0.08510638,211.3825,-104.306175,-0.010205999,0.017243057,-0.0033740997,0.0,0.0,0.0
875.464,532.4136,130406005,0.9125,0.08510638,228.3142,-109.103035,-0.010205999,0.017243057,-0.0033740997,0.0,0.0,0.0
880.27313,531.2013,130406021,0.925,0.08510638,269.33734,-99.90737,-0.010205999,0.017243057,-0.0033740997,0.0,0.0,0.0
884.47034,529.52185,130406038,0.9125,0.08510638,284.7555,-78.526024,-0.010205999,0.017243057,-0.0033740997,0.0,0.0,0.0
888.6653,528.54614,130406055,0.9125,0.08510638,287.38818,-71.8362,-0.010205999,0.017243057,-0.0033740997,0.0,0.0,0.0
892.816,526.70154,130406071,0.9125,0.08510638,262.60733,-91.20417,-0.010205999,0.017243057,-0.0033740997,0.0,0.0,0.0
895.92096,526.7588,130406088,0.90000004,0.08510638,214.14143,-52.07444,-0.010205999,0.017243057,-0.0033740997,0.0,0.0,0.0
899.08655,524.744,130406105,0.9125,0.10638297,177.3744,-62.494534,-0.010205999,0.017243057,-0.0033740997,0.0,0.0,0.0
902.2185,522.8882,130406121,0.90000004,0.10638297,159.42577,-86.332405,-0.010205999,0.017243057,-0.0033740997,0.0,0.0,0.0
905.25854,521.97546,130406138,0.90000004,0.11702127,160.4056,-95.86766,-0.010205999,0.017243057,-0.0033740997,0.0,0.0,0.0
907.6461,520.1273,130406155,0.90000004,0.11702127,165.48322,-110.72178,-0.010205999,0.017243057,-0.0033740997,0.0,0.0,0.0
909.72266,518.2816,130406172,0.8875,0.12765957,131.34004,-100.05858,-0.010205999,0.017243057,-0.0033740997,0.0,0.0,0.0
912.8071,517.31714,130406188,0.8875,0.12765957,129.3939,-84.815414,-0.010205999,0.017243057,-0.0033740997,0.0,0.0,0.0
915.1841,515.50195,130406205,0.90000004,0.12765957,136.86948,-90.00297,-0.010205999,0.017243057,-0.0033740997,0.0,0.0,0.0
917.7998,513.6559,130406222,0.90000004,0.12765957,153.08786,-96.660416,-0.010205999,0.017243057,-0.0033740997,0.0,0.0,0.0
919.8954,511.90564,130406238,0.8875,0.12765957,152.7338,-108.29034,-0.010205999,0.017243057,-0.0033740997,0.0,0.0,0.0
922.6269,509.92212,130406255,0.90000004,0.12765957,141.79466,-126.921135,-0.010205999,0.017243057,-0.0033740997,0.0,0.0,0.0
924.70233,508.0775,130406272,0.8875,0.12765957,134.50491,-123.1882,-0.010205999,0.017243057,-0.0033740997,0.0,0.0,0.0
927.2938,506.2185,130406289,0.8875,0.12765957,141.22208,-114.00292,-0.010205999,0.017243057,-0.0033740997,0.0,0.0,0.0
929.27704,505.34424,130406305,0.9125,0.12765957,133.09686,-81.885994,-0.010205999,0.017243057,-0.0033740997,0.0,0.0,0.0
932.0964,503.40784,130406322,0.9125,0.09574468,139.12166,-79.11994,-0.010205999,0.017243057,-0.0033740997,0.0,0.0,0.0
934.0006,502.47876,130406339,0.9125,0.09574468,134.54576,-63.61849,-0.010205999,0.017243057,-0.0033740997,0.0,0.0,0.0
936.1012,501.50037,130406355,0.925,0.09574468,129.78986,-60.157906,-0.010205999,0.017243057,-0.0033740997,0.0,0.0,0.0
938.1787,500.10364,130406372,0.9125,0.09574468,125.761116,-74.135574,-0.010205999,0.017243057,-0.0033740997,0.0,0.0,0.0
940.2554,498.69666,130406389,0.90000004,0.08510638,116.3897,-65.831985,-0.010205999,0.017243057,-0.0033740997,0.0,0.0,0.0
942.2455,496.92786,130406406,0.8875,0.08510638,115.44788,-96.91306,-0.010205999,0.017243057,-0.0033740997,0.0,0.0,0.0
944.0817,495.29578,130406422,0.8875,0.08510638,109.29168,-104.33425,-0.010205999,0.017243057,-0.0033740997,0.0,0.0,0.0
946.05865,493.19324,130406439,0.8875,0.08510638,112.746956,-125.58983,-0.010205999,0.017243057,-0.0033740997,0.0,0.0,0.0
948.05524,491.31995,130406456,0.90000004,0.08510638,109.891594,-128.81456,-0.010205999,0.017243057,-0.0033740997,0.0,0.0,0.0
949.6573,490.3302,130406472,0.8875,0.08510638,110.07171,-103.48078,-0.008164793,-0.0022055805,0.02930069,0.0,0.0,0.0
951.19794,489.3888,130406489,0.8875,0.08510638,96.0171,-55.346703,-0.008164793,-0.0022055805,0.02930069,0.0,0.0,0.0
952.76807,487.57556,130406506,0.9125,0.08510638,83.09466,-57.759193,-0.008164793,-0.0022055805,0.02930069,0.0,0.0,0.0
953.7782,486.77612,130406523,0.8875,0.07446808,69.34532,-64.39829,-0.008164793,-0.0022055805,0.02930069,0.0,0.0,0.0
955.49023,484.7118,130406539,0.90000004,0.08510638,67.33385,-90.86779,-0.008164793,-0.0022055805,0.02930069,0.0,0.0,0.0
956.3528,482.8911,130406556,0.90000004,0.07446808,69.89385,-116.79392,-0.008164793,-0.0022055805,0.02930069,0.0,0.0,0.0
957.39514,481.44507,130406573,0.9125,0.08510638,64.72211,-107.92077,-0.008164793,-0.0022055805,0.02930069,0.0,0.0,0.0
958.4387,480.9602,130406589,0.9125,0.08510638,56.08006,-70.0128,-0.008164793,-0.0022055805,0.02930069,0.0,0.0,0.0
959.4415,479.6681,130406606,0.8875,0.08510638,51.336536,-46.99342,-0.008164793,-0.0022055805,0.02930069,0.0,0.0,0.0
960.4973,479.07788,130406623,0.8875,0.09574468,55.50532,-19.30766,-0.008164793,-0.0022055805,0.02930069,0.0,0.0,0.0
961.53125,478.12854,130406639,0.9125,0.09574468,60.404095,-31.134693,-0.008164793,-0.0022055805,0.02930069,0.0,0.0,0.0
962.1328,477.0592,130406656,0.90000004,0.09574468,52.682068,-58.393246,-0.008164793,-0.0022055805,0.02930069,0.0,0.0,0.0
963.1395,475.26953,130406673,0.9125,0.09574468,45.32687,-80.17185,-0.008164793,-0.0022055805,0.02930069,0.0,0.0,0.0
963.91406,475.2256,130406685,0.9125,0.09574468,48.938446,-80.21953,-0.008164793,-0.0022055805,0.02930069,0.0,0.0,0.0
964.16394,475.2256,130406706,0.90000004,0.09574468,32.74069,-34.950718,-0.008164793,-0.0022055805,0.02930069,0.0,0.0,0.0
965.27686,473.24756,130406723,0.875,0.09574468,35.76346,-28.478867,-0.008164793,-0.0022055805,0.02930069,0.0,0.0,0.0
965.9133,473.4486,130406735,0.9125,0.09574468,42.354755,-18.462166,-0.008164793,-0.0022055805,0.02930069,0.0,0.0,0.0
966.3633,472.56006,130406756,0.90000004,0.09574468,26.319366,-33.986786,-0.008164793,-0.0022055805,0.02930069,0.0,0.0,0.0
967.36194,471.67163,130406773,0.90000004,0.09574468,43.914993,-46.888218,-0.008164793,-0.0022055805,0.02930069,0.0,0.0,0.0
967.9133,470.3379,130406790,0.8875,0.09574468,43.2005,-50.404163,-0.008164793,-0.0022055805,0.02930069,0.0,0.0,0.0
968.6913,469.89453,130406807,0.90000004,0.09574468,48.041214,-65.032616,-0.008164793,-0.0022055805,0.02930069,0.0,0.0,0.0
969.9037,468.5769,130406823,0.8875,0.11702127,64.19975,-64.30916,-0.008164793,-0.0022055805,0.02930069,0.0,0.0,0.0
970.4492,468.49548,130406840,0.8875,0.11702127,44.158997,-33.93013,-0.008164793,-0.0022055805,0.02930069,0.0,0.0,0.0
971.5134,467.22913,130406857,0.8875,0.11702127,53.99843,-40.1793,-0.008164793,-0.0022055805,0.02930069,0.0,0.0,0.0
972.4114,465.89624,130406870,0.875,0.11702127,63.941166,-64.57627,-0.008164793,-0.0022055805,0.02930069,0.0,0.0,0.0
972.65515,464.57446,130406890,0.875,0.11702127,34.25494,-92.97719,-0.008164793,-0.0022055805,0.02930069,0.0,0.0,0.0
973.6941,462.72754,130406907,0.875,0.12765957,40.433086,-108.18966,-0.008164793,-0.0022055805,0.02930069,0.0,0.0,0.0
974.7405,460.8673,130406924,0.875,0.12765957,50.969967,-113.82887,-0.008164793,-0.0022055805,0.02930069,0.0,0.0,0.0
975.71216,459.14026,130406940,0.8625,0.12765957,66.11474,-124.03219,-0.008164793,-0.0022055805,0.02930069,0.0,0.0,0.0
976.8347,457.14502,130406957,0.8625,0.12765957,77.81014,-123.94726,-0.008164793,-0.0022055805,0.02930069,0.0,0.0,0.0
978.34595,455.34705,130406974,0.8625,0.12765957,80.78236,-111.80101,-0.008164793,-0.0022055805,0.02930069,0.0,0.0,0.0
979.379,453.5105,130406990,0.8625,0.11702127,81.56124,-113.33644,-0.008164793,-0.0022055805,0.02930069,0.0,0.0,0.0
980.62964,450.39917,130407007,0.85,0.10638297,73.588806,-143.59587,-0.0065318346,0.030235559,0.0074415207,0.0,0.0,0.0
982.1134,446.87305,130407024,0.85,0.08510638,75.94475,-201.9175,-0.0065318346,0.030235559,0.0074415207,0.0,0.0,0.0
983.4713,443.01318,130407041,0.83750004,0.07446808,84.088684,-255.96857,-0.0065318346,0.030235559,0.0074415207,0.0,0.0,0.0
984.4878,439.39966,130407057,0.83750004,0.07446808,82.53265,-268.86453,-0.0065318346,0.030235559,0.0074415207,0.0,0.0,0.0
986.527,435.47327,130407074,0.83750004,0.07446808,88.07907,-255.82936,-0.0065318346,0.030235559,0.0074415207,0.0,0.0,0.0
988.05994,432.7484,130407091,0.83750004,0.07446808,92.49485,-192.2771,-0.0065318346,0.030235559,0.0074415207,0.0,0.0,0.0
989.718,428.9126,130407107,0.8125,0.06382979,105.91646,-188.95956,-0.0065318346,0.030235559,0.0074415207,0.0,0.0,0.0
991.2578,425.28674,130407124,0.8,0.08510638,110.69891,-210.62987,-0.0065318346,0.030235559,0.0074415207,0.0,0.0,0.0
993.37036,420.4513,130407141,0.825,0.10638297,115.34049,-256.38895,-0.0065318346,0.030235559,0.0074415207,0.0,0.0,0.0
995.4115,415.89746,130407158,0.83750004,0.10638297,128.3462,-302.90924,-0.0065318346,0.030235559,0.0074415207,0.0,0.0,0.0
997.89795,410.60034,130407174,0.83750004,0.12765957,150.04962,-336.04803,-0.0065318346,0.030235559,0.0074415207,0.0,0.0,0.0
1000.05676,405.02405,130407191,0.8125,0.10638297,150.81633,-351.21088,-0.0065318346,0.030235559,0.0074415207,0.0,0.0,0.0
1003.2461,396.70007,130407208,0.825,0.08510638,173.1655,-447.94046,-0.0065318346,0.030235559,0.0074415207,0.0,0.0,0.0
1005.54114,390.78076,130407224,0.825,0.07446808,165.18495,-447.26022,-0.0065318346,0.030235559,0.0074415207,0.0,0.0,0.0
1007.84875,384.07214,130407241,0.8125,0.07446808,154.12947,-427.60913,-0.0065318346,0.030235559,0.0074415207,0.0,0.0,0.0
1009.7582,377.1029,130407258,0.8125,0.07446808,117.67103,-402.6946,-0.0065318346,0.030235559,0.0074415207,0.0,0.0,0.0
1011.9606,368.5509,130407274,0.8,0.08510638,103.27325,-430.13443,-0.0065318346,0.030235559,0.0074415207,0.0,0.0,0.0
1014.05457,357.63428,130407291,0.825,0.12765957,118.19763,-582.69135,-0.0065318346,0.030235559,0.0074415207,0.0,0.0,0.0
1015.6378,348.21167,130407308,0.8125,0.10638297,105.76651,-683.80444,-0.0065318346,0.030235559,0.0074415207,0.0,0.0,0.0
1016.6376,341.1272,130407325,0.8125,0.09574468,89.405174,-638.73553,-0.0065318346,0.030235559,0.0074415207,0.0,0.0,0.0
1018.2178,332.55762,130407341,0.825,0.08510638,64.59008,-513.047,-0.0065318346,0.030235559,0.0074415207,0.0,0.0,0.0
1018.14636,326.01038,130407358,0.8,0.08510638,24.337101,-385.02838,-0.0065318346,0.030235559,0.0074415207,0.0,0.0,0.0
1019.3208,319.38416,130407375,0.8,0.09574468,17.793081,-330.23114,-0.0065318346,0.030235559,0.0074415207,0.0,0.0,0.0
1020.3367,310.594,130407391,0.8125,0.12765957,32.74614,-412.14688,-0.0065318346,0.030235559,0.0074415207,0.0,0.0,0.0
1020.6456,300.84473,130407408,0.8,0.12765957,40.456627,-550.6129,-0.0065318346,0.030235559,0.0074415207,0.0,0.0,0.0
1020.6456,292.97266,130407425,0.8,0.11702127,24.654444,-607.97614,-0.0065318346,0.030235559,0.0074415207,0.0,0.0,0.0
1020.34424,285.60852,130407442,0.8125,0.09574468,-23.326794,-518.5465,-0.0065318346,0.030235559,0.0074415207,0.0,0.0,0.0
1019.3065,279.72156,130407458,0.8,0.08510638,-67.844124,-370.12717,-0.0065318346,0.030235559,0.0074415207,0.0,0.0,0.0
1017.3655,272.53613,130407475,0.8,0.07446808,-111.97219,-313.543,-0.0065318346,0.030235559,0.0074415207,0.0,0.0,0.0
1015.2854,266.0298,130407492,0.7875,0.07446808,-152.42877,-348.0291,-0.0065318346,0.030235559,0.0074415207,0.0,0.0,0.0
1012.27454,256.93433,130407508,0.7875,0.10638297,-187.89578,-441.1628,-0.0065318346,0.030235559,0.0074415207,0.0,0.0,0.0
1007.59094,247.66418,130407525,0.8,0.12765957,-261.6086,-564.24536,-0.0065318346,0.030235559,0.0074415207,0.0,0.0,0.0
1002.39,240.28894,130407542,0.8125,0.10638297,-339.57593,-568.88275,-0.029225469,-0.023811549,-0.010046959,0.0,0.0,0.0
994.91675,233.78625,130407559,0.8125,0.08510638,-441.36752,-472.57584,-0.029225469,-0.023811549,-0.010046959,0.0,0.0,0.0
986.7438,226.52197,130407575,0.825,0.09574468,-539.1093,-394.77167,-0.029225469,-0.023811549,-0.010046959,0.0,0.0,0.0
977.5946,220.48279,130407592,0.85,0.08510638,-602.64417,-339.29105,-0.029225469,-0.023811549,-0.010046959,0.0,0.0,0.0
968.03845,215.1167,130407609,0.875,0.07446808,-643.24133,-318.15692,-0.029225469,-0.023811549,-0.010046959,0.0,0.0,0.0
957.8523,210.10657,130407625,0.8625,0.08510638,-653.0744,-289.24158,-0.029225469,-0.023811549,-0.010046959,0.0,0.0,0.0
947.52954,205.95935,130407642,0.8625,0.08510638,-649.1989,-227.24759,-0.029225469,-0.023811549,-0.010046959,0.0,0.0,0.0
937.74097,203.71118,130407659,0.8625,0.08510638,-624.7909,-153.90207,-0.029225469,-0.023811549,-0.010046959,0.0,0.0,0.0
928.53064,202.45508,130407676,0.875,0.09574468,-575.1168,-61.83407,-0.029225469,-0.023811549,-0.010046959,0.0,0.0,0.0
919.2104,202.45508,130407692,0.8875,0.09574468,-536.9049,46.214542,-0.029225469,-0.023811549,-0.010046959,0.0,0.0,0.0
910.23413,203.22083,130407709,0.8875,0.08510638,-518.2932,98.241905,-0.029225469,-0.023811549,-0.010046959,0.0,0.0,0.0
901.7437,204.23206,130407726,0.95,0.08510638,-518.2045,135.58302,-0.029225469,-0.023811549,-0.010046959,0.0,0.0,0.0
894.5102,206.0614,130407742,0.95,0.08510638,-470.81897,141.5209,-0.029225469,-0.023811549,-0.010046959,0.0,0.0,0.0
888.76605,208.9248,130407759,0.9375,0.08510638,-370.51776,171.43898,-0.029225469,-0.023811549,-0.010046959,0.0,0.0,0.0
883.6537,211.72144,130407776,0.9375,0.08510638,-274.62125,201.02638,-0.029225469,-0.023811549,-0.010046959,0.0,0.0,0.0
878.5263,215.36719,130407792,0.9375,0.09574468,-229.62096,239.78687,-0.029225469,-0.023811549,-0.010046959,0.0,0.0,0.0
873.39606,219.01501,130407809,0.95,0.11702127,-243.20148,263.9513,-0.029225469,-0.023811549,-0.010046959,0.0,0.0,0.0
868.07733,222.79688,130407826,0.925,0.11702127,-296.39294,254.18608,-0.029225469,-0.023811549,-0.010046959,0.0,0.0,0.0
863.1155,226.51697,130407843,0.95,0.12765957,-305.2355,240.60506,-0.029225469,-0.023811549,-0.010046959,0.0,0.0,0.0
858.5148,230.16187,130407859,0.95,0.12765957,-288.87222,221.95743,-0.029225469,-0.023811549,-0.010046959,0.0,0.0,0.0
854.3246,234.33032,130407876,0.975,0.12765957,-250.82805,229.97852,-0.029225469,-0.023811549,-0.010046959,0.0,0.0,0.0
849.3246,241.33032,130407893,0.96250004,0.09574468,-239.32826,298.24353,-0.029225469,-0.023811549,-0.010046959,0.0,0.0,0.0
845.10986,247.2262,130407909,0.975,0.09574468,-254.85835,410.6822,-0.029225469,-0.023811549,-0.010046959,0.0,0.0,0.0
840.3026,255.6488,130407926,0.9875,0.08510638,-285.21292,534.2227,-0.029225469,-0.023811549,-0.010046959,0.0,0.0,0.0
834.1654,267.40295,130407943,0.9875,0.08510638,-330.4509,663.44476,-0.029225469,-0.023811549,-0.010046959,0.0,0.0,0.0
830.80164,273.36792,130407960,0.96250004,0.10638297,-308.29034,635.5392,-0.029225469,-0.023811549,-0.010046959,0.0,0.0,0.0
827.4248,279.37036,130407976,0.975,0.12765957,-227.51521,454.30878,-0.029225469,-0.023811549,-0.010046959,0.0,0.0,0.0
824.2597,284.9967,130407993,0.96250004,0.12765957,-165.03958,316.31595,-0.029225469,-0.023811549,-0.010046959,0.0,0.0,0.0
820.06805,293.62195,130408010,0.96250004,0.10638297,-160.82626,305.48337,-0.029225469,-0.023811549,-0.010046959,0.0,0.0,0.0
815.8809,302.55627,130408026,0.96250004,0.09574468,-214.60918,452.64722,-0.029225469,-0.023811549,-0.010046959,0.0,0.0,0.0
811.7437,312.54907,130408043,0.96250004,0.09574468,-276.6725,642.9586,-0.029225469,-0.023811549,-0.010046959,0.0,0.0,0.0
807.36127,323.03162,130408060,0.95,0.09574468,-275.6709,700.7812,0.016619623,-0.019049227,-0.008037567,0.0,0.0,0.0
802.2359,331.6162,130408077,0.96250004,0.11702127,-285.2044,635.59686,0.016619623,-0.019049227,-0.008037567,0.0,0.0,0.0
797.1096,339.47778,130408093,0.96250004,0.12765957,-311.20984,508.64386,0.016619623,-0.019049227,-0.008037567,0.0,0.0,0.0
792.17725,345.90503,130408110,0.95,0.10638297,-330.00446,408.63693,0.016619623,-0.019049227,-0.008037567,0.0,0.0,0.0
785.6059,353.90198,130408127,0.95,0.09574468,-356.67795,339.5444,0.016619623,-0.019049227,-0.008037567,0.0,0.0,0.0
778.3737,363.08472,130408143,0.9375,0.08510638,-417.17398,439.96603,0.016619623,-0.019049227,-0.008037567,0.0,0.0,0.0
770.52356,373.30603,130408160,0.96250004,0.09574468,-493.09467,588.34216,0.016619623,-0.019049227,-0.008037567,0.0,0.0,0.0
763.7475,382.5442,130408177,0.96250004,0.11702127,-495.32217,640.42615,0.016619623,-0.019049227,-0.008037567,0.0,0.0,0.0
757.7152,389.7743,130408194,0.95,0.12765957,-433.17944,573.02045,0.016619623,-0.019049227,-0.008037567,0.0,0.0,0.0
752.518,397.16504,130408210,0.96250004,0.12765957,-333.0152,442.46088,0.016619623,-0.019049227,-0.008037567,0.0,0.0,0.0
747.5278,403.31018,130408227,0.96250004,0.10638297,-270.42783,353.3928,0.016619623,-0.019049227,-0.008037567,0.0,0.0,0.0
741.1074,414.54968,130408244,0.975,0.08510638,-283.17233,427.3798,0.016619623,-0.019049227,-0.008037567,0.0,0.0,0.0
736.499,425.43066,130408260,0.96250004,0.08510638,-313.37692,648.516,0.016619623,-0.019049227,-0.008037567,0.0,0.0,0.0
733.22253,434.8357,130408277,0.975,0.08510638,-252.12404,717.046,0.016619623,-0.019049227,-0.008037567,0.0,0.0,0.0
730.6402,441.81702,130408294,0.975,0.09574468,-157.03033,599.8801,0.016619623,-0.019049227,-0.008037567,0.0,0.0,0.0
729.40234,447.70728,130408311,0.975,0.10638297,-44.221146,366.54465,0.016619623,-0.019049227,-0.008037567,0.0,0.0,0.0
729.2405,452.43945,130408327,0.9875,0.10638297,34.456184,180.11635,0.016619623,-0.019049227,-0.008037567,0.0,0.0,0.0
729.7037,456.4369,130408344,0.9875,0.10638297,72.67752,154.7928,0.016619623,-0.019049227,-0.008037567,0.0,0.0,0.0
731.2494,460.13818,130408361,1.0125,0.10638297,126.891754,161.76906,0.016619623,-0.019049227,-0.008037567,0.0,0.0,0.0
732.78534,462.8683,130408377,1.0125,0.10638297,149.31042,150.8741,0.016619623,-0.019049227,-0.008037567,0.0,0.0,0.0
733.82477,464.71606,130408394,1.025,0.08510638,131.60483,103.65154,0.016619623,-0.019049227,-0.008037567,0.0,0.0,0.0
736.7102,467.43884,130408411,1.0375,0.09574468,140.194,89.48999,0.016619623,-0.019049227,-0.008037567,0.0,0.0,0.0
740.2166,468.99707,130408427,1.0375,0.09574468,186.72368,84.69649,0.016619623,-0.019049227,-0.008037567,0.0,0.0,0.0
744.53937,471.14026,130408444,1.0,0.09574468,259.239,91.40774,0.016619623,-0.019049227,-0.008037567,0.0,0.0,0.0
748.37305,472.84387,130408461,0.975,0.09574468,308.5624,109.33435,0.016619623,-0.019049227,-0.008037567,0.0,0.0,0.0
753.38086,474.67712,130408478,0.925,0.09574468,301.59125,96.94068,0.016619623,-0.019049227,-0.008037567,0.0,0.0,0.0
759.18097,476.62952,130408494,0.925,0.08510638,338.5587,106.14928,0.016619623,-0.019049227,-0.008037567,0.0,0.0,0.0
763.95807,478.5056,130408511,0.925,0.08510638,347.9278,112.32268,0.016619623,-0.019049227,-0.008037567,0.0,0.0,0.0
769.552,480.35657,130408528,0.9375,0.08510638,336.14194,110.16141,0.016619623,-0.019049227,-0.008037567,0.0,0.0,0.0
775.4178,480.55664,130408544,0.9375,0.08510638,346.82626,73.86749,0.016619623,-0.019049227,-0.008037567,0.0,0.0,0.0
782.6184,479.6947,130408561,0.925,0.08510638,390.35147,-14.241806,0.016619623,-0.019049227,-0.008037567,0.0,0.0,0.0
789.3428,477.85498,130408578,0.9125,0.08510638,452.953,-125.43323,0.016619623,-0.019049227,-0.008037567,0.0,0.0,0.0
795.624,474.09705,130408595,0.8625,0.11702127,438.84613,-237.01344,-0.0027042925,7.6058507E-4,-0.0064296722,0.0,0.0,0.0
803.55457,469.33594,130408611,0.85,0.11702127,439.8055,-324.44125,-0.0027042925,7.6058507E-4,-0.0064296722,0.0,0.0,0.0
810.88586,463.52222,130408628,0.85,0.12765957,456.10513,-396.92975,-0.0027042925,7.6058507E-4,-0.0064296722,0.0,0.0,0.0
820.6486,456.17798,130408645,0.85,0.09574468,531.3345,-475.45877,-0.0027042925,7.6058507E-4,-0.0064296722,0.0,0.0,0.0
829.96014,447.90198,130408661,0.8625,0.08510638,605.2088,-542.42554,-0.0027042925,7.6058507E-4,-0.0064296722,0.0,0.0,0.0
838.2037,439.24268,130408678,0.825,0.06382979,573.35126,-580.1518,-0.0027042925,7.6058507E-4,-0.0064296722,0.0,0.0,0.0
846.44495,430.3634,130408695,0.825,0.07446808,520.5246,-593.9864,-0.0027042925,7.6058507E-4,-0.0064296722,0.0,0.0,0.0
855.28217,422.46606,130408712,0.83750004,0.09574468,489.50473,-546.4956,-0.0027042925,7.6058507E-4,-0.0064296722,0.0,0.0,0.0
863.92365,415.04993,130408728,0.825,0.12765957,498.673,-471.0682,-0.0027042925,7.6058507E-4,-0.0064296722,0.0,0.0,0.0
872.3902,408.23486,130408745,0.85,0.12765957,506.5771,-403.822,-0.0027042925,7.6058507E-4,-0.0064296722,0.0,0.0,0.0
879.9715,403.36853,130408762,0.83750004,0.10638297,500.0474,-324.5061,-0.0027042925,7.6058507E-4,-0.0064296722,0.0,0.0,0.0
885.7042,400.58264,130408778,0.8625,0.10638297,398.3258,-189.66016,-0.0027042925,7.6058507E-4,-0.0064296722,0.0,0.0,0.0
889.8797,398.72925,130408795,0.8625,0.10638297,266.6873,-63.795887,-0.0027042925,7.6058507E-4,-0.0064296722,0.0,0.0,0.0
894.0364,396.88208,130408812,0.875,0.09574468,177.05807,-3.4090595,-0.0027042925,7.6058507E-4,-0.0064296722,0.0,0.0,0.0
897.0267,395.9469,130408829,0.8625,0.10638297,124.74382,3.7001028,-0.0027042925,7.6058507E-4,-0.0064296722,0.0,0.0,0.0
899.4861,395.26025,130408845,0.8625,0.10638297,108.218575,-8.820547,-0.0027042925,7.6058507E-4,-0.0064296722,0.0,0.0,0.0
901.5842,395.26025,130408862,0.875,0.10638297,89.83167,14.376434,-0.0027042925,7.6058507E-4,-0.0064296722,0.0,0.0,0.0
903.6513,395.26025,130408879,0.875,0.11702127,78.575096,37.821594,-0.0027042925,7.6058507E-4,-0.0064296722,0.0,0.0,0.0
905.7166,395.26025,130408895,0.875,0.11702127,91.04671,33.721516,-0.0027042925,7.6058507E-4,-0.0064296722,0.0,0.0,0.0
907.43396,395.26025,130408912,0.875,0.11702127,98.295235,14.835279,-0.0027042925,7.6058507E-4,-0.0064296722,0.0,0.0,0.0
909.8057,395.26025,130408929,0.8875,0.11702127,118.21531,0.028170703,-0.0027042925,7.6058507E-4,-0.0064296722,0.0,0.0,0.0
911.03784,395.26025,130408946,0.8875,0.11702127,103.15361,0.033485632,-0.0027042925,7.6058507E-4,-0.0064296722,0.0,0.0,0.0
912.1181,395.26025,130408962,0.9125,0.11702127,72.46571,0.005011054,-0.0027042925,7.6058507E-4,-0.0064296722,0.0,0.0,0.0
913.16516,395.26025,130408979,0.9125,0.11702127,45.594364,0.008663144,-0.0027042925,7.6058507E-4,-0.0064296722,0.0,0.0,0.0
914.20593,395.26025,130408996,0.925,0.11702127,37.91607,0.0017742988,-0.0027042925,7.6058507E-4,-0.0064296722,0.0,0.0,0.0
914.7444,395.26025,130409012,0.90000004,0.12765957,34.02761,-0.019284416,-0.0027042925,7.6058507E-4,-0.0064296722,0.0,0.0,0.0
915.17993,395.26025,130409029,0.925,0.12765957,29.820862,0.009458351,-0.0027042925,7.6058507E-4,-0.0064296722,0.0,0.0,0.0
916.32764,395.26025,130409046,0.925,0.12765957,34.239452,-0.0054197167,-0.0027042925,7.6058507E-4,-0.0064296722,0.0,0.0,0.0
917.1679,395.26025,130409062,0.9125,0.12765957,45.138718,-0.0083375415,-0.0027042925,7.6058507E-4,-0.0064296722,0.0,0.0,0.0
918.30194,395.26025,130409079,0.925,0.12765957,69.75585,-0.003262431,-0.0027042925,7.6058507E-4,-0.0064296722,0.0,0.0,0.0
919.339,395.26025,130409096,0.9375,0.12765957,70.50479,0.023677927,-0.0027042925,7.6058507E-4,-0.0064296722,0.0,0.0,0.0
920.285,395.26025,130409113,0.9375,0.12765957,64.26026,0.026413543,-0.0027042925,7.6058507E-4,-0.0064296722,0.0,0.0,0.0
921.45245,395.26025,130409129,0.95,0.12765957,63.251476,0.038096603,-0.026163429,0.03260848,0.010856628,0.0,0.0,0.0
922.82983,395.83997,130409146,0.9375,0.12765957,67.56192,9.654428,-0.026163429,0.03260848,0.010856628,0.0,0.0,0.0
924.0558,396.1488,130409163,0.96250004,0.12765957,81.77665,31.747276,-0.026163429,0.03260848,0.010856628,0.0,0.0,0.0
925.1344,396.1488,130409179,0.95,0.12765957,81.68553,27.823715,-0.026163429,0.03260848,0.010856628,0.0,0.0,0.0
925.9264,396.1488,130409192,0.95,0.12765957,72.879715,14.91314,-0.026163429,0.03260848,0.010856628,0.0,0.0,0.0
926.7189,396.1488,130409213,0.96250004,0.12765957,42.279453,-8.782705,-0.026163429,0.03260848,0.010856628,0.0,0.0,0.0
927.25946,396.1488,130409230,0.95,0.12765957,22.94427,-13.31329,-0.026163429,0.03260848,0.010856628,0.0,0.0,0.0
927.7177,397.11182,130409246,0.96250004,0.12765957,21.927496,27.593136,-0.026163429,0.03260848,0.010856628,0.0,0.0,0.0
928.251,397.03735,130409263,0.975,0.12765957,20.211712,31.355068,-0.026163429,0.03260848,0.010856628,0.0,0.0,0.0
928.9254,397.03735,130409274,0.96250004,0.12765957,33.205067,25.69049,-0.026163429,0.03260848,0.010856628,0.0,0.0,0.0
929.3998,397.92578,130409296,0.96250004,0.12765957,32.988186,27.034796,-0.026163429,0.03260848,0.010856628,0.0,0.0,0.0
930.3741,397.92578,130409313,0.95,0.12765957,42.64591,13.267422,-0.026163429,0.03260848,0.010856628,0.0,0.0,0.0
931.4408,397.92578,130409330,0.96250004,0.12765957,61.35249,9.164058,-0.026163429,0.03260848,0.010856628,0.0,0.0,0.0
931.9782,397.92578,130409347,0.96250004,0.12765957,53.545994,-8.614871,-0.026163429,0.03260848,0.010856628,0.0,0.0,0.0
933.02856,397.92578,130409363,0.96250004,0.12765957,58.591736,-15.026992,-0.026163429,0.03260848,0.010856628,0.0,0.0,0.0
934.11536,397.92578,130409380,0.95,0.10638297,55.380226,0.008688906,-0.026163429,0.03260848,0.010856628,0.0,0.0,0.0
935.5607,398.81433,130409397,0.95,0.10638297,73.35257,26.392525,-0.026163429,0.03260848,0.010856628,0.0,0.0,0.0
937.19617,399.70276,130409413,0.9375,0.10638297,105.76403,59.421352,-0.026163429,0.03260848,0.010856628,0.0,0.0,0.0
939.3028,399.70276,130409430,0.9375,0.10638297,127.83614,47.041046,-0.026163429,0.03260848,0.010856628,0.0,0.0,0.0
941.8883,400.5913,130409447,0.9375,0.10638297,156.11815,42.928753,-0.026163429,0.03260848,0.010856628,0.0,0.0,0.0
944.4227,400.5913,130409464,0.925,0.10638297,165.95088,13.853034,-0.026163429,0.03260848,0.010856628,0.0,0.0,0.0
946.6063,400.5913,130409480,0.9125,0.10638297,165.34596,-6.144154,-0.026163429,0.03260848,0.010856628,0.0,0.0,0.0
950.2168,400.5913,130409497,0.925,0.12765957,190.10677,-10.7729025,-0.026163429,0.03260848,0.010856628,0.0,0.0,0.0
953.3809,400.5913,130409514,0.90000004,0.12765957,210.63197,-16.225462,-0.026163429,0.03260848,0.010856628,0.0,0.0,0.0
957.29236,400.5913,130409530,0.875,0.12765957,238.58328,0.03082142,-0.026163429,0.03260848,0.010856628,0.0,0.0,0.0
961.13513,400.5913,130409547,0.875,0.12765957,249.2332,0.023101106,-0.026163429,0.03260848,0.010856628,0.0,0.0,0.0
965.00586,400.5913,130409564,0.90000004,0.12765957,241.07953,0.030182794,-0.026163429,0.03260848,0.010856628,0.0,0.0,0.0
969.292,400.5913,130409581,0.8875,0.12765957,257.12396,-0.031008778,-0.026163429,0.03260848,0.010856628,0.0,0.0,0.0
973.5121,400.5913,130409597,0.9125,0.12765957,265.20917,5.0908665E-4,-0.026163429,0.03260848,0.010856628,0.0,0.0,0.0
977.6522,400.5913,130409614,0.8875,0.12765957,261.2042,0.027198937,-0.026163429,0.03260848,0.010856628,0.0,0.0,0.0
981.82227,400.5913,130409631,0.875,0.10638297,258.26428,0.001079164,-0.026163429,0.03260848,0.010856628,0.0,0.0,0.0
986.00073,400.5913,130409647,0.875,0.10638297,247.92282,0.013724771,-0.026163429,0.03260848,0.010856628,0.0,0.0,0.0
990.7189,400.5913,130409664,0.875,0.10638297,265.77124,-0.015840242,0.0030692667,-0.005913228,-0.007314682,0.0,0.0,0.0
996.8617,400.5913,130409681,0.875,0.10638297,313.72137,-0.0024667422,0.0030692667,-0.005913228,-0.007314682,0.0,0.0,0.0
1001.4619,401.83972,130409697,0.8875,0.10638297,341.79443,27.672884,0.0030692667,-0.005913228,-0.007314682,0.0,0.0,0.0
1006.2999,403.25684,130409714,0.8625,0.12765957,331.16113,93.274666,0.0030692667,-0.005913228,-0.007314682,0.0,0.0,0.0
1012.0597,404.64697,130409731,0.8625,0.12765957,324.52704,118.475235,0.0030692667,-0.005913228,-0.007314682,0.0,0.0,0.0
1016.746,406.4906,130409748,0.85,0.12765957,304.72345,132.89316,0.0030692667,-0.005913228,-0.007314682,0.0,0.0,0.0
1022.7705,408.32886,130409764,0.83750004,0.11702127,322.07077,125.49118,0.0030692667,-0.005913228,-0.007314682,0.0,0.0,0.0
1029.5254,410.182,130409781,0.85,0.10638297,379.01596,119.48829,0.0030692667,-0.005913228,-0.007314682,0.0,0.0,0.0
1036.1198,411.98767,130409798,0.85,0.10638297,420.2189,124.98163,0.0030692667,-0.005913228,-0.007314682,0.0,0.0,0.0
1043.3933,413.8567,130409814,0.8625,0.09574468,454.2919,109.16303,0.0030692667,-0.005913228,-0.007314682,0.0,0.0,0.0
1049.7018,415.71533,130409831,0.8625,0.08510638,434.92328,110.95099,0.0030692667,-0.005913228,-0.007314682,0.0,0.0,0.0
1056.0092,418.5835,130409848,0.875,0.08510638,390.07056,135.75067,0.0030692667,-0.005913228,-0.007314682,0.0,0.0,0.0
1061.0848,422.23694,130409865,0.875,0.08510638,333.69196,196.96634,0.0030692667,-0.005913228,-0.007314682,0.0,0.0,0.0
1064.5958,426.01965,130409881,0.875,0.08510638,241.94962,249.50584,0.0030692667,-0.005913228,-0.007314682,0.0,0.0,0.0
1066.6716,429.98486,130409898,0.8875,0.08510638,124.13062,274.60117,0.0030692667,-0.005913228,-0.007314682,0.0,0.0,0.0
1070.5114,437.69873,130409915,0.85,0.10638297,103.5491,378.9652,0.0030692667,-0.005913228,-0.007314682,0.0,0.0,0.0
1073.257,442.65527,130409931,0.85,0.12765957,132.99281,413.38385,0.0030692667,-0.005913228,-0.007314682,0.0,0.0,0.0
1076.1208,451.65076,130409948,0.875,0.12765957,171.99367,504.54453,0.0030692667,-0.005913228,-0.007314682,0.0,0.0,0.0
1078.184,460.8186,130409965,0.8875,0.11702127,150.07777,571.67737,0.0030692667,-0.005913228,-0.007314682,0.0,0.0,0.0
1079.5061,469.71387,130409982,0.9125,0.09574468,79.48315,598.2038,0.0030692667,-0.005913228,-0.007314682,0.0,0.0,0.0
1080.1262,478.1781,130409998,0.90000004,0.09574468,27.402676,602.66907,0.0030692667,-0.005913228,-0.007314682,0.0,0.0,0.0
1080.6261,486.4873,130410015,0.9125,0.09574468,-8.906192,536.58527,0.0030692667,-0.005913228,-0.007314682,0.0,0.0,0.0
1080.6261,492.995,130410032,0.9125,0.09574468,-23.456514,451.2441,0.0030692667,-0.005913228,-0.007314682,0.0,0.0,0.0
1080.6261,498.56396,130410048,0.90000004,0.12765957,-30.706244,336.66083,0.0030692667,-0.005913228,-0.007314682,0.0,0.0,0.0
1080.0692,504.95166,130410065,0.9125,0.12765957,-34.834286,296.57346,0.0030692667,-0.005913228,-0.007314682,0.0,0.0,0.0
1078.9233,511.48828,130410082,0.90000004,0.11702127,-62.637707,319.03363,0.0030692667,-0.005913228,-0.007314682,0.0,0.0,0.0
1076.7645,517.9524,130410099,0.9375,0.09574468,-115.81293,369.14474,0.0030692667,-0.005913228,-0.007314682,0.0,0.0,0.0
1074.5226,522.50354,130410115,0.95,0.08510638,-160.88536,347.14334,0.0030692667,-0.005913228,-0.007314682,0.0,0.0,0.0
1071.9197,527.1306,130410132,0.95,0.08510638,-191.0344,267.98077,0.0030692667,-0.005913228,-0.007314682,0.0,0.0,0.0
1069.2823,530.9303,130410149,0.95,0.08510638,-188.72783,200.75644,0.0030692667,-0.005913228,-0.007314682,0.0,0.0,0.0
1065.5232,536.15247,130410165,0.95,0.08510638,-201.37938,216.96121,0.0030692667,-0.005913228,-0.007314682,0.0,0.0,0.0
1061.5449,540.73047,130410182,0.9375,0.08510638,-250.73143,284.35147,0.0030692667,-0.005913228,-0.007314682,0.0,0.0,0.0
1058.3363,544.3485,130410199,0.95,0.08510638,-257.83218,263.16605,0.0024554133,-0.020730555,0.010149002,0.0,0.0,0.0
1055.8242,546.19324,130410216,0.95,0.10638297,-206.24397,180.45453,0.0024554133,-0.020730555,0.010149002,0.0,0.0,0.0
1053.2117,548.0375,130410232,0.95,0.10638297,-142.1918,70.68249,0.0024554133,-0.020730555,0.010149002,0.0,0.0,0.0
1050.5717,549.89795,130410249,0.9375,0.10638297,-117.649376,30.749384,0.0024554133,-0.020730555,0.010149002,0.0,0.0,0.0
1048.0602,551.7047,130410266,0.925,0.12765957,-140.00407,64.447075,0.0024554133,-0.020730555,0.010149002,0.0,0.0,0.0
1045.4548,553.5763,130410282,0.925,0.12765957,-155.80232,92.27548,0.0024554133,-0.020730555,0.010149002,0.0,0.0,0.0
1043.3536,555.4437,130410299,0.925,0.12765957,-138.9876,110.36719,0.0024554133,-0.020730555,0.010149002,0.0,0.0,0.0
1040.7312,557.3303,130410316,0.9125,0.12765957,-136.10248,111.66535,0.0024554133,-0.020730555,0.010149002,0.0,0.0,0.0
1037.972,559.1406,130410333,0.9125,0.12765957,-147.03604,112.82335,0.0024554133,-0.020730555,0.010149002,0.0,0.0,0.0
1035.6262,560.979,130410349,0.90000004,0.12765957,-159.6809,111.65659,0.0024554133,-0.020730555,0.010149002,0.0,0.0,0.0
1033.5353,562.8375,130410366,0.90000004,0.12765957,-144.17412,110.734505,0.0024554133,-0.020730555,0.010149002,0.0,0.0,0.0
1031.4584,564.0759,130410383,0.925,0.12765957,-114.39553,98.722404,0.0024554133,-0.020730555,0.010149002,0.0,0.0,0.0
1029.3768,564.0759,130410399,0.925,0.12765957,-107.83605,37.20036,0.0024554133,-0.020730555,0.010149002,0.0,0.0,0.0
1027.3066,564.0759,130410416,0.925,0.12765957,-115.6833,-23.453474,0.0024554133,-0.020730555,0.010149002,0.0,0.0,0.0
1025.6869,564.9645,130410433,0.9125,0.12765957,-115.46139,-26.39863,0.0024554133,-0.020730555,0.010149002,0.0,0.0,0.0
1024.1493,565.84863,130410449,0.925,0.12765957,-90.54019,8.953667,0.0024554133,-0.020730555,0.010149002,0.0,0.0,0.0
1022.6123,565.8529,130410466,0.925,0.10638297,-77.54745,39.556717,0.0024554133,-0.020730555,0.010149002,0.0,0.0,0.0
1021.5597,565.8529,130410483,0.925,0.10638297,-65.430336,20.225555,0.0024554133,-0.020730555,0.010149002,0.0,0.0,0.0
1020.0255,565.8529,130410500,0.9375,0.10638297,-73.05302,-9.946746,0.0024554133,-0.020730555,0.010149002,0.0,0.0,0.0
1018.46606,566.74146,130410516,0.9375,0.10638297,-86.18183,8.495213,0.0024554133,-0.020730555,0.010149002,0.0,0.0,0.0
1017.2501,567.09375,130410533,0.95,0.10638297,-78.20039,22.265749,0.0024554133,-0.020730555,0.010149002,0.0,0.0,0.0
1015.9077,567.6299,130410550,0.95,0.10638297,-79.912575,46.501324,0.0024554133,-0.020730555,0.010149002,0.0,0.0,0.0
1014.8679,567.6299,130410566,0.9375,0.10638297,-66.17213,22.023766,0.0024554133,-0.020730555,0.010149002,0.0,0.0,0.0
1013.0083,569.0869,130410583,0.9375,0.10638297,-79.018364,29.562624,0.0024554133,-0.020730555,0.010149002,0.0,0.0,0.0
1011.78796,569.407,130410600,0.95,0.09574468,-93.5258,57.785107,0.0024554133,-0.020730555,0.010149002,0.0,0.0,0.0
1010.7516,570.1127,130410617,0.95,0.09574468,-79.24561,44.598145,0.0024554133,-0.020730555,0.010149002,0.0,0.0,0.0
1009.713,570.2954,130410633,0.95,0.09574468,-66.08039,40.445118,0.0024554133,-0.020730555,0.010149002,0.0,0.0,0.0
1008.6815,570.2954,130410650,0.95,0.09574468,-47.13781,0.37701717,0.0024554133,-0.020730555,0.010149002,0.0,0.0,0.0
1007.6404,570.2954,130410667,0.95,0.09574468,-49.777035,-16.407068,0.0024554133,-0.020730555,0.010149002,0.0,0.0,0.0
1006.5907,570.2954,130410683,0.95,0.09574468,-62.29315,-10.370822,0.0024554133,-0.020730555,0.010149002,0.0,0.0,0.0
1005.5541,570.2954,130410700,0.95,0.09574468,-62.320145,-13.116115,0.0024554133,-0.020730555,0.010149002,0.0,0.0,0.0
1004.5065,570.2954,130410717,0.9375,0.09574468,-62.180634,-0.03682593,0.0024554133,-0.020730555,0.010149002,0.0,0.0,0.0
1003.48047,570.2954,130410734,0.9375,0.09574468,-61.72038,-0.0051283604,0.0019643307,-0.016584456,0.008119583,0.0,0.0,0.0
1001.85376,570.2954,130410750,0.9375,0.09574468,-78.03018,0.0062878057,0.0019643307,-0.016584456,0.008119583,0.0,0.0,0.0
999.6455,570.2954,130410767,0.9375,0.09574468,-117.70897,0.0031065017,0.0019643307,-0.016584456,0.008119583,0.0,0.0,0.0
997.6349,570.2954,130410784,0.9375,0.09574468,-143.00984,0.053236317,0.0019643307,-0.016584456,0.008119583,0.0,0.0,0.0
995.5609,571.18396,130410800,0.925,0.09574468,-147.34816,26.30601,0.0019643307,-0.016584456,0.008119583,0.0,0.0,0.0
993.06055,571.18396,130410817,0.925,0.10638297,-146.02988,33.214016,0.0019643307,-0.016584456,0.008119583,0.0,0.0,0.0
990.4076,571.18396,130410834,0.9125,0.10638297,-157.69662,19.43575,0.0019643307,-0.016584456,0.008119583,0.0,0.0,0.0
987.2799,571.18396,130410851,0.9125,0.10638297,-184.44054,-0.5123464,0.0019643307,-0.016584456,0.008119583,0.0,0.0,0.0
983.2103,572.0725,130410867,0.90000004,0.11702127,-228.35513,10.835681,0.0019643307,-0.016584456,0.008119583,0.0,0.0,0.0
979.0665,572.0725,130410884,0.90000004,0.11702127,-269.8092,21.627657,0.0019643307,-0.016584456,0.008119583,0.0,0.0,0.0
974.2894,573.98145,130410901,0.8875,0.10638297,-300.3644,69.66745,0.0019643307,-0.016584456,0.008119583,0.0,0.0,0.0
968.54126,573.8495,130410917,0.90000004,0.10638297,-346.5827,60.702118,0.0019643307,-0.016584456,0.008119583,0.0,0.0,0.0
962.75757,573.8495,130410934,0.8875,0.09574468,-370.71912,24.007208,0.0019643307,-0.016584456,0.008119583,0.0,0.0,0.0
956.1914,573.8495,130410951,0.9125,0.09574468,-403.02692,-7.768056,0.0019643307,-0.016584456,0.008119583,0.0,0.0,0.0
951.23267,573.8495,130410968,0.90000004,0.09574468,-392.81155,-35.687286,0.0019643307,-0.016584456,0.008119583,0.0,0.0,0.0
943.1755,573.8495,130410984,0.90000004,0.09574468,-419.33615,-8.985821,0.0019643307,-0.016584456,0.008119583,0.0,0.0,0.0
937.0967,574.3163,130411001,0.90000004,0.10638297,-417.75772,7.721903,0.0019643307,-0.016584456,0.008119583,0.0,0.0,0.0
931.8099,574.7379,130411018,0.90000004,0.11702127,-356.79755,31.80924,0.0019643307,-0.016584456,0.008119583,0.0,0.0,0.0
927.1541,575.34326,130411034,0.90000004,0.11702127,-290.5095,37.38732,0.0019643307,-0.016584456,0.008119583,0.0,0.0,0.0
922.8676,576.515,130411051,0.9125,0.11702127,-223.35109,68.949715,0.0019643307,-0.016584456,0.008119583,0.0,0.0,0.0
920.7246,576.515,130411068,0.95,0.11702127,-162.8094,52.242096,0.0019643307,-0.016584456,0.008119583,0.0,0.0,0.0
919.16974,577.4114,130411084,0.96250004,0.09574468,-67.98225,33.206127,0.0019643307,-0.016584456,0.008119583,0.0,0.0,0.0
918.17896,579.26404,130411101,0.9875,0.09574468,-9.512248,73.158264,0.0019643307,-0.016584456,0.008119583,0.0,0.0,0.0
918.17896,580.069,130411118,1.0125,0.09574468,35.5222,86.79414,0.0019643307,-0.016584456,0.008119583,0.0,0.0,0.0
918.3108,580.9575,130411135,1.025,0.09574468,52.197342,92.44355,0.0019643307,-0.016584456,0.008119583,0.0,0.0,0.0
920.00714,582.13806,130411151,1.0500001,0.09574468,91.48548,63.96523,0.0019643307,-0.016584456,0.008119583,0.0,0.0,0.0
923.55426,583.9347,130411168,1.0625,0.09574468,182.75069,63.97027,0.0019643307,-0.016584456,0.008119583,0.0,0.0,0.0
928.95044,585.85315,130411185,1.0125,0.08510638,330.68387,117.179085,0.0019643307,-0.016584456,0.008119583,0.0,0.0,0.0
934.95056,586.28845,130411201,1.025,0.08510638,442.57416,110.29608,0.0019643307,-0.016584456,0.008119583,0.0,0.0,0.0
940.57355,586.6444,130411218,0.96250004,0.08510638,445.11594,35.9718,0.0019643307,-0.016584456,0.008119583,0.0,0.0,0.0
948.7977,587.177,130411235,0.95,0.08510638,485.00748,-11.054208,0.0019643307,-0.016584456,0.008119583,0.0,0.0,0.0
956.49963,587.177,130411252,0.925,0.08510638,501.87576,-22.917383,0.0019643307,-0.016584456,0.008119583,0.0,0.0,0.0
964.76355,587.177,130411268,0.9125,0.09574468,533.9698,-14.230267,0.0015714616,0.018732429,-0.009504318,0.0,0.0,0.0
974.49854,588.02954,130411285,0.90000004,0.08510638,589.8661,7.391095,0.0015714616,0.018732429,-0.009504318,0.0,0.0,0.0
983.9464,589.89954,130411302,0.875,0.08510638,606.0988,71.37075,0.0015714616,0.018732429,-0.009504318,0.0,0.0,0.0
995.51526,590.8489,130411318,0.8875,0.08510638,668.1498,109.19163,0.0015714616,0.018732429,-0.009504318,0.0,0.0,0.0
1005.8175,591.6195,130411335,0.875,0.08510638,692.5512,103.71857,0.0015714616,0.018732429,-0.009504318,0.0,0.0,0.0
1017.0642,591.6195,130411352,0.875,0.09574468,705.0488,42.727184,0.0015714616,0.018732429,-0.009504318,0.0,0.0,0.0
1027.3868,591.6195,130411369,0.875,0.08510638,681.73956,-18.686464,0.0015714616,0.018732429,-0.009504318,0.0,0.0,0.0
1039.436,590.3601,130411385,0.875,0.08510638,688.126,-64.508835,0.0015714616,0.018732429,-0.009504318,0.0,0.0,0.0
1049.7354,588.954,130411402,0.875,0.08510638,647.4589,-117.92951,0.0015714616,0.018732429,-0.009504318,0.0,0.0,0.0
1059.676,588.954,130411419,0.875,0.08510638,610.45465,-83.56343,0.0015714616,0.018732429,-0.009504318,0.0,0.0,0.0
1069.8665,587.5426,130411435,0.875,0.09574468,563.5499,-63.994907,0.0015714616,0.018732429,-0.009504318,0.0,0.0,0.0
1080.9166,586.8069,130411452,0.875,0.09574468,607.383,-45.372074,0.0015714616,0.018732429,-0.009504318,0.0,0.0,0.0
1093.7446,585.62244,130411469,0.8625,0.08510638,701.74396,-49.728985,0.0015714616,0.018732429,-0.009504318,0.0,0.0,0.0
1105.3723,583.6627,130411486,0.8625,0.08510638,771.915,-102.44121,0.0015714616,0.018732429,-0.009504318,0.0,0.0,0.0
1114.7468,581.81995,130411502,0.85,0.08510638,702.017,-125.977554,0.0015714616,0.018732429,-0.009504318,0.0,0.0,0.0
1124.6869,579.95544,130411519,0.8125,0.11702127,595.8443,-132.81139,0.0015714616,0.018732429,-0.009504318,0.0,0.0,0.0
1135.7183,578.12756,130411536,0.8125,0.10638297,568.48944,-134.6173,0.0015714616,0.018732429,-0.009504318,0.0,0.0,0.0
1147.1187,576.2704,130411552,0.8125,0.09574468,609.9709,-112.06122,0.0015714616,0.018732429,-0.009504318,0.0,0.0,0.0
1160.3945,572.3336,130411569,0.8,0.10638297,751.37115,-166.02876,0.0015714616,0.018732429,-0.009504318,0.0,0.0,0.0
1176.8595,565.25476,130411586,0.77500004,0.12765957,919.6969,-315.24643,0.0015714616,0.018732429,-0.009504318,0.0,0.0,0.0
1195.415,557.78625,130411603,0.77500004,0.10638297,1130.9028,-497.98007,0.0015714616,0.018732429,-0.009504318,0.0,0.0,0.0
1211.6211,547.442,130411619,0.77500004,0.06382979,1193.9741,-662.2129,0.0015714616,0.018732429,-0.009504318,0.0,0.0,0.0
1221.8053,539.2717,130411636,0.77500004,0.06382979,924.62396,-661.8877,0.0015714616,0.018732429,-0.009504318,0.0,0.0,0.0
1230.3203,530.7007,130411653,0.77500004,0.09574468,541.45026,-602.2496,0.0015714616,0.018732429,-0.009504318,0.0,0.0,0.0
1236.2764,523.26294,130411669,0.75,0.12765957,203.8214,-486.6188,0.0015714616,0.018732429,-0.009504318,0.0,0.0,0.0
1241.2808,517.37585,130411686,0.7625,0.12765957,91.68054,-365.42783,0.0015714616,0.018732429,-0.009504318,0.0,0.0,0.0
1246.0431,510.80713,130411703,0.75,0.11702127,124.813156,-321.85446,0.0015714616,0.018732429,-0.009504318,0.0,0.0,0.0
1249.651,505.29248,130411719,0.7625,0.08510638,168.39207,-315.12622,0.0015714616,0.018732429,-0.009504318,0.0,0.0,0.0
1253.2911,500.7301,130411736,0.77500004,0.08510638,179.31906,-292.6974,0.0015714616,0.018732429,-0.009504318,0.0,0.0,0.0
1254.6775,497.0542,130411753,0.77500004,0.08510638,117.054,-226.15776,0.0015714616,0.018732429,-0.009504318,0.0,0.0,0.0
1255.0693,495.43396,130411770,0.8,0.08510638,21.318876,-118.34108,0.0015714616,0.018732429,-0.009504318,0.0,0.0,0.0
1254.9447,494.7727,130411786,0.8125,0.09574468,-60.56915,-11.275546,0.0015714616,0.018732429,-0.009504318,0.0,0.0,0.0
1253.669,494.7727,130411803,0.8125,0.09574468,-120.08372,63.761795,0.0012571663,-0.017014056,0.024395943,0.0,0.0,0.0
1248.3926,495.2567,130411820,0.7875,0.09574468,-230.38257,88.243645,0.0012571663,-0.017014056,0.024395943,0.0,0.0,0.0
1230.0477,497.6504,130411836,0.77500004,0.08510638,-668.52747,136.50159,0.0012571663,-0.017014056,0.024395943,0.0,0.0,0.0
1201.7893,502.88513,130411853,0.8,0.11702127,-1584.6001,268.48825,0.0012571663,-0.017014056,0.024395943,0.0,0.0,0.0
1171.7118,508.41602,130411870,0.8125,0.10638297,-2296.231,404.55212,0.0012571663,-0.017014056,0.024395943,0.0,0.0,0.0
1143.0737,513.8373,130411887,0.7875,0.12765957,-2447.399,456.55374,0.0012571663,-0.017014056,0.024395943,0.0,0.0,0.0
1113.514,516.9302,130411903,0.8125,0.10638297,-2172.984,377.16052,0.0012571663,-0.017014056,0.024395943,0.0,0.0,0.0
1087.8817,515.19165,130411920,0.8,0.12765957,-1713.0946,67.927376,0.0012571663,-0.017014056,0.024395943,0.0,0.0,0.0
1063.4458,510.4784,130411937,0.8,0.10638297,-1513.3986,-258.75693,0.0012571663,-0.017014056,0.024395943,0.0,0.0,0.0
1040.8257,506.00098,130411953,0.77500004,0.11702127,-1333.7437,-468.58014,0.0012571663,-0.017014056,0.024395943,0.0,0.0,0.0
1017.0383,498.9884,130411970,0.77500004,0.08510638,-1239.2319,-557.00397,0.0012571663,-0.017014056,0.024395943,0.0,0.0,0.0
990.4055,491.2185,130411987,0.7875,0.07446808,-1333.5558,-551.3118,0.0012571663,-0.017014056,0.024395943,0.0,0.0,0.0
963.2843,482.22107,130412004,0.8,0.08510638,-1566.4497,-588.85944,0.0012571663,-0.017014056,0.024395943,0.0,0.0,0.0
933.3239,475.64844,130412020,0.8,0.08510638,-1879.2825,-581.25946,0.0012571663,-0.017014056,0.024395943,0.0,0.0,0.0
904.6732,470.1991,130412037,0.8,0.09574468,-1925.3907,-442.09653,0.0012571663,-0.017014056,0.024395943,0.0,0.0,0.0
875.45886,464.5498,130412054,0.8,0.12765957,-1831.523,-286.91385,0.0012571663,-0.017014056,0.024395943,0.0,0.0,0.0
849.44104,459.55347,130412070,0.8,0.10638297,-1623.6558,-211.04762,0.0012571663,-0.017014056,0.024395943,0.0,0.0,0.0
812.843,452.57678,130412087,0.7875,0.12765957,-1812.7771,-302.80884,0.0012571663,-0.017014056,0.024395943,0.0,0.0,0.0
777.5974,448.7279,130412104,0.8,0.09574468,-2129.954,-334.32773,0.0012571663,-0.017014056,0.024395943,0.0,0.0,0.0
740.49365,445.0426,130412121,0.8125,0.10638297,-2347.7148,-252.47687,0.0012571663,-0.017014056,0.024395943,0.0,0.0,0.0
701.02344,444.12793,130412137,0.8125,0.08510638,-2477.1091,-105.39142,0.0012571663,-0.017014056,0.024395943,0.0,0.0,0.0
665.03357,444.12793,130412154,0.825,0.08510638,-2367.7876,44.827156,0.0012571663,-0.017014056,0.024395943,0.0,0.0,0.0
627.8191,445.01648,130412171,0.8125,0.08510638,-2270.6912,132.86266,0.0012571663,-0.017014056,0.024395943,0.0,0.0,0.0
595.4389,445.01648,130412187,0.8125,0.09574468,-2029.4043,126.06743,0.0012571663,-0.017014056,0.024395943,0.0,0.0,0.0
569.13525,442.89465,130412204,0.83750004,0.08510638,-1734.889,20.066927,0.0012571663,-0.017014056,0.024395943,0.0,0.0,0.0
545.96277,442.35095,130412221,0.825,0.09574468,-1402.2697,-105.11861,0.0012571663,-0.017014056,0.024395943,0.0,0.0,0.0
520.1225,440.54395,130412238,0.825,0.08510638,-1273.022,-122.158516,0.0012571663,-0.017014056,0.024395943,0.0,0.0,0.0
497.75928,438.2422,130412254,0.83750004,0.08510638,-1240.2518,-137.6945,0.0012571663,-0.017014056,0.024395943,0.0,0.0,0.0
475.66223,436.40112,130412271,0.83750004,0.08510638,-1187.2062,-137.71188,0.0012571663,-0.017014056,0.024395943,0.0,0.0,0.0
456.27625,435.24292,130412288,0.85,0.08510638,-1164.0293,-133.1099,0.0012571663,-0.017014056,0.024395943,0.0,0.0,0.0
441.6437,434.47437,130412304,0.83750004,0.08510638,-969.5746,-66.913345,0.0012571663,-0.017014056,0.024395943,0.0,0.0,0.0
428.26587,432.63586,130412321,0.875,0.09574468,-720.0737,-34.864555,0.0012571663,-0.017014056,0.024395943,0.0,0.0,0.0
416.21457,430.7815,130412338,0.83750004,0.08510638,-561.9143,-88.48599,0.001005739,0.018388748,0.0035171509,0.0,0.0,0.0
406.0418,428.96948,130412354,0.8625,0.08510638,-483.18045,-121.88023,0.001005739,0.018388748,0.0035171509,0.0,0.0,0.0
396.56625,428.08472,130412371,0.85,0.08510638,-479.04807,-106.16797,0.001005739,0.018388748,0.0035171509,0.0,0.0,0.0
387.86896,426.36133,130412388,0.85,0.08510638,-461.94553,-82.11187,0.001005739,0.018388748,0.0035171509,0.0,0.0,0.0
376.26126,424.20886,130412405,0.85,0.09574468,-506.908,-94.585686,0.001005739,0.018388748,0.0035171509,0.0,0.0,0.0
366.4423,423.69238,130412421,0.85,0.08510638,-579.82446,-87.73689,0.001005739,0.018388748,0.0035171509,0.0,0.0,0.0
358.0038,422.80396,130412438,0.875,0.08510638,-596.0059,-58.122486,0.001005739,0.018388748,0.0035171509,0.0,0.0,0.0
349.82733,421.9154,130412455,0.8625,0.08510638,-521.71136,-23.11945,0.001005739,0.018388748,0.0035171509,0.0,0.0,0.0
343.38242,421.02686,130412471,0.875,0.08510638,-387.37848,-29.463202,0.001005739,0.018388748,0.0035171509,0.0,0.0,0.0
338.33118,421.02686,130412488,0.8875,0.08510638,-274.32285,-26.868101,0.001005739,0.018388748,0.0035171509,0.0,0.0,0.0
334.95392,420.13843,130412505,0.8625,0.08510638,-164.36249,-26.589178,0.001005739,0.018388748,0.0035171509,0.0,0.0,0.0
332.05096,420.13843,130412522,0.8875,0.08510638,-97.124825,-7.585823,0.001005739,0.018388748,0.0035171509,0.0,0.0,0.0
328.8942,419.24988,130412538,0.83750004,0.08510638,-80.96842,-21.453081,0.001005739,0.018388748,0.0035171509,0.0,0.0,0.0
326.9908,419.24988,130412555,0.8125,0.08510638,-91.040695,-23.57175,0.001005739,0.018388748,0.0035171509,0.0,0.0,0.0
326.3716,419.24988,130412563,0.4375,0.11702127,-82.73596,-18.916786,0.001005739,0.018388748,0.0035171509,0.0,0.0,0.0
326.3716,419.24988,130412570,0.4375,0.11702127,-82.73596,-18.916786,0.001005739,0.018388748,0.0035171509,0.0,0.0,0.0
