x,y,timestamp,pressure,fingerarea,velocityx,velocityy,accelx,accely,accelz,gyrox,gyroy,gyroz
126.93654,177.57703,130414508,0.90000004,0.09574468,0.0,0.0,-0.0067560673,0.010220021,0.042401314,0.0,0.0,0.0
126.93654,177.57703,130414527,0.8875,0.08510638,0.03344269,0.045971133,-0.0067560673,0.010220021,0.042401314,0.0,0.0,0.0
126.93654,177.57703,130414543,0.875,0.08510638,-0.010744726,-0.014502591,-0.0067560673,0.010220021,0.042401314,0.0,0.0,0.0
156.89577,164.16895,130414560,0.83750004,0.07446808,1840.9072,-838.08765,-0.0067560673,0.010220021,0.042401314,0.0,0.0,0.0
193.5788,151.70996,130414577,0.8125,0.07446808,2836.7493,-1099.6346,-0.0067560673,0.010220021,0.042401314,0.0,0.0,0.0
237.87213,137.67297,130414594,0.7875,0.10638297,3394.997,-1165.7845,-0.0067560673,0.010220021,0.042401314,0.0,0.0,0.0
290.35654,120.752075,130414610,0.7875,0.09574468,3809.2524,-1221.4558,-0.0067560673,0.010220021,0.042401314,0.0,0.0,0.0
341.59177,104.5437,130414627,0.7875,0.06382979,3565.8403,-1045.9769,-0.0067560673,0.010220021,0.042401314,0.0,0.0,0.0
393.70636,91.42859,130414644,0.77500004,0.08510638,3503.4258,-966.6292,-0.0067560673,0.010220021,0.042401314,0.0,0.0,0.0
445.05133,74.593994,130414660,0.7375,0.12765957,3383.2944,-953.2315,-0.0067560673,0.010220021,0.042401314,0.0,0.0,0.0
490.8213,61.50525,130414677,0.71250004,0.06382979,2969.965,-844.24304,-0.0067560673,0.010220021,0.042401314,0.0,0.0,0.0
520.33746,51.577026,130414694,0.6875,0.08510638,2275.658,-699.04224,-0.0067560673,0.010220021,0.042401314,0.0,0.0,0.0
537.43207,47.56897,130414711,0.2375,0.09574468,1289.0851,-395.51978,-0.0067560673,0.010220021,0.042401314,0.0,0.0,0.0
537.43207,47.56897,130414717,0.2375,0.09574468,1289.0851,-395.51978,-0.0067560673,0.010220021,0.042401314,0.0,0.0,0.0
211.40903,286.8629,130415063,0.8,0.11702127,0.0,0.0,-0.00540486,-0.007824004,0.049920082,0.0,0.0,0.0
211.40903,286.8629,130415095,0.83750004,0.10638297,-0.0019982057,-9.827467E-4,-0.00540486,-0.007824004,0.049920082,0.0,0.0,0.0
211.40903,286.8629,130415112,0.8625,0.10638297,-0.005051193,-0.0045122653,-0.00540486,-0.007824004,0.049920082,0.0,0.0,0.0
231.44144,286.8629,130415128,0.83750004,0.09574468,875.82196,-0.0113056395,-0.00540486,-0.007824004,0.049920082,0.0,0.0,0.0
251.0151,286.8629,130415145,0.8125,0.11702127,1488.5719,0.013674481,-0.00540486,-0.007824004,0.049920082,0.0,-0.0,0.0
281.9053,283.75098,130415162,0.825,0.08510638,2010.952,-80.85153,-0.00540486,-0.007824004,0.049920082,0.0,-0.0,0.0
321.49414,275.46704,130415178,0.8,0.07446808,2657.352,-316.99106,-0.00540486,-0.007824004,0.049920082,0.0,-0.0,0.0
370.90268,257.36816,130415195,0.8,0.08510638,3136.1277,-801.5418,-0.00540486,-0.007824004,0.049920082,0.0,-0.0,0.0
412.73883,241.9386,130415212,0.7625,0.12765957,3249.8174,-1278.3398,-0.00540486,-0.007824004,0.049920082,0.0,0.0,0.0
456.08124,225.34521,130415228,0.77500004,0.08510638,3141.583,-1415.7045,-0.00540486,-0.007824004,0.049920082,0.0,0.0,0.0
491.79944,214.24023,130415245,0.75,0.06382979,2576.4485,-1101.263,-0.00540486,-0.007824004,0.049920082,0.0,0.0,0.0
522.96606,205.57153,130415262,0.7375,0.08510638,1844.9065,-595.2937,-0.00540486,-0.007824004,0.049920082,0.0,0.0,0.0
542.70337,201.36621,130415279,0.725,0.08510638,1189.8689,-192.02005,-0.00540486,-0.007824004,0.049920082,0.0,0.0,0.0
552.5222,198.99915,130415295,0.675,0.08510638,564.8073,41.917477,-0.00540486,-0.007824004,0.049920082,0.0,0.0,0.0
552.7979,198.90112,130415296,0.3375,0.10638297,505.19662,40.720264,-0.00540486,-0.007824004,0.049920082,0.0,0.0,0.0
552.7979,198.90112,130415304,0.3375,0.10638297,505.19662,40.720264,-0.00540486,-0.007824004,0.049920082,0.0,0.0,0.0
354.86234,36.30493,130415643,0.9375,0.10638297,0.0,0.0,0.035676107,-0.006259203,0.023936272,0.0,0.0,0.0
354.86234,36.30493,130415663,0.95,0.10638297,0.08337852,0.008129762,0.035676107,-0.006259203,0.023936272,0.0,0.0,0.0
354.86234,36.30493,130415679,0.95,0.08510638,-0.00853306,-7.855562E-4,0.035676107,-0.006259203,0.023936272,0.0,0.0,0.0
345.53552,67.38928,130415696,0.925,0.09574468,-530.61615,1746.0598,0.035676107,-0.006259203,0.023936272,0.0,0.0,0.0
338.8865,103.4115,130415713,0.875,0.06382979,-608.986,2553.731,0.035676107,-0.006259203,0.023936272,0.0,0.0,0.0
332.51624,146.9823,130415730,0.8875,0.10638297,-591.8874,3230.537,0.035676107,-0.006259203,0.023936272,0.0,0.0,0.0
327.63705,188.95837,130415747,0.90000004,0.12765957,-436.1175,3333.8516,0.035676107,-0.006259203,0.023936272,0.0,0.0,0.0
322.41074,233.19983,130415763,0.8875,0.09574468,-313.53815,3241.4004,0.035676107,-0.006259203,0.023936272,0.0,0.0,0.0
320.34256,276.4702,130415780,0.875,0.11702127,-175.52203,2821.351,0.035676107,-0.006259203,0.023936272,0.0,0.0,0.0
319.80212,322.9187,130415797,0.8875,0.08510638,-36.47854,2756.9363,0.035676107,-0.006259203,0.023936272,0.0,0.0,0.0
320.498,362.36243,130415813,0.90000004,0.09574468,90.32688,2560.4136,0.035676107,-0.006259203,0.023936272,0.0,0.0,0.0
322.2281,397.70117,130415830,0.8875,0.12765957,183.51549,2265.672,0.035676107,-0.006259203,0.023936272,0.0,0.0,0.0
324.37225,435.17883,130415847,0.8875,0.08510638,229.37263,2118.6782,0.035676107,-0.006259203,0.023936272,0.0,0.0,0.0
324.37225,469.69885,130415864,0.875,0.08510638,132.83548,2039.0162,0.035676107,-0.006259203,0.023936272,0.0,0.0,0.0
324.63907,501.9464,130415880,0.875,0.12765957,37.619793,1938.7438,0.035676107,-0.006259203,0.023936272,0.0,0.0,0.0
325.66968,526.89075,130415897,0.9125,0.08510638,-10.8212385,1614.0944,0.035676107,-0.006259203,0.023936272,0.0,0.0,0.0
327.0439,545.4641,130415914,0.9125,0.08510638,24.936508,1136.3643,0.035676107,-0.006259203,0.023936272,0.0,0.0,0.0
328.23648,560.3866,130415930,0.925,0.12765957,98.48532,679.0317,0.035676107,-0.006259203,0.023936272,0.0,0.0,0.0
328.8708,571.40173,130415947,0.95,0.08510638,93.13241,407.79184,0.035676107,-0.006259203,0.023936272,0.0,0.0,0.0
328.8708,579.8462,130415964,0.96250004,0.08510638,28.10885,231.95692,0.035676107,-0.006259203,0.023936272,0.0,0.0,0.0
329.8793,584.54285,130415981,0.95,0.07446808,9.819503,165.40047,0.035676107,-0.006259203,0.023936272,0.0,0.0,0.0
330.3703,587.2687,130415997,0.9375,0.07446808,17.205885,28.646357,0.035676107,-0.006259203,0.023936272,0.0,0.0,0.0
330.87015,588.06555,130416014,0.8875,0.07446808,34.541878,-93.81079,0.035676107,-0.006259203,0.023936272,0.0,0.0,0.0
331.4636,588.06555,130416031,0.7875,0.06382979,35.899544,-147.13748,0.035676107,-0.006259203,0.023936272,0.0,0.0,0.0
332.51508,588.06555,130416047,0.6875,0.06382979,42.538322,-146.26723,0.035676107,-0.006259203,0.023936272,0.0,0.0,0.0
332.8695,588.06555,130416054,0.375,0.08510638,44.095123,-128.1155,0.035676107,-0.006259203,0.023936272,0.0,0.0,0.0
332.8695,588.06555,130416061,0.375,0.08510638,44.095123,-128.1155,0.035676107,-0.006259203,0.023936272,0.0,0.0,0.0
440.83435,572.0725,130417032,0.9375,0.10638297,0.0,0.0,-0.0011672825,0.015194118,0.0025196075,0.0,0.0,0.0
440.83435,572.0725,130417050,0.95,0.10638297,-0.15925464,-0.21033296,-0.0011672825,0.015194118,0.0025196075,0.0,0.0,0.0
440.83435,572.0725,130417062,0.96250004,0.10638297,-0.034256067,-0.044376258,-0.0011672825,0.015194118,0.0025196075,0.0,0.0,0.0
440.83435,572.0725,130417083,0.95,0.09574468,0.006682973,0.008209619,-0.0011672825,0.015194118,0.0025196075,0.0,0.0,0.0
440.83435,572.0725,130417100,0.925,0.09574468,0.009316136,0.008706571,-0.0011672825,0.015194118,0.0025196075,0.0,0.0,0.0
465.5443,567.03894,130417117,0.83750004,0.12765957,798.3237,-155.16856,-0.0011672825,0.015194118,0.0025196075,0.0,0.0,0.0
484.2666,557.59204,130417134,0.825,0.10638297,1531.9388,-477.7289,-0.008933842,-0.0038447082,0.018015862,0.0,0.0,0.0
509.29156,538.3772,130417150,0.8,0.06382979,1954.7942,-985.1925,-0.008933842,-0.0038447082,0.018015862,0.0,0.0,0.0
529.65704,511.57336,130417167,0.7875,0.12765957,1918.994,-1652.0614,-0.008933842,-0.0038447082,0.018015862,0.0,0.0,0.0
545.40173,483.1482,130417184,0.77500004,0.08510638,1105.1353,-2106.6672,-0.008933842,-0.0038447082,0.018015862,0.0,0.0,0.0
564.0778,441.97522,130417200,0.7625,0.08510638,957.4714,-2620.0168,-0.008933842,-0.0038447082,0.018015862,0.0,0.0,0.0
570.92706,422.44397,130417217,0.77500004,0.10638297,601.7877,-2198.362,-0.008933842,-0.0038447082,0.018015862,0.0,0.0,0.0
573.9291,411.52856,130417234,0.7625,0.12765957,182.40675,-1241.8762,-0.008933842,-0.0038447082,0.018015862,0.0,0.0,0.0
574.2909,408.396,130417250,0.7875,0.12765957,-178.23007,-176.48888,-0.008933842,-0.0038447082,0.018015862,0.0,0.0,0.0
573.6312,407.69934,130417267,0.8125,0.09574468,-388.31937,556.47144,-0.008933842,-0.0038447082,0.018015862,0.0,0.0,0.0
564.5943,418.43225,130417284,0.7875,0.06382979,-530.81586,880.1666,-0.008933842,-0.0038447082,0.018015862,0.0,0.0,0.0
545.83777,447.6151,130417301,0.7875,0.12765957,-906.6827,1414.6847,-0.008933842,-0.0038447082,0.018015862,0.0,0.0,0.0
524.7736,488.1809,130417317,0.8125,0.07446808,-1565.7107,2671.0725,-0.008933842,-0.0038447082,0.018015862,0.0,0.0,0.0
512.8993,519.2728,130417334,0.825,0.08510638,-1510.2429,3042.6555,-0.008933842,-0.0038447082,0.018015862,0.0,0.0,0.0
507.21497,545.39734,130417351,0.8125,0.08510638,-843.434,2516.5337,-0.008933842,-0.0038447082,0.018015862,0.0,0.0,0.0
507.54242,562.155,130417367,0.825,0.10638297,18.910574,1382.5942,-0.008933842,-0.0038447082,0.018015862,0.0,0.0,0.0
511.8072,575.47,130417384,0.8125,0.08510638,568.3399,489.86755,-0.008933842,-0.0038447082,0.018015862,0.0,0.0,0.0
517.36053,580.6157,130417401,0.8,0.07446808,657.46783,182.10751,-0.008933842,-0.0038447082,0.018015862,0.0,0.0,0.0
528.85065,583.62305,130417418,0.7875,0.07446808,800.0657,-129.46365,-0.008933842,-0.0038447082,0.018015862,0.0,0.0,0.0
544.5324,577.98596,130417434,0.7875,0.09574468,1003.8811,-417.03506,-0.008933842,-0.0038447082,0.018015862,0.0,0.0,0.0
562.7588,563.58704,130417451,0.7625,0.08510638,1249.787,-881.937,-0.008933842,-0.0038447082,0.018015862,0.0,0.0,0.0
577.6474,543.5128,130417468,0.75,0.08510638,1283.7279,-1388.0948,-0.008933842,-0.0038447082,0.018015862,0.0,0.0,0.0
588.7055,525.27295,130417484,0.75,0.11702127,1060.7063,-1646.3143,-0.008933842,-0.0038447082,0.018015862,0.0,0.0,0.0
605.46735,494.80823,130417501,0.7375,0.06382979,847.6462,-1925.6923,-0.008933842,-0.0038447082,0.018015862,0.0,0.0,0.0
616.97437,476.19727,130417518,0.725,0.10638297,720.78204,-1723.393,-0.008933842,-0.0038447082,0.018015862,0.0,0.0,0.0
623.27155,465.45813,130417535,0.725,0.12765957,555.38666,-1122.7831,-0.008933842,-0.0038447082,0.018015862,0.0,0.0,0.0
626.3389,460.0056,130417551,0.7375,0.12765957,221.63002,-381.38882,-0.008933842,-0.0038447082,0.018015862,0.0,0.0,0.0
627.62366,458.344,130417568,0.77500004,0.12765957,-140.42961,282.41324,-0.008933842,-0.0038447082,0.018015862,0.0,0.0,0.0
627.3775,459.75195,130417585,0.7625,0.10638297,-257.30267,473.14255,-0.008933842,-0.0038447082,0.018015862,0.0,0.0,0.0
624.31024,469.26013,130417601,0.77500004,0.08510638,-250.68506,567.5217,-0.008933842,-0.0038447082,0.018015862,0.0,0.0,0.0
617.87964,483.9015,130417618,0.7625,0.06382979,-381.93744,947.7786,-0.008933842,-0.0038447082,0.018015862,0.0,0.0,0.0
612.1606,502.3423,130417635,0.7625,0.10638297,-506.65903,1320.2864,-0.008933842,-0.0038447082,0.018015862,0.0,0.0,0.0
609.1478,518.9275,130417652,0.77500004,0.08510638,-443.2411,1434.137,-0.008933842,-0.0038447082,0.018015862,0.0,0.0,0.0
607.6753,533.5792,130417668,0.77500004,0.06382979,-232.4408,1252.8378,8.5292757E-4,-0.0030757785,-0.033587456,0.0,0.0,0.0
608.4538,544.2981,130417685,0.8,0.08510638,32.17371,863.4524,8.5292757E-4,-0.0030757785,-0.033587456,0.0,0.0,0.0
610.2031,551.36646,130417702,0.7875,0.10638297,195.42508,491.09586,8.5292757E-4,-0.0030757785,-0.033587456,0.0,0.0,0.0
612.0021,554.69946,130417718,0.825,0.10638297,226.20071,131.94687,8.5292757E-4,-0.0030757785,-0.033587456,0.0,0.0,0.0
614.064,557.0106,130417735,0.8125,0.10638297,200.67165,-47.433304,8.5292757E-4,-0.0030757785,-0.033587456,0.0,0.0,0.0
617.48364,559.281,130417752,0.8,0.10638297,200.75475,-70.85069,8.5292757E-4,-0.0030757785,-0.033587456,0.0,0.0,0.0
621.54846,561.0874,130417769,0.8125,0.10638297,245.36267,-17.295837,8.5292757E-4,-0.0030757785,-0.033587456,0.0,0.0,0.0
624.5128,562.29895,130417785,0.8,0.12765957,263.93018,30.466824,8.5292757E-4,-0.0030757785,-0.033587456,0.0,0.0,0.0
626.59973,563.92114,130417802,0.7875,0.12765957,203.26402,54.15123,8.5292757E-4,-0.0030757785,-0.033587456,0.0,0.0,0.0
628.6958,564.0759,130417819,0.8,0.12765957,115.807434,28.383272,8.5292757E-4,-0.0030757785,-0.033587456,0.0,0.0,0.0
630.7819,564.0759,130417835,0.8,0.12765957,79.8548,-6.942575,8.5292757E-4,-0.0030757785,-0.033587456,0.0,0.0,0.0
632.8658,564.0759,130417852,0.8,0.12765957,93.93333,-32.235706,8.5292757E-4,-0.0030757785,-0.033587456,0.0,0.0,0.0
634.4342,564.0759,130417869,0.8,0.12765957,103.53684,-33.857883,8.5292757E-4,-0.0030757785,-0.033587456,0.0,0.0,0.0
635.40607,564.0759,130417885,0.8,0.12765957,76.36682,-22.128399,8.5292757E-4,-0.0030757785,-0.033587456,0.0,0.0,0.0
637.2051,564.0759,130417902,0.7875,0.12765957,63.263474,-0.045139633,8.5292757E-4,-0.0030757785,-0.033587456,0.0,0.0,0.0
639.1129,564.0759,130417919,0.77500004,0.12765957,85.54752,-0.027214246,8.5292757E-4,-0.0030757785,-0.033587456,0.0,0.0,0.0
641.25824,564.0759,130417936,0.7875,0.12765957,133.3248,0.046421446,8.5292757E-4,-0.0030757785,-0.033587456,0.0,0.0,0.0
644.1162,564.0759,130417952,0.7875,0.12765957,169.26144,0.0280932,8.5292757E-4,-0.0030757785,-0.033587456,0.0,0.0,0.0
647.7346,563.5027,130417969,0.7875,0.12765957,212.613,-9.912956,8.5292757E-4,-0.0030757785,-0.033587456,0.0,0.0,0.0
651.6009,561.7058,130417986,0.77500004,0.12765957,244.26874,-69.874825,8.5292757E-4,-0.0030757785,-0.033587456,0.0,0.0,0.0
655.83966,559.822,130418002,0.77500004,0.09574468,281.14493,-133.16754,8.5292757E-4,-0.0030757785,-0.033587456,0.0,0.0,0.0
659.5654,557.9735,130418019,0.75,0.09574468,278.072,-161.79991,8.5292757E-4,-0.0030757785,-0.033587456,0.0,0.0,0.0
663.6995,556.10706,130418036,0.75,0.08510638,254.69664,-153.42142,8.5292757E-4,-0.0030757785,-0.033587456,0.0,0.0,0.0
668.41907,553.301,130418053,0.75,0.08510638,258.58167,-142.88646,8.5292757E-4,-0.0030757785,-0.033587456,0.0,0.0,0.0
673.97345,548.7803,130418069,0.7375,0.06382979,303.64514,-216.07361,8.5292757E-4,-0.0030757785,-0.033587456,0.0,0.0,0.0
679.4349,542.91736,130418086,0.75,0.07446808,352.11725,-335.8225,8.5292757E-4,-0.0030757785,-0.033587456,0.0,0.0,0.0
688.0143,533.0133,130418103,0.7375,0.09574468,456.3645,-529.5089,8.5292757E-4,-0.0030757785,-0.033587456,0.0,0.0,0.0
698.79956,515.67834,130418119,0.71250004,0.08510638,609.0523,-873.8328,8.5292757E-4,-0.0030757785,-0.033587456,0.0,0.0,0.0
715.41644,482.7163,130418136,0.7375,0.06382979,923.0326,-1684.236,8.5292757E-4,-0.0030757785,-0.033587456,0.0,0.0,0.0
729.8919,446.38928,130418153,0.75,0.08510638,1114.53,-2494.4304,8.5292757E-4,-0.0030757785,-0.033587456,0.0,0.0,0.0
742.36005,410.4613,130418170,0.75,0.10638297,1031.6019,-2814.4102,8.5292757E-4,-0.0030757785,-0.033587456,0.0,0.0,0.0
750.7669,379.2904,130418186,0.75,0.08510638,727.6227,-2559.6516,8.5292757E-4,-0.0030757785,-0.033587456,0.0,0.0,0.0
754.4825,356.60828,130418203,0.77500004,0.12765957,300.38782,-1831.5465,6.823391E-4,-0.018460602,-0.042869568,0.0,0.0,0.0
753.90607,343.60986,130418220,0.77500004,0.09574468,-96.79683,-943.9933,6.823391E-4,-0.018460602,-0.042869568,0.0,0.0,0.0
749.0639,338.61597,130418236,0.77500004,0.08510638,-402.90085,-158.14978,6.823391E-4,-0.018460602,-0.042869568,0.0,0.0,0.0
721.16144,338.40576,130418253,0.8,0.11702127,-1225.6936,369.9038,6.823391E-4,-0.018460602,-0.042869568,0.0,0.0,0.0
689.65497,348.56006,130418270,0.8125,0.10638297,-2120.5642,790.9025,6.823391E-4,-0.018460602,-0.042869568,0.0,0.0,0.0
667.5443,358.70557,130418287,0.825,0.08510638,-2377.6082,1055.2587,6.823391E-4,-0.018460602,-0.042869568,0.0,0.0,0.0
657.0376,364.59302,130418303,0.825,0.08510638,-1726.6536,961.0367,6.823391E-4,-0.018460602,-0.042869568,0.0,0.0,0.0
652.9762,366.82825,130418320,0.85,0.08510638,-562.3504,580.37585,6.823391E-4,-0.018460602,-0.042869568,0.0,0.0,0.0
651.7657,367.71667,130418337,0.8625,0.08510638,345.18918,96.14193,6.823391E-4,-0.018460602,-0.042869568,0.0,0.0,0.0
654.2375,368.15283,130418353,0.825,0.07446808,550.64777,-186.54437,6.823391E-4,-0.018460602,-0.042869568,0.0,0.0,0.0
670.7108,373.66992,130418370,0.8,0.06382979,834.1298,7.716823,6.823391E-4,-0.018460602,-0.042869568,0.0,0.0,0.0
694.2525,379.53394,130418387,0.7625,0.08510638,1472.5424,311.8351,6.823391E-4,-0.018460602,-0.042869568,0.0,0.0,0.0
710.38165,384.72205,130418404,0.7625,0.08510638,1768.1349,460.56573,6.823391E-4,-0.018460602,-0.042869568,0.0,0.0,0.0
720.8649,391.81445,130418420,0.7875,0.09574468,1375.0306,484.81848,6.823391E-4,-0.018460602,-0.042869568,0.0,0.0,0.0
727.9121,401.78406,130418437,0.8,0.10638297,619.89014,533.12744,6.823391E-4,-0.018460602,-0.042869568,0.0,0.0,0.0
734.65393,421.6443,130418454,0.8,0.07446808,82.9417,890.7684,6.823391E-4,-0.018460602,-0.042869568,0.0,0.0,0.0
735.73834,436.43433,130418470,0.8,0.10638297,-50.319077,1198.3611,6.823391E-4,-0.018460602,-0.042869568,0.0,0.0,0.0
735.17285,457.19604,130418487,0.8,0.09574468,-141.67299,1346.6055,6.823391E-4,-0.018460602,-0.042869568,0.0,0.0,0.0
731.3118,475.53967,130418504,0.8,0.06382979,-311.12894,1328.1943,6.823391E-4,-0.018460602,-0.042869568,0.0,0.0,0.0
726.04474,492.55884,130418520,0.7875,0.09574468,-468.97086,1188.315,6.823391E-4,-0.018460602,-0.042869568,0.0,0.0,0.0
721.92303,507.708,130418537,0.8,0.09574468,-482.97696,1032.7542,6.823391E-4,-0.018460602,-0.042869568,0.0,0.0,0.0
720.025,518.5381,130418554,0.8,0.08510638,-331.8338,810.319,6.823391E-4,-0.018460602,-0.042869568,0.0,0.0,0.0
719.4815,524.6023,130418571,0.8125,0.07446808,-78.10207,376.7092,6.823391E-4,-0.018460602,-0.042869568,0.0,0.0,0.0
719.5483,528.7301,130418587,0.825,0.06382979,73.21694,85.640366,6.823391E-4,-0.018460602,-0.042869568,0.0,0.0,0.0
720.061,530.87695,130418604,0.83750004,0.06382979,119.09793,-83.978775,6.823391E-4,-0.018460602,-0.042869568,0.0,0.0,0.0
721.1158,532.7521,130418621,0.825,0.06382979,112.9069,-98.90706,6.823391E-4,-0.018460602,-0.042869568,0.0,0.0,0.0
722.1533,534.7554,130418637,0.825,0.06382979,104.560875,-5.7890687,6.823391E-4,-0.018460602,-0.042869568,0.0,0.0,0.0
723.19885,536.45483,130418654,0.825,0.06382979,94.15113,36.40944,6.823391E-4,-0.018460602,-0.042869568,0.0,0.0,0.0
724.2458,538.3159,130418671,0.825,0.06382979,76.384865,85.16363,6.823391E-4,-0.018460602,-0.042869568,0.0,0.0,0.0
725.8344,540.1688,130418688,0.8125,0.06382979,81.58428,105.14395,6.823391E-4,-0.018460602,-0.042869568,0.0,0.0,0.0
728.41864,542.02136,130418704,0.83750004,0.07446808,127.105545,107.754295,6.823391E-4,-0.018460602,-0.042869568,0.0,0.0,0.0
732.226,543.85657,130418721,0.83750004,0.07446808,203.23608,114.61693,6.823391E-4,-0.018460602,-0.042869568,0.0,0.0,0.0
735.01465,544.5288,130418738,0.825,0.08510638,239.53873,77.02567,5.4587424E-4,0.0012314916,-0.002295494,0.0,0.0,0.0
737.14624,545.41736,130418754,0.83750004,0.08510638,213.66049,45.93114,5.4587424E-4,0.0012314916,-0.002295494,0.0,0.0,0.0
739.9584,546.3059,130418771,0.83750004,0.09574468,149.97311,28.294996,5.4587424E-4,0.0012314916,-0.002295494,0.0,0.0,0.0
743.0829,547.69604,130418788,0.8125,0.09574468,152.15196,45.637604,5.4587424E-4,0.0012314916,-0.002295494,0.0,0.0,0.0
746.0967,548.9713,130418805,0.825,0.09574468,177.90842,86.42306,5.4587424E-4,0.0012314916,-0.002295494,0.0,0.0,0.0
749.18646,548.9713,130418821,0.8125,0.09574468,195.44803,53.613186,5.4587424E-4,0.0012314916,-0.002295494,0.0,0.0,0.0
753.2973,548.9713,130418838,0.825,0.09574468,220.36087,2.1994357,5.4587424E-4,0.0012314916,-0.002295494,0.0,0.0,0.0
757.02747,548.9713,130418855,0.825,0.08510638,241.31796,-36.172123,5.4587424E-4,0.0012314916,-0.002295494,0.0,0.0,0.0
760.67487,548.9713,130418871,0.825,0.08510638,248.44102,-40.744514,5.4587424E-4,0.0012314916,-0.002295494,0.0,0.0,0.0
762.7794,548.9713,130418888,0.8125,0.08510638,191.59065,-8.950281,5.4587424E-4,0.0012314916,-0.002295494,0.0,0.0,0.0
765.97284,548.9713,130418905,0.825,0.08510638,147.50475,-0.0072077205,5.4587424E-4,0.0012314916,-0.002295494,0.0,0.0,0.0
768.5424,548.9713,130418922,0.8125,0.08510638,132.07066,-0.02146198,5.4587424E-4,0.0012314916,-0.002295494,0.0,0.0,0.0
772.2697,548.9713,130418938,0.8,0.08510638,173.62491,-0.009153735,5.4587424E-4,0.0012314916,-0.002295494,0.0,0.0,0.0
777.14545,548.9713,130418955,0.8125,0.08510638,252.727,0.0058503547,5.4587424E-4,0.0012314916,-0.002295494,0.0,0.0,0.0
781.345,548.57275,130418972,0.8,0.06382979,307.23117,-6.5170655,5.4587424E-4,0.0012314916,-0.002295494,0.0,0.0,0.0
786.77167,547.19434,130418988,0.8,0.07446808,338.08902,-58.612255,5.4587424E-4,0.0012314916,-0.002295494,0.0,0.0,0.0
791.36505,546.6858,130419005,0.8,0.07446808,322.99677,-70.85669,5.4587424E-4,0.0012314916,-0.002295494,0.0,0.0,0.0
796.3975,546.3059,130419022,0.7875,0.08510638,300.9276,-62.38816,5.4587424E-4,0.0012314916,-0.002295494,0.0,0.0,0.0
802.7667,545.65845,130419039,0.77500004,0.08510638,329.95712,-27.756433,5.4587424E-4,0.0012314916,-0.002295494,0.0,0.0,0.0
810.44403,543.0939,130419055,0.7875,0.08510638,414.71222,-61.4987,5.4587424E-4,0.0012314916,-0.002295494,0.0,0.0,0.0
817.93164,541.0459,130419072,0.77500004,0.06382979,499.42413,-146.71927,5.4587424E-4,0.0012314916,-0.002295494,0.0,0.0,0.0
825.2496,538.2991,130419089,0.7625,0.06382979,517.16644,-199.00165,5.4587424E-4,0.0012314916,-0.002295494,0.0,0.0,0.0
833.0142,535.5657,130419105,0.7625,0.06382979,498.1255,-214.1012,5.4587424E-4,0.0012314916,-0.002295494,0.0,0.0,0.0
843.0224,531.7988,130419122,0.77500004,0.08510638,531.5178,-211.57526,5.4587424E-4,0.0012314916,-0.002295494,0.0,0.0,0.0
854.59045,527.3595,130419139,0.75,0.09574468,650.29254,-248.53682,5.4587424E-4,0.0012314916,-0.002295494,0.0,0.0,0.0
866.46826,523.23425,130419155,0.7625,0.10638297,770.5793,-286.30423,5.4587424E-4,0.0012314916,-0.002295494,0.0,0.0,0.0
877.7961,517.74255,130419172,0.7875,0.10638297,797.373,-325.54318,5.4587424E-4,0.0012314916,-0.002295494,0.0,0.0,0.0
889.7895,511.7356,130419189,0.7875,0.10638297,746.0648,-367.47433,5.4587424E-4,0.0012314916,-0.002295494,0.0,0.0,0.0
903.61475,504.44727,130419206,0.75,0.11702127,768.4136,-431.39062,5.4587424E-4,0.0012314916,-0.002295494,0.0,0.0,0.0
916.9558,497.1504,130419222,0.7375,0.08510638,826.3484,-483.8904,5.4587424E-4,0.0012314916,-0.002295494,0.0,0.0,0.0
929.17065,489.62268,130419239,0.75,0.06382979,840.8088,-501.04108,5.4587424E-4,0.0012314916,-0.002295494,0.0,0.0,0.0
941.48413,482.30176,130419256,0.75,0.06382979,747.1091,-477.6217,5.4587424E-4,0.0012314916,-0.002295494,0.0,0.0,0.0
953.3997,474.83313,130419272,0.75,0.08510638,689.5223,-451.682,0.016436696,-0.015014797,-0.01783657,0.0,0.0,0.0
964.41675,466.54016,130419289,0.7375,0.12765957,640.26605,-452.2359,0.016436696,-0.015014797,-0.01783657,0.0,0.0,0.0
973.8815,457.23767,130419306,0.75,0.10638297,607.99036,-536.5662,0.016436696,-0.015014797,-0.01783657,0.0,0.0,0.0
981.8689,448.30322,130419323,0.75,0.08510638,517.3336,-586.87103,0.016436696,-0.015014797,-0.01783657,0.0,0.0,0.0
989.02527,441.0686,130419339,0.7375,0.06382979,400.6069,-552.3039,0.016436696,-0.015014797,-0.01783657,0.0,0.0,0.0
993.98486,435.69092,130419356,0.75,0.06382979,279.06998,-397.7634,0.016436696,-0.015014797,-0.01783657,0.0,0.0,0.0
998.40955,429.79187,130419373,0.7375,0.06382979,189.27025,-285.70523,0.016436696,-0.015014797,-0.01783657,0.0,0.0,0.0
1003.55176,424.26904,130419389,0.75,0.08510638,200.98698,-257.54153,0.016436696,-0.015014797,-0.01783657,0.0,0.0,0.0
1007.6887,418.7539,130419406,0.75,0.10638297,219.96309,-294.86932,0.016436696,-0.015014797,-0.01783657,0.0,0.0,0.0
1010.8037,413.64368,130419423,0.75,0.12765957,207.76776,-309.28412,0.016436696,-0.015014797,-0.01783657,0.0,0.0,0.0
1013.5581,407.8589,130419440,0.75,0.11702127,138.45474,-303.12415,0.016436696,-0.015014797,-0.01783657,0.0,0.0,0.0
1016.36865,402.22168,130419456,0.7375,0.09574468,118.96549,-330.56134,0.016436696,-0.015014797,-0.01783657,0.0,0.0,0.0
1018.45264,396.66492,130419473,0.7375,0.09574468,110.47909,-336.8395,0.016436696,-0.015014797,-0.01783657,0.0,0.0,0.0
1021.05005,391.87573,130419490,0.7375,0.08510638,117.21199,-325.522,0.016436696,-0.015014797,-0.01783657,0.0,0.0,0.0
1023.15015,388.1427,130419506,0.7375,0.08510638,125.98005,-256.038,0.016436696,-0.015014797,-0.01783657,0.0,0.0,0.0
1026.2766,384.4408,130419523,0.7375,0.08510638,151.45697,-201.69455,0.016436696,-0.015014797,-0.01783657,0.0,0.0,0.0
1028.31,380.7478,130419540,0.75,0.08510638,155.5676,-176.61626,0.016436696,-0.015014797,-0.01783657,0.0,0.0,0.0
1030.8776,376.18347,130419557,0.7375,0.07446808,149.4605,-205.95312,0.016436696,-0.015014797,-0.01783657,0.0,0.0,0.0
1033.0015,372.40833,130419573,0.7375,0.08510638,136.05055,-240.9936,0.016436696,-0.015014797,-0.01783657,0.0,0.0,0.0
1034.0393,368.78638,130419590,0.7375,0.08510638,93.68423,-244.23251,0.016436696,-0.015014797,-0.01783657,0.0,0.0,0.0
1035.6229,365.08264,130419607,0.7375,0.10638297,68.83495,-223.48567,0.016436696,-0.015014797,-0.01783657,0.0,0.0,0.0
1038.13,359.30212,130419623,0.7375,0.12765957,91.23016,-262.41174,0.016436696,-0.015014797,-0.01783657,0.0,0.0,0.0
1040.1874,352.92798,130419640,0.7625,0.12765957,127.08336,-362.68903,0.016436696,-0.015014797,-0.01783657,0.0,0.0,0.0
1041.4846,347.82922,130419657,0.7375,0.10638297,131.86275,-412.35867,0.016436696,-0.015014797,-0.01783657,0.0,0.0,0.0
1042.5167,342.59912,130419673,0.75,0.08510638,79.20225,-367.235,0.016436696,-0.015014797,-0.01783657,0.0,0.0,0.0
1043.0677,338.77234,130419690,0.75,0.08510638,21.936998,-263.863,0.016436696,-0.015014797,-0.01783657,0.0,0.0,0.0
1044.118,335.76587,130419707,0.75,0.07446808,10.190881,-179.74965,0.016436696,-0.015014797,-0.01783657,0.0,0.0,0.0
1045.1599,332.0973,130419724,0.75,0.06382979,41.676735,-158.87971,0.016436696,-0.015014797,-0.01783657,0.0,0.0,0.0
1046.2014,329.3971,130419740,0.75,0.06382979,64.22645,-152.1093,0.016436696,-0.015014797,-0.01783657,0.0,0.0,0.0
1047.2472,326.64966,130419757,0.7375,0.06382979,70.25623,-140.77025,0.016436696,-0.015014797,-0.01783657,0.0,0.0,0.0
1047.7748,323.68945,130419774,0.75,0.06382979,53.76086,-148.87015,0.016436696,-0.015014797,-0.01783657,0.0,0.0,0.0
1048.8208,319.97058,130419790,0.75,0.06382979,44.260017,-178.18347,0.016436696,-0.015014797,-0.01783657,0.0,0.0,0.0
1049.8527,317.19067,130419807,0.7375,0.08510638,49.930946,-186.15791,-0.0028506368,0.035988152,0.0497303,0.0,0.0,0.0
1051.654,313.02417,130419824,0.7375,0.09574468,82.299515,-223.15228,-0.0028506368,0.035988152,0.0497303,0.0,0.0,0.0
1053.432,308.01953,130419841,0.75,0.09574468,123.62206,-284.5137,-0.0028506368,0.035988152,0.0497303,0.0,0.0,0.0
1054.7845,303.7887,130419857,0.75,0.10638297,117.99965,-299.45966,-0.0028506368,0.035988152,0.0497303,0.0,0.0,0.0
1056.4916,298.28406,130419874,0.75,0.10638297,109.492226,-330.28928,-0.0028506368,0.035988152,0.0497303,0.0,0.0,0.0
1057.5336,293.43774,130419891,0.75,0.09574468,79.56914,-333.30292,-0.0028506368,0.035988152,0.0497303,0.0,0.0,0.0
1058.583,288.81836,130419907,0.75,0.09574468,54.85819,-303.34283,-0.0028506368,0.035988152,0.0497303,0.0,0.0,0.0
1059.6307,285.09387,130419924,0.7375,0.08510638,52.20164,-269.149,-0.0028506368,0.035988152,0.0497303,0.0,0.0,0.0
1060.1327,280.5603,130419941,0.725,0.06382979,35.310562,-233.55927,-0.0028506368,0.035988152,0.0497303,0.0,0.0,0.0
1060.1327,276.7953,130419958,0.7375,0.06382979,9.912583,-217.40738,-0.0028506368,0.035988152,0.0497303,0.0,0.0,0.0
1060.1327,273.06848,130419974,0.75,0.06382979,-16.170954,-214.3907,-0.0028506368,0.035988152,0.0497303,0.0,0.0,0.0
1060.1327,271.18848,130419991,0.7375,0.06382979,-28.211582,-156.2897,-0.0028506368,0.035988152,0.0497303,0.0,0.0,0.0
1060.1327,268.7533,130420008,0.75,0.06382979,-20.525347,-117.1348,-0.0028506368,0.035988152,0.0497303,0.0,0.0,0.0
1059.9052,266.91125,130420024,0.7375,0.06382979,-3.601867,-87.98905,-0.0028506368,0.035988152,0.0497303,0.0,0.0,0.0
1058.9366,263.95215,130420041,0.725,0.06382979,-35.45342,-107.16475,-0.0028506368,0.035988152,0.0497303,0.0,0.0,0.0
1057.8575,261.4945,130420058,0.75,0.08510638,-71.90475,-154.4969,-0.0028506368,0.035988152,0.0497303,0.0,0.0,0.0
1056.8142,258.75134,130420075,0.7625,0.08510638,-90.084984,-167.5969,-0.0028506368,0.035988152,0.0497303,0.0,0.0,0.0
1055.3867,256.87805,130420091,0.75,0.10638297,-91.637764,-154.87827,-0.0028506368,0.035988152,0.0497303,0.0,0.0,0.0
1053.7168,253.24548,130420108,0.75,0.10638297,-101.44788,-160.72139,-0.0028506368,0.035988152,0.0497303,0.0,0.0,0.0
1051.1926,248.72485,130420125,0.7375,0.12765957,-130.89189,-223.82536,-0.0028506368,0.035988152,0.0497303,0.0,0.0,0.0
1049.0931,245.02649,130420141,0.75,0.12765957,-159.98549,-279.66418,-0.0028506368,0.035988152,0.0497303,0.0,0.0,0.0
1046.4598,241.33911,130420158,0.75,0.12765957,-170.18686,-271.5384,-0.0028506368,0.035988152,0.0497303,0.0,0.0,0.0
1043.343,237.64551,130420175,0.75,0.11702127,-186.71243,-238.00414,-0.0028506368,0.035988152,0.0497303,0.0,0.0,0.0
1040.7314,235.73535,130420192,0.7625,0.11702127,-189.89754,-156.67033,-0.0028506368,0.035988152,0.0497303,0.0,0.0,0.0
1037.6058,233.23633,130420208,0.75,0.09574468,-188.46405,-121.32272,-0.0028506368,0.035988152,0.0497303,0.0,0.0,0.0
1035.4766,231.38232,130420225,0.7375,0.09574468,-165.92131,-92.25452,-0.0028506368,0.035988152,0.0497303,0.0,0.0,0.0
1033.1262,229.54077,130420242,0.7375,0.09574468,-131.98958,-79.91454,-0.0028506368,0.035988152,0.0497303,0.0,0.0,0.0
1030.2584,227.698,130420258,0.75,0.09574468,-139.1124,-93.06861,-0.0028506368,0.035988152,0.0497303,0.0,0.0,0.0
1027.2073,225.89014,130420275,0.7625,0.09574468,-165.62755,-92.48523,-0.0028506368,0.035988152,0.0497303,0.0,0.0,0.0
1024.0894,224.93127,130420292,0.7625,0.09574468,-194.7436,-81.00713,-0.0028506368,0.035988152,0.0497303,0.0,0.0,0.0
1021.08374,223.77917,130420308,0.75,0.08510638,-195.0601,-61.403828,-0.0028506368,0.035988152,0.0497303,0.0,0.0,0.0
1017.29004,222.08716,130420325,0.7625,0.07446808,-213.8779,-58.01083,-0.0028506368,0.035988152,0.0497303,0.0,0.0,0.0
1012.13745,222.0022,130420342,0.7625,0.06382979,-270.92078,-42.23136,0.013719484,-0.0032095015,-0.008214951,0.0,0.0,0.0
1008.0221,222.0022,130420359,0.77500004,0.06382979,-308.45663,-7.531345,0.013719484,-0.0032095015,-0.008214951,0.0,0.0,0.0
1003.48645,222.0022,130420375,0.77500004,0.08510638,-309.33496,23.188189,0.013719484,-0.0032095015,-0.008214951,0.0,0.0,0.0
998.56445,222.0022,130420392,0.77500004,0.08510638,-294.92548,34.922867,0.013719484,-0.0032095015,-0.008214951,0.0,0.0,0.0
994.04126,222.0022,130420409,0.77500004,0.07446808,-279.81934,22.34589,0.013719484,-0.0032095015,-0.008214951,0.0,0.0,0.0
989.2677,222.0022,130420425,0.77500004,0.09574468,-281.79007,0.010834286,0.013719484,-0.0032095015,-0.008214951,0.0,0.0,0.0
983.61646,222.3722,130420442,0.7625,0.09574468,-319.7073,5.87934,0.013719484,-0.0032095015,-0.008214951,0.0,0.0,0.0
978.2529,222.89062,130420459,0.7875,0.09574468,-341.96085,32.45305,0.013719484,-0.0032095015,-0.008214951,0.0,0.0,0.0
972.67993,222.89062,130420476,0.7875,0.09574468,-351.5345,28.569424,0.013719484,-0.0032095015,-0.008214951,0.0,0.0,0.0
967.5845,224.16248,130420492,0.7875,0.08510638,-335.62222,42.235847,0.013719484,-0.0032095015,-0.008214951,0.0,0.0,0.0
959.5309,226.25244,130420509,0.8125,0.08510638,-373.7513,93.95627,0.013719484,-0.0032095015,-0.008214951,0.0,0.0,0.0
952.63214,226.4447,130420526,0.8,0.08510638,-447.86676,100.10645,0.013719484,-0.0032095015,-0.008214951,0.0,0.0,0.0
945.2851,228.18762,130420542,0.8,0.09574468,-501.28802,99.91996,0.013719484,-0.0032095015,-0.008214951,0.0,0.0,0.0
938.0186,228.22168,130420559,0.8125,0.10638297,-482.43558,45.59765,0.013719484,-0.0032095015,-0.008214951,0.0,0.0,0.0
930.1845,230.10767,130420576,0.7875,0.12765957,-460.7334,45.393955,0.013719484,-0.0032095015,-0.008214951,0.0,0.0,0.0
921.74506,233.72363,130420593,0.8,0.12765957,-477.1279,148.99976,0.013719484,-0.0032095015,-0.008214951,0.0,0.0,0.0
911.37134,237.57227,130420609,0.8,0.12765957,-579.955,247.58534,0.013719484,-0.0032095015,-0.008214951,0.0,0.0,0.0
900.9458,241.27869,130420626,0.8125,0.10638297,-657.30664,294.1837,0.013719484,-0.0032095015,-0.008214951,0.0,0.0,0.0
891.2209,246.26831,130420643,0.825,0.09574468,-679.1858,328.88654,0.013719484,-0.0032095015,-0.008214951,0.0,0.0,0.0
882.6264,251.80981,130420659,0.8,0.08510638,-591.1693,330.34167,0.013719484,-0.0032095015,-0.008214951,0.0,0.0,0.0
875.4542,256.42163,130420676,0.8125,0.08510638,-461.0634,336.5975,0.013719484,-0.0032095015,-0.008214951,0.0,0.0,0.0
868.44,261.9253,130420693,0.825,0.08510638,-364.7886,337.0619,0.013719484,-0.0032095015,-0.008214951,0.0,0.0,0.0
862.91754,265.91516,130420710,0.825,0.08510638,-301.53268,291.62213,0.013719484,-0.0032095015,-0.008214951,0.0,0.0,0.0
857.2421,270.48364,130420726,0.83750004,0.08510638,-280.98618,256.63367,0.013719484,-0.0032095015,-0.008214951,0.0,0.0,0.0
851.4502,275.135,130420743,0.85,0.10638297,-287.95163,253.86151,0.013719484,-0.0032095015,-0.008214951,0.0,0.0,0.0
847.2064,278.8612,130420760,0.83750004,0.09574468,-283.80286,241.57173,0.013719484,-0.0032095015,-0.008214951,0.0,0.0,0.0
843.0108,283.51428,130420776,0.825,0.10638297,-235.83905,244.77896,0.013719484,-0.0032095015,-0.008214951,0.0,0.0,0.0
839.386,287.146,130420793,0.83750004,0.10638297,-200.87088,240.59485,0.013719484,-0.0032095015,-0.008214951,0.0,0.0,0.0
836.35266,290.83508,130420810,0.85,0.10638297,-160.07193,218.83296,0.013719484,-0.0032095015,-0.008214951,0.0,0.0,0.0
832.60065,296.5558,130420827,0.83750004,0.09574468,-169.85434,263.27744,0.013719484,-0.0032095015,-0.008214951,0.0,0.0,0.0
828.6211,301.7744,130420843,0.8125,0.08510638,-211.70398,325.2033,0.013719484,-0.0032095015,-0.008214951,0.0,0.0,0.0
825.4992,305.47388,130420860,0.83750004,0.08510638,-214.75685,317.28598,0.013719484,-0.0032095015,-0.008214951,0.0,0.0,0.0
821.92755,310.46643,130420877,0.85,0.07446808,-212.01233,282.59375,0.010975584,-0.018567592,0.009428024,0.0,0.0,0.0
819.62634,314.557,130420893,0.83750004,0.08510638,-168.40459,242.18852,0.010975584,-0.018567592,0.009428024,0.0,0.0,0.0
817.577,318.7638,130420910,0.825,0.08510638,-111.761635,220.54489,0.010975584,-0.018567592,0.009428024,0.0,0.0,0.0
815.49866,323.417,130420927,0.825,0.08510638,-90.60921,254.76541,0.010975584,-0.018567592,0.009428024,0.0,0.0,0.0
813.3453,328.3877,130420943,0.8125,0.09574468,-89.359924,286.26343,0.010975584,-0.018567592,0.009428024,0.0,0.0,0.0
810.80396,333.79358,130420960,0.825,0.11702127,-117.83546,316.1211,0.010975584,-0.018567592,0.009428024,0.0,0.0,0.0
807.80145,339.13074,130420977,0.8125,0.12765957,-168.89487,352.69412,0.010975584,-0.018567592,0.009428024,0.0,0.0,0.0
804.56323,344.88696,130420994,0.825,0.12765957,-199.454,346.60886,0.010975584,-0.018567592,0.009428024,0.0,0.0,0.0
800.31573,352.43713,130421010,0.825,0.10638297,-245.20079,406.5058,0.010975584,-0.018567592,0.009428024,0.0,0.0,0.0
796.18243,358.89612,130421027,0.8125,0.07446808,-277.90533,442.0865,0.010975584,-0.018567592,0.009428024,0.0,0.0,0.0
791.33234,367.51758,130421044,0.825,0.06382979,-300.00244,493.67148,0.010975584,-0.018567592,0.009428024,0.0,0.0,0.0
786.88605,375.04993,130421060,0.825,0.06382979,-308.86627,527.01697,0.010975584,-0.018567592,0.009428024,0.0,0.0,0.0
782.5967,380.46814,130421077,0.83750004,0.09574468,-287.1559,448.2095,0.010975584,-0.018567592,0.009428024,0.0,0.0,0.0
776.53076,387.99573,130421094,0.825,0.12765957,-312.35556,383.37,0.010975584,-0.018567592,0.009428024,0.0,0.0,0.0
770.40454,395.64233,130421111,0.825,0.12765957,-364.28424,390.89914,0.010975584,-0.018567592,0.009428024,0.0,0.0,0.0
764.9756,403.08374,130421127,0.825,0.11702127,-385.74835,440.29227,0.010975584,-0.018567592,0.009428024,0.0,0.0,0.0
758.75464,410.6328,130421144,0.825,0.09574468,-387.9132,489.8345,0.010975584,-0.018567592,0.009428024,0.0,0.0,0.0
751.6465,417.94165,130421161,0.825,0.08510638,-386.79987,454.51178,0.010975584,-0.018567592,0.009428024,0.0,0.0,0.0
744.2591,424.56006,130421177,0.8125,0.07446808,-443.18106,419.6106,0.010975584,-0.018567592,0.009428024,0.0,0.0,0.0
736.86566,429.8269,130421194,0.8125,0.06382979,-485.5341,366.9104,0.010975584,-0.018567592,0.009428024,0.0,0.0,0.0
729.73395,435.62854,130421211,0.825,0.08510638,-474.24286,305.93073,0.010975584,-0.018567592,0.009428024,0.0,0.0,0.0
724.16156,439.20972,130421228,0.825,0.09574468,-402.4145,234.56088,0.010975584,-0.018567592,0.009428024,0.0,0.0,0.0
719.5615,442.95703,130421244,0.825,0.10638297,-295.27673,176.68687,0.010975584,-0.018567592,0.009428024,0.0,0.0,0.0
715.9721,445.703,130421261,0.8125,0.12765957,-206.35286,145.74583,0.010975584,-0.018567592,0.009428024,0.0,0.0,0.0
712.63495,448.04395,130421278,0.8125,0.12765957,-138.38176,109.65024,0.010975584,-0.018567592,0.009428024,0.0,0.0,0.0
708.9438,452.18774,130421294,0.83750004,0.12765957,-137.79486,135.83942,0.010975584,-0.018567592,0.009428024,0.0,0.0,0.0
706.67456,455.80872,130421311,0.8125,0.11702127,-148.13914,205.35912,0.010975584,-0.018567592,0.009428024,0.0,0.0,0.0
704.62305,459.45544,130421328,0.825,0.11702127,-115.01451,242.25862,0.010975584,-0.018567592,0.009428024,0.0,0.0,0.0
703.353,462.60144,130421344,0.83750004,0.09574468,-70.97652,245.72772,0.010975584,-0.018567592,0.009428024,0.0,0.0,0.0
702.7491,465.99646,130421361,0.85,0.09574468,-20.126108,193.00925,0.010975584,-0.018567592,0.009428024,0.0,0.0,0.0
701.7798,469.78638,130421378,0.85,0.09574468,-0.6423798,185.95692,0.010975584,-0.018567592,0.009428024,0.0,0.0,0.0
701.7494,473.49524,130421395,0.85,0.08510638,3.9279585,220.42607,0.010975584,-0.018567592,0.009428024,0.0,0.0,0.0
701.7494,477.11023,130421411,0.83750004,0.08510638,17.072779,232.44693,-0.007219523,0.017145932,0.00754261,0.0,0.0,0.0
701.7494,479.99707,130421428,0.83750004,0.08510638,18.498709,209.86115,-0.007219523,0.017145932,0.00754261,0.0,0.0,0.0
701.8735,482.5542,130421445,0.83750004,0.08510638,21.353348,158.78108,-0.007219523,0.017145932,0.00754261,0.0,0.0,0.0
702.24927,484.41516,130421461,0.85,0.08510638,28.939661,118.82341,-0.007219523,0.017145932,0.00754261,0.0,0.0,0.0
702.24927,484.99915,130421478,0.875,0.08510638,16.488113,59.863144,-0.007219523,0.017145932,0.00754261,0.0,0.0,0.0
702.6265,484.99915,130421495,0.8625,0.08510638,16.08101,-16.06563,-0.007219523,0.017145932,0.00754261,0.0,0.0,0.0
703.52325,484.99915,130421512,0.875,0.08510638,33.332485,-64.55311,-0.007219523,0.017145932,0.00754261,0.0,0.0,0.0
704.5498,484.99915,130421528,0.8875,0.07446808,60.38855,-61.417988,-0.007219523,0.017145932,0.00754261,0.0,0.0,0.0
705.56256,485.55786,130421545,0.8875,0.07446808,84.03928,-15.331613,-0.007219523,0.017145932,0.00754261,0.0,0.0,0.0
706.61707,485.8877,130421562,0.8875,0.07446808,80.07337,32.11486,-0.007219523,0.017145932,0.00754261,0.0,0.0,0.0
707.6761,485.8877,130421578,0.8875,0.07446808,68.42259,26.607538,-0.007219523,0.017145932,0.00754261,0.0,0.0,0.0
709.7323,485.8877,130421595,0.8625,0.07446808,88.85376,9.2918005,-0.007219523,0.017145932,0.00754261,0.0,0.0,0.0
711.80725,485.8877,130421612,0.8625,0.07446808,129.96996,-8.85831,-0.007219523,0.017145932,0.00754261,0.0,0.0,0.0
714.38226,485.8877,130421629,0.85,0.06382979,167.12814,-12.769102,-0.007219523,0.017145932,0.00754261,0.0,0.0,0.0
717.5722,484.80493,130421645,0.825,0.06382979,198.8114,-25.567335,-0.007219523,0.017145932,0.00754261,0.0,0.0,0.0
720.01184,483.8722,130421662,0.825,0.06382979,196.501,-64.87549,-0.007219523,0.017145932,0.00754261,0.0,0.0,0.0
722.69714,482.06433,130421679,0.825,0.06382979,173.04608,-106.26878,-0.007219523,0.017145932,0.00754261,0.0,0.0,0.0
725.4089,480.1615,130421695,0.825,0.06382979,157.475,-139.4292,-0.007219523,0.017145932,0.00754261,0.0,0.0,0.0
728.24677,479.21863,130421712,0.825,0.06382979,163.49057,-111.33988,-0.007219523,0.017145932,0.00754261,0.0,0.0,0.0
730.7954,478.28613,130421729,0.8125,0.07446808,165.3975,-65.66277,-0.007219523,0.017145932,0.00754261,0.0,0.0,0.0
734.0716,477.39783,130421746,0.8125,0.07446808,175.19609,-36.696686,-0.007219523,0.017145932,0.00754261,0.0,0.0,0.0
737.261,475.50806,130421762,0.8,0.07446808,185.18202,-53.764656,-0.007219523,0.017145932,0.00754261,0.0,0.0,0.0
740.81836,473.6344,130421779,0.8,0.09574468,207.91025,-105.85426,-0.007219523,0.017145932,0.00754261,0.0,0.0,0.0
745.1222,471.7218,130421796,0.77500004,0.09574468,250.92084,-142.55617,-0.007219523,0.017145932,0.00754261,0.0,0.0,0.0
748.8122,469.85986,130421812,0.7875,0.09574468,253.84732,-137.39107,-0.007219523,0.017145932,0.00754261,0.0,0.0,0.0
752.44507,468.02332,130421829,0.77500004,0.11702127,244.10826,-123.0468,-0.007219523,0.017145932,0.00754261,0.0,0.0,0.0
756.0896,466.18152,130421846,0.7875,0.12765957,230.04218,-112.11099,-0.007219523,0.017145932,0.00754261,0.0,0.0,0.0
760.1852,464.15955,130421863,0.77500004,0.12765957,228.44324,-113.10361,-0.007219523,0.017145932,0.00754261,0.0,0.0,0.0
764.919,460.51892,130421879,0.7875,0.10638297,259.54575,-163.82326,-0.007219523,0.017145932,0.00754261,0.0,0.0,0.0
770.55597,457.60754,130421896,0.7875,0.10638297,324.462,-200.32193,-0.007219523,0.017145932,0.00754261,0.0,0.0,0.0
775.2078,454.80566,130421913,0.77500004,0.10638297,341.7921,-217.37534,-0.007219523,0.017145932,0.00754261,0.0,0.0,0.0
780.31934,451.17944,130421929,0.7875,0.09574468,316.91553,-215.08609,-0.007219523,0.017145932,0.00754261,0.0,0.0,0.0
785.9278,447.56006,130421946,0.7875,0.08510638,314.285,-211.92632,-0.013775617,-0.0022832751,-0.009965897,0.0,0.0,0.0
790.78564,444.4602,130421963,0.77500004,0.08510638,305.57062,-218.9659,-0.013775617,-0.0022832751,-0.009965897,0.0,0.0,0.0
796.422,441.93433,130421979,0.77500004,0.08510638,322.71933,-171.8541,-0.013775617,-0.0022832751,-0.009965897,0.0,0.0,0.0
803.66815,438.18677,130421996,0.7875,0.08510638,367.74365,-169.11879,-0.013775617,-0.0022832751,-0.009965897,0.0,0.0,0.0
810.74255,434.56384,130422013,0.7625,0.07446808,438.2663,-198.33965,-0.013775617,-0.0022832751,-0.009965897,0.0,0.0,0.0
818.42236,430.69336,130422030,0.7625,0.06382979,504.92444,-241.52762,-0.013775617,-0.0022832751,-0.009965897,0.0,0.0,0.0
825.19977,426.9973,130422046,0.77500004,0.06382979,489.3113,-255.95682,-0.013775617,-0.0022832751,-0.009965897,0.0,0.0,0.0
833.6268,423.32898,130422063,0.7625,0.08510638,473.09714,-232.81442,-0.013775617,-0.0022832751,-0.009965897,0.0,0.0,0.0
841.15735,419.8363,130422080,0.77500004,0.10638297,478.27054,-213.03297,-0.013775617,-0.0022832751,-0.009965897,0.0,0.0,0.0
849.3432,413.93774,130422096,0.7625,0.11702127,499.33646,-271.6444,-0.013775617,-0.0022832751,-0.009965897,0.0,0.0,0.0
857.3093,410.53784,130422113,0.7625,0.12765957,493.29486,-281.8373,-0.013775617,-0.0022832751,-0.009965897,0.0,0.0,0.0
866.6416,406.83484,130422130,0.7625,0.12765957,510.00186,-257.0842,-0.013775617,-0.0022832751,-0.009965897,0.0,0.0,0.0
874.06665,403.1942,130422147,0.77500004,0.10638297,506.8752,-211.46846,-0.013775617,-0.0022832751,-0.009965897,0.0,0.0,0.0
880.95953,399.54382,130422163,0.7625,0.10638297,460.13733,-180.70644,-0.013775617,-0.0022832751,-0.009965897,0.0,0.0,0.0
888.0363,395.84546,130422180,0.7625,0.09574468,392.67017,-205.30594,-0.013775617,-0.0022832751,-0.009965897,0.0,0.0,0.0
895.3974,393.6836,130422197,0.7625,0.09574468,365.6499,-178.71133,-0.013775617,-0.0022832751,-0.009965897,0.0,0.0,0.0
902.4825,391.766,130422213,0.7625,0.10638297,414.3597,-122.15521,-0.013775617,-0.0022832751,-0.009965897,0.0,0.0,0.0
910.24176,389.9159,130422230,0.75,0.09574468,456.03262,-76.71923,-0.013775617,-0.0022832751,-0.009965897,0.0,0.0,0.0
918.0699,388.06543,130422247,0.7625,0.08510638,475.21384,-68.87919,-0.013775617,-0.0022832751,-0.009965897,0.0,0.0,0.0
925.79156,386.21912,130422264,0.77500004,0.08510638,482.56363,-89.046394,-0.013775617,-0.0022832751,-0.009965897,0.0,0.0,0.0
933.5069,384.38684,130422280,0.75,0.06382979,480.8913,-109.26051,-0.013775617,-0.0022832751,-0.009965897,0.0,0.0,0.0
940.74207,382.54956,130422297,0.77500004,0.06382979,462.09906,-109.66426,-0.013775617,-0.0022832751,-0.009965897,0.0,0.0,0.0
947.74133,380.69507,130422314,0.75,0.06382979,419.26065,-109.69974,-0.013775617,-0.0022832751,-0.009965897,0.0,0.0,0.0
955.5096,378.8579,130422330,0.77500004,0.07446808,422.40863,-110.343544,-0.013775617,-0.0022832751,-0.009965897,0.0,0.0,0.0
963.1752,376.59692,130422347,0.75,0.08510638,448.0747,-116.45381,-0.013775617,-0.0022832751,-0.009965897,0.0,0.0,0.0
973.2328,374.31702,130422364,0.75,0.07446808,528.6128,-139.9903,-0.013775617,-0.0022832751,-0.009965897,0.0,0.0,0.0
980.59485,372.47424,130422381,0.75,0.06382979,554.1433,-135.10063,-0.013775617,-0.0022832751,-0.009965897,0.0,0.0,0.0
987.97864,372.15918,130422397,0.75,0.06382979,479.83557,-79.45431,-0.013775617,-0.0022832751,-0.009965897,0.0,0.0,0.0
995.3374,371.27075,130422414,0.7375,0.06382979,437.8909,-23.478699,-0.013775617,-0.0022832751,-0.009965897,0.0,0.0,0.0
1003.0513,370.4076,130422431,0.75,0.06382979,408.189,7.2165217,-0.013775617,-0.0022832751,-0.009965897,0.0,0.0,0.0
1009.2743,369.49365,130422447,0.75,0.07446808,402.13614,-32.765755,-0.013775617,-0.0022832751,-0.009965897,0.0,0.0,0.0
1016.5846,369.49365,130422464,0.7375,0.08510638,411.60706,-28.833475,-0.0030204803,-0.0018266141,0.056027412,0.0,0.0,0.0
1023.85425,369.49365,130422481,0.7375,0.08510638,403.78265,-5.883798,-0.0030204803,-0.0018266141,0.056027412,0.0,0.0,0.0
1031.1814,369.49365,130422497,0.75,0.07446808,430.5507,22.367998,-0.0030204803,-0.0018266141,0.056027412,0.0,0.0,0.0
1038.499,369.49365,130422514,0.7375,0.06382979,443.95428,27.365602,-0.0030204803,-0.0018266141,0.056027412,0.0,0.0,0.0
1045.1864,369.49365,130422531,0.7375,0.06382979,431.15164,0.027996974,-0.0030204803,-0.0018266141,0.056027412,0.0,0.0,0.0
1051.2231,369.49365,130422548,0.725,0.06382979,383.54477,0.017466959,-0.0030204803,-0.0018266141,0.056027412,0.0,0.0,0.0
1057.47,370.92615,130422564,0.725,0.06382979,349.69366,35.513466,-0.0030204803,-0.0018266141,0.056027412,0.0,0.0,0.0
1064.2112,372.15918,130422581,0.7375,0.07446808,355.29346,93.35268,-0.0030204803,-0.0018266141,0.056027412,0.0,0.0,0.0
1071.8851,372.8468,130422598,0.7375,0.08510638,392.719,94.25594,-0.0030204803,-0.0018266141,0.056027412,0.0,0.0,0.0
1081.5231,374.6908,130422614,0.725,0.08510638,531.7843,100.16461,-0.0030204803,-0.0018266141,0.056027412,0.0,0.0,0.0
1087.9034,375.64795,130422631,0.725,0.07446808,552.9641,81.06408,-0.0030204803,-0.0018266141,0.056027412,0.0,0.0,0.0
1094.1553,376.60168,130422648,0.7375,0.06382979,444.9022,69.4138,-0.0030204803,-0.0018266141,0.056027412,0.0,0.0,0.0
1099.3477,378.45972,130422665,0.725,0.06382979,320.61526,89.45141,-0.0030204803,-0.0018266141,0.056027412,0.0,0.0,0.0
1103.4536,380.30457,130422681,0.725,0.08510638,203.87299,99.57737,-0.0030204803,-0.0018266141,0.056027412,0.0,0.0,0.0
1106.481,382.14795,130422698,0.7375,0.08510638,154.06525,120.75739,-0.0030204803,-0.0018266141,0.056027412,0.0,0.0,0.0
1110.4204,384.86853,130422715,0.75,0.08510638,154.4605,158.99391,-0.0030204803,-0.0018266141,0.056027412,0.0,0.0,0.0
1113.2368,386.7433,130422731,0.75,0.09574468,138.12572,153.73215,-0.0030204803,-0.0018266141,0.056027412,0.0,0.0,0.0
1115.099,388.5824,130422748,0.7375,0.09574468,124.502205,124.51109,-0.0030204803,-0.0018266141,0.056027412,0.0,0.0,0.0
1117.0852,390.76624,130422765,0.75,0.12765957,93.88051,107.558426,-0.0030204803,-0.0018266141,0.056027412,0.0,0.0,0.0
1119.1959,393.1123,130422782,0.7375,0.12765957,78.4629,123.663864,-0.0030204803,-0.0018266141,0.056027412,0.0,0.0,0.0
1120.763,394.94934,130422798,0.75,0.12765957,86.06354,135.91592,-0.0030204803,-0.0018266141,0.056027412,0.0,0.0,0.0
1122.9774,398.5747,130422815,0.7625,0.12765957,107.13347,170.47401,-0.0030204803,-0.0018266141,0.056027412,0.0,0.0,0.0
1124.5511,401.3722,130422832,0.7625,0.12765957,109.55882,199.36559,-0.0030204803,-0.0018266141,0.056027412,0.0,0.0,0.0
1125.5918,404.11047,130422848,0.77500004,0.11702127,82.92706,200.51826,-0.0030204803,-0.0018266141,0.056027412,0.0,0.0,0.0
1126.6348,405.96448,130422865,0.77500004,0.11702127,53.77394,156.93155,-0.0030204803,-0.0018266141,0.056027412,0.0,0.0,0.0
1127.6716,408.80432,130422882,0.77500004,0.11702127,38.253006,121.547585,-0.0030204803,-0.0018266141,0.056027412,0.0,0.0,0.0
1127.6107,410.54834,130422899,0.77500004,0.09574468,13.08293,107.68564,-0.0030204803,-0.0018266141,0.056027412,0.0,0.0,0.0
1127.6107,412.38342,130422915,0.7875,0.09574468,-8.895063,110.01115,-0.0030204803,-0.0018266141,0.056027412,0.0,0.0,0.0
1127.6107,414.25342,130422932,0.7875,0.09574468,-26.069729,105.497375,-0.0030204803,-0.0018266141,0.056027412,0.0,0.0,0.0
1127.4055,417.3141,130422949,0.7875,0.07446808,-30.15421,131.27853,-0.0030204803,-0.0018266141,0.056027412,0.0,0.0,0.0
1127.111,420.04822,130422965,0.7875,0.08510638,-23.066568,168.45558,-0.0030204803,-0.0018266141,0.056027412,0.0,0.0,0.0
1127.111,423.083,130422982,0.7875,0.07446808,-15.259047,199.15678,-0.0030204803,-0.0018266141,0.056027412,0.0,0.0,0.0
1126.8121,426.0006,130422999,0.7625,0.07446808,-10.585588,199.47537,-0.0024163872,-0.0014612973,-0.0031785965,0.0,0.0,0.0
1126.6111,428.4579,130423016,0.77500004,0.07446808,-13.04426,159.8702,-0.0024163872,-0.0014612973,-0.0031785965,0.0,0.0,0.0
1126.6111,430.4673,130423032,0.7875,0.08510638,-6.9703937,136.24495,-0.0024163872,-0.0014612973,-0.0031785965,0.0,0.0,0.0
1126.6111,432.4817,130423049,0.77500004,0.07446808,-4.975805,107.98332,-0.0024163872,-0.0014612973,-0.0031785965,0.0,0.0,0.0
1126.6111,434.3584,130423066,0.7875,0.07446808,5.128495,99.15335,-0.0024163872,-0.0014612973,-0.0031785965,0.0,0.0,0.0
1126.6111,436.20667,130423082,0.7875,0.08510638,7.2812266,99.30103,-0.0024163872,-0.0014612973,-0.0031785965,0.0,0.0,0.0
1126.0624,437.0199,130423099,0.8,0.08510638,-13.38696,76.27646,-0.0024163872,-0.0014612973,-0.0031785965,0.0,0.0,0.0
1125.0145,438.96936,130423116,0.7875,0.08510638,-48.459873,76.69802,-0.0024163872,-0.0014612973,-0.0031785965,0.0,0.0,0.0
1123.931,440.8955,130423132,0.7875,0.08510638,-79.45031,86.970146,-0.0024163872,-0.0014612973,-0.0031785965,0.0,0.0,0.0
1123.518,441.62988,130423149,0.8125,0.08510638,-74.50035,79.25048,-0.0024163872,-0.0014612973,-0.0031785965,0.0,0.0,0.0
1122.6124,442.76306,130423166,0.7875,0.10638297,-55.109104,69.27925,-0.0024163872,-0.0014612973,-0.0031785965,0.0,0.0,0.0
1121.8688,444.12793,130423183,0.7875,0.10638297,-34.22444,62.27905,-0.0024163872,-0.0014612973,-0.0031785965,0.0,0.0,0.0
1120.8536,445.47742,130423199,0.8,0.10638297,-47.684063,61.286552,-0.0024163872,-0.0014612973,-0.0031785965,0.0,0.0,0.0
1120.4348,447.11023,130423216,0.8,0.12765957,-45.21143,90.44178,-0.0024163872,-0.0014612973,-0.0031785965,0.0,0.0,0.0
1119.2236,448.57056,130423233,0.8,0.12765957,-49.766922,110.34829,-0.0024163872,-0.0014612973,-0.0031785965,0.0,0.0,0.0
1118.6136,450.2036,130423249,0.7875,0.12765957,-54.63817,101.929565,-0.0024163872,-0.0014612973,-0.0031785965,0.0,0.0,0.0
1117.6465,452.06665,130423266,0.7875,0.12765957,-47.207466,104.26267,-0.0024163872,-0.0014612973,-0.0031785965,0.0,0.0,0.0
1117.614,453.9319,130423283,0.7875,0.12765957,-30.359894,108.233765,-0.0024163872,-0.0014612973,-0.0031785965,0.0,0.0,0.0
1116.5695,455.7583,130423300,0.8125,0.12765957,-29.121222,120.180916,-0.0024163872,-0.0014612973,-0.0031785965,0.0,0.0,0.0
1115.5151,457.63245,130423316,0.7875,0.12765957,-46.914017,125.120964,-0.0024163872,-0.0014612973,-0.0031785965,0.0,0.0,0.0
1114.961,459.50598,130423333,0.8,0.10638297,-52.49897,110.68386,-0.0024163872,-0.0014612973,-0.0031785965,0.0,0.0,0.0
1113.934,462.54187,130423350,0.77500004,0.10638297,-59.689648,138.29634,-0.0024163872,-0.0014612973,-0.0031785965,0.0,0.0,0.0
1112.7692,464.29065,130423366,0.77500004,0.08510638,-66.790016,145.73793,-0.0024163872,-0.0014612973,-0.0031785965,0.0,0.0,0.0
1110.5972,468.1515,130423383,0.7625,0.06382979,-103.420815,195.41138,-0.0024163872,-0.0014612973,-0.0031785965,0.0,0.0,0.0
1108.2275,471.8369,130423400,0.7625,0.07446808,-151.30443,239.9546,-0.0024163872,-0.0014612973,-0.0031785965,0.0,0.0,0.0
1105.4384,475.5448,130423417,0.77500004,0.07446808,-188.19815,257.0916,-0.0024163872,-0.0014612973,-0.0031785965,0.0,0.0,0.0
1102.995,478.4453,130423433,0.7625,0.07446808,-188.62459,232.60472,-0.0024163872,-0.0014612973,-0.0031785965,0.0,0.0,0.0
1100.1187,480.854,130423450,0.77500004,0.07446808,-171.83597,153.93376,-0.0024163872,-0.0014612973,-0.0031785965,0.0,0.0,0.0
1096.3699,484.77795,130423467,0.7875,0.08510638,-195.80081,157.71034,-0.0024163872,-0.0014612973,-0.0031785965,0.0,0.0,0.0
1091.1445,490.3069,130423483,0.7625,0.09574468,-270.20624,245.90706,-0.0024163872,-0.0014612973,-0.0031785965,0.0,0.0,0.0
1084.8923,495.45728,130423500,0.7625,0.11702127,-378.58615,350.28287,-0.0024163872,-0.0014612973,-0.0031785965,0.0,0.0,0.0
1076.2373,500.92725,130423517,0.7875,0.12765957,-504.95114,402.22626,-0.0024163872,-0.0014612973,-0.0031785965,0.0,0.0,0.0
1067.2969,505.75793,130423534,0.8,0.10638297,-595.31995,358.08682,-0.009933114,-0.0011690557,-0.0025424957,0.0,0.0,0.0
1055.1895,512.5072,130423550,0.8,0.10638297,-734.4535,354.74658,-0.009933114,-0.0011690557,-0.0025424957,0.0,0.0,0.0
1042.6909,519.2112,130423567,0.8,0.09574468,-820.2948,396.65692,-0.009933114,-0.0011690557,-0.0025424957,0.0,0.0,0.0
1023.9419,527.41846,130423584,0.8,0.07446808,-1022.06195,480.9152,-0.009933114,-0.0011690557,-0.0025424957,0.0,0.0,0.0
1006.11646,534.4,130423600,0.8,0.06382979,-1181.9232,497.80292,-0.009933114,-0.0011690557,-0.0025424957,0.0,0.0,0.0
990.72205,538.89795,130423617,0.8125,0.07446808,-1150.2025,363.86777,-0.009933114,-0.0011690557,-0.0025424957,0.0,0.0,0.0
975.3867,543.1128,130423634,0.8125,0.08510638,-1075.4865,266.63556,-0.009933114,-0.0011690557,-0.0025424957,0.0,0.0,0.0
962.02405,546.0065,130423651,0.8125,0.08510638,-810.14923,142.08249,-0.009933114,-0.0011690557,-0.0025424957,0.0,0.0,0.0
946.3469,548.8219,130423667,0.8125,0.08510638,-785.6234,92.25923,-0.009933114,-0.0011690557,-0.0025424957,0.0,0.0,0.0
933.94763,550.7079,130423684,0.8125,0.08510638,-796.61237,80.99224,-0.009933114,-0.0011690557,-0.0025424957,0.0,0.0,0.0
921.9984,552.5499,130423701,0.8125,0.11702127,-733.4028,71.630745,-0.009933114,-0.0011690557,-0.0025424957,0.0,0.0,0.0
909.1409,554.38245,130423717,0.83750004,0.09574468,-714.4748,76.22791,-0.009933114,-0.0011690557,-0.0025424957,0.0,0.0,0.0
898.7747,555.1909,130423734,0.83750004,0.09574468,-637.8751,60.960518,-0.009933114,-0.0011690557,-0.0025424957,0.0,0.0,0.0
888.25073,556.2877,130423751,0.83750004,0.10638297,-613.5887,38.882843,-0.009933114,-0.0011690557,-0.0025424957,0.0,0.0,0.0
879.74567,558.09656,130423767,0.8,0.12765957,-536.0755,57.1259,-0.009933114,-0.0011690557,-0.0025424957,0.0,0.0,0.0
872.8861,559.96533,130423784,0.8,0.12765957,-402.95877,90.02774,-0.009933114,-0.0011690557,-0.0025424957,0.0,0.0,0.0
866.6321,561.78845,130423801,0.825,0.12765957,-317.09488,132.94618,-0.009933114,-0.0011690557,-0.0025424957,0.0,0.0,0.0
861.7439,563.61096,130423818,0.8125,0.12765957,-238.51799,133.70749,-0.009933114,-0.0011690557,-0.0025424957,0.0,0.0,0.0
858.47723,565.3916,130423834,0.825,0.12765957,-174.1075,105.80388,-0.009933114,-0.0011690557,-0.0025424957,0.0,0.0,0.0
856.3879,565.8529,130423851,0.83750004,0.12765957,-89.101006,71.693954,-0.009933114,-0.0011690557,-0.0025424957,0.0,0.0,0.0
855.2886,567.47144,130423868,0.85,0.10638297,-10.485932,47.94944,-0.009933114,-0.0011690557,-0.0025424957,0.0,0.0,0.0
854.69965,569.3185,130423884,0.875,0.10638297,32.011112,68.38368,-0.009933114,-0.0011690557,-0.0025424957,0.0,0.0,0.0
854.69965,570.2954,130423901,0.875,0.11702127,53.890957,91.03374,-0.009933114,-0.0011690557,-0.0025424957,0.0,0.0,0.0
856.1946,571.17993,130423918,0.8875,0.09574468,85.20601,76.3377,-0.009933114,-0.0011690557,-0.0025424957,0.0,0.0,0.0
859.4575,573.0762,130423935,0.8625,0.09574468,173.14658,78.84276,-0.009933114,-0.0011690557,-0.0025424957,0.0,0.0,0.0
865.8236,574.9237,130423951,0.85,0.10638297,344.2619,90.257225,-0.009933114,-0.0011690557,-0.0025424957,0.0,0.0,0.0
873.20807,574.7379,130423968,0.825,0.09574468,506.58078,69.35733,-0.009933114,-0.0011690557,-0.0025424957,0.0,0.0,0.0
881.7637,574.7379,130423985,0.825,0.09574468,608.2329,18.906275,-0.009933114,-0.0011690557,-0.0025424957,0.0,0.0,0.0
892.5235,575.62646,130424001,0.8125,0.09574468,682.90344,-25.465029,-0.009933114,-0.0011690557,-0.0025424957,0.0,0.0,0.0
905.2291,575.62646,130424018,0.7875,0.11702127,776.2275,-7.9083805,-0.009933114,-0.0011690557,-0.0025424957,0.0,0.0,0.0
919.42926,575.62646,130424035,0.7625,0.10638297,902.96515,11.248025,-0.009933114,-0.0011690557,-0.0025424957,0.0,0.0,0.0
933.2442,575.62646,130424052,0.7875,0.09574468,950.7382,-0.99508494,-0.009933114,-0.0011690557,-0.0025424957,0.0,0.0,0.0
949.11816,573.4468,130424068,0.77500004,0.09574468,971.0062,-63.259483,5.351007E-5,0.015064776,0.01396656,0.0,0.0,0.0
965.478,571.3157,130424085,0.77500004,0.12765957,1017.5726,-150.49208,5.351007E-5,0.015064776,0.01396656,0.0,0.0,0.0
980.6924,568.6459,130424102,0.77500004,0.12765957,1026.0135,-198.72537,5.351007E-5,0.015064776,0.01396656,0.0,0.0,0.0
996.7903,566.78174,130424118,0.8,0.10638297,996.77454,-203.35437,5.351007E-5,0.015064776,0.01396656,0.0,0.0,0.0
1010.9093,565.8529,130424135,0.7625,0.12765957,932.7458,-132.00996,5.351007E-5,0.015064776,0.01396656,0.0,0.0,0.0
1026.4308,563.92346,130424152,0.75,0.12765957,873.10077,-68.69249,5.351007E-5,0.015064776,0.01396656,0.0,0.0,0.0
1039.6483,563.1874,130424169,0.7625,0.10638297,832.26294,-53.79093,5.351007E-5,0.015064776,0.01396656,0.0,0.0,0.0
1051.8707,563.1874,130424185,0.77500004,0.10638297,750.92163,-7.215044,5.351007E-5,0.015064776,0.01396656,0.0,0.0,0.0
1065.6566,563.1874,130424202,0.7375,0.12765957,724.0401,18.318102,5.351007E-5,0.015064776,0.01396656,0.0,0.0,0.0
1079.4138,563.1874,130424219,0.75,0.12765957,777.687,38.06705,5.351007E-5,0.015064776,0.01396656,0.0,0.0,0.0
1092.1014,562.29895,130424235,0.75,0.10638297,791.1602,13.285774,5.351007E-5,0.015064776,0.01396656,0.0,0.0,0.0
1104.7362,562.29895,130424252,0.7625,0.10638297,795.49,-34.125023,5.351007E-5,0.015064776,0.01396656,0.0,0.0,0.0
1116.9343,561.64,130424269,0.7375,0.12765957,710.07367,-31.69353,5.351007E-5,0.015064776,0.01396656,0.0,0.0,0.0
1129.9087,560.68604,130424285,0.7375,0.12765957,702.7123,-44.679104,5.351007E-5,0.015064776,0.01396656,0.0,0.0,0.0
1141.9954,558.8353,130424302,0.7375,0.10638297,730.925,-84.92406,5.351007E-5,0.015064776,0.01396656,0.0,0.0,0.0
1153.4452,556.9933,130424319,0.75,0.09574468,712.89307,-133.00726,5.351007E-5,0.015064776,0.01396656,0.0,0.0,0.0
1164.6377,555.1846,130424336,0.7375,0.08510638,671.22546,-146.5777,5.351007E-5,0.015064776,0.01396656,0.0,0.0,0.0
1175.9111,553.2821,130424352,0.7375,0.09574468,637.61865,-133.63014,5.351007E-5,0.015064776,0.01396656,0.0,0.0,0.0
1188.4192,551.4402,130424369,0.725,0.09574468,676.72424,-120.25064,5.351007E-5,0.015064776,0.01396656,0.0,0.0,0.0
1198.5962,548.3756,130424386,0.7375,0.07446808,680.319,-138.42543,5.351007E-5,0.015064776,0.01396656,0.0,0.0,0.0
1208.2877,545.9696,130424402,0.7375,0.06382979,624.1333,-172.76834,5.351007E-5,0.015064776,0.01396656,0.0,0.0,0.0
1217.9214,544.1201,130424419,0.725,0.06382979,551.8031,-161.52484,5.351007E-5,0.015064776,0.01396656,0.0,0.0,0.0
1227.0055,542.2726,130424436,0.725,0.07446808,503.7594,-121.961914,5.351007E-5,0.015064776,0.01396656,0.0,0.0,0.0
1237.9739,540.42566,130424453,0.725,0.08510638,561.89813,-85.86373,5.351007E-5,0.015064776,0.01396656,0.0,0.0,0.0
1248.2129,538.57764,130424469,0.725,0.07446808,630.043,-83.89645,5.351007E-5,0.015064776,0.01396656,0.0,0.0,0.0
1256.9978,536.7438,130424486,0.725,0.06382979,596.3519,-108.21869,5.351007E-5,0.015064776,0.01396656,0.0,0.0,0.0
1264.6205,534.8873,130424503,0.725,0.06382979,523.9225,-110.24262,5.351007E-5,0.015064776,0.01396656,0.0,0.0,0.0
1270.8558,533.0399,130424519,0.725,0.06382979,374.93344,-110.802765,5.351007E-5,0.015064776,0.01396656,0.0,0.0,0.0
1277.6348,531.18286,130424536,0.7375,0.07446808,304.5281,-111.08251,5.351007E-5,0.015064776,0.01396656,0.0,0.0,0.0
1283.8771,529.33044,130424553,0.725,0.08510638,315.92734,-110.96271,5.351007E-5,0.015064776,0.01396656,0.0,0.0,0.0
1289.0099,527.4868,130424570,0.71250004,0.09574468,307.84628,-110.6208,5.351007E-5,0.015064776,0.01396656,0.0,0.0,0.0
1295.5455,525.619,130424586,0.71250004,0.09574468,328.8964,-110.64381,5.351007E-5,0.015064776,0.01396656,0.0,0.0,0.0
1299.9979,523.75793,130424603,0.725,0.09574468,299.50848,-110.652336,0.016042799,-0.003948182,-0.0048274994,0.0,0.0,0.0
1304.1808,521.9446,130424620,0.725,0.11702127,264.6293,-110.71407,0.016042799,-0.003948182,-0.0048274994,0.0,0.0,0.0
1307.048,520.099,130424636,0.71250004,0.10638297,200.88963,-111.934715,0.016042799,-0.003948182,-0.0048274994,0.0,0.0,0.0
1309.6256,518.2522,130424653,0.71250004,0.12765957,117.55122,-111.93673,0.016042799,-0.003948182,-0.0048274994,0.0,0.0,0.0
1311.6306,515.9551,130424670,0.75,0.12765957,71.513275,-117.87993,0.016042799,-0.003948182,-0.0048274994,0.0,0.0,0.0
1313.2664,513.0475,130424687,0.725,0.10638297,50.394615,-152.11208,0.016042799,-0.003948182,-0.0048274994,0.0,0.0,0.0
1315.3457,510.05835,130424703,0.75,0.12765957,74.11889,-197.16899,0.016042799,-0.003948182,-0.0048274994,0.0,0.0,0.0
1316.4829,508.21826,130424720,0.7375,0.09574468,77.147026,-181.20865,0.016042799,-0.003948182,-0.0048274994,0.0,0.0,0.0
1317.5237,504.63574,130424737,0.725,0.08510638,59.455734,-170.6717,0.016042799,-0.003948182,-0.0048274994,0.0,0.0,0.0
1317.549,502.8689,130424753,0.75,0.08510638,21.26789,-148.22237,0.016042799,-0.003948182,-0.0048274994,0.0,0.0,0.0
1317.549,499.2025,130424770,0.7375,0.07446808,-24.586468,-169.57722,0.016042799,-0.003948182,-0.0048274994,0.0,0.0,0.0
1317.549,495.67578,130424787,0.7375,0.07446808,-40.530457,-212.23514,0.016042799,-0.003948182,-0.0048274994,0.0,0.0,0.0
1317.549,492.70947,130424804,0.7375,0.07446808,-26.613464,-218.574,0.016042799,-0.003948182,-0.0048274994,0.0,0.0,0.0
1317.549,490.88953,130424820,0.7375,0.07446808,-12.485122,-164.9435,0.016042799,-0.003948182,-0.0048274994,0.0,0.0,0.0
1316.8494,489.08655,130424837,0.75,0.07446808,-18.824078,-107.858116,0.016042799,-0.003948182,-0.0048274994,0.0,0.0,0.0
1315.818,487.25317,130424854,0.725,0.07446808,-50.067356,-60.04377,0.016042799,-0.003948182,-0.0048274994,0.0,0.0,0.0
1314.7941,485.43323,130424870,0.75,0.08510638,-79.088425,-80.82877,0.016042799,-0.003948182,-0.0048274994,0.0,0.0,0.0
1313.858,482.88086,130424887,0.75,0.08510638,-80.774734,-127.321205,0.016042799,-0.003948182,-0.0048274994,0.0,0.0,0.0
1312.7299,480.87537,130424904,0.7375,0.08510638,-72.83304,-139.17715,0.016042799,-0.003948182,-0.0048274994,0.0,0.0,0.0
1311.3414,479.03772,130424920,0.7375,0.09574468,-72.132065,-128.28142,0.016042799,-0.003948182,-0.0048274994,0.0,0.0,0.0
1309.1702,475.43616,130424937,0.725,0.09574468,-103.311584,-151.51582,0.016042799,-0.003948182,-0.0048274994,0.0,0.0,0.0
1307.0593,472.5725,130424954,0.7375,0.11702127,-144.3231,-187.17294,0.016042799,-0.003948182,-0.0048274994,0.0,0.0,0.0
1305.4672,469.7423,130424971,0.7375,0.12765957,-141.03064,-203.89114,0.016042799,-0.003948182,-0.0048274994,0.0,0.0,0.0
1303.3965,465.17297,130424987,0.725,0.12765957,-131.75444,-255.16016,0.016042799,-0.003948182,-0.0048274994,0.0,0.0,0.0
1301.3326,461.50415,130425004,0.7375,0.12765957,-120.290764,-258.7854,0.016042799,-0.003948182,-0.0048274994,0.0,0.0,0.0
1299.2694,457.83655,130425021,0.75,0.11702127,-123.31819,-249.46805,0.016042799,-0.003948182,-0.0048274994,0.0,0.0,0.0
1297.2421,454.23315,130425037,0.7375,0.10638297,-129.36882,-236.95612,0.016042799,-0.003948182,-0.0048274994,0.0,0.0,0.0
1295.1797,450.5669,130425054,0.7375,0.08510638,-121.21515,-199.24118,0.016042799,-0.003948182,-0.0048274994,0.0,0.0,0.0
1292.7858,447.44104,130425071,0.7375,0.08510638,-131.11038,-203.52953,0.016042799,-0.003948182,-0.0048274994,0.0,0.0,0.0
1289.5905,444.44336,130425088,0.725,0.07446808,-166.53513,-184.4824,0.016042799,-0.003948182,-0.0048274994,0.0,0.0,0.0
1285.6078,441.06128,130425104,0.725,0.06382979,-223.75748,-170.44655,0.016042799,-0.003948182,-0.0048274994,0.0,0.0,0.0
1281.4791,438.9829,130425121,0.75,0.06382979,-276.36868,-152.68611,0.016042799,-0.003948182,-0.0048274994,0.0,0.0,0.0
1276.7878,437.90845,130425138,0.75,0.06382979,-310.22394,-103.07335,-0.011165768,-0.0031585395,0.012138367,0.0,0.0,0.0
1271.6394,437.0199,130425154,0.75,0.07446808,-325.93127,-38.24803,-0.011165768,-0.0031585395,0.012138367,0.0,0.0,0.0
1266.4712,437.0199,130425171,0.7625,0.07446808,-334.48853,28.084496,-0.011165768,-0.0031585395,0.012138367,0.0,0.0,0.0
1261.2686,437.0199,130425188,0.7625,0.08510638,-335.0866,53.51002,-0.011165768,-0.0031585395,0.012138367,0.0,0.0,0.0
1255.4601,438.08887,130425205,0.75,0.09574468,-344.07275,63.35561,-0.011165768,-0.0031585395,0.012138367,0.0,0.0,0.0
1248.4443,438.797,130425221,0.75,0.09574468,-382.36105,84.344246,-0.011165768,-0.0031585395,0.012138367,0.0,0.0,0.0
1241.5432,440.96252,130425238,0.7625,0.08510638,-425.9852,117.38477,-0.011165768,-0.0031585395,0.012138367,0.0,0.0,0.0
1233.8068,442.74402,130425255,0.75,0.08510638,-486.5834,141.63173,-0.011165768,-0.0031585395,0.012138367,0.0,0.0,0.0
1226.2892,443.69373,130425271,0.7625,0.08510638,-511.95044,114.20108,-0.011165768,-0.0031585395,0.012138367,0.0,0.0,0.0
1219.1227,445.34045,130425288,0.75,0.09574468,-474.47723,88.054825,-0.011165768,-0.0031585395,0.012138367,0.0,0.0,0.0
1209.8923,447.7672,130425305,0.77500004,0.11702127,-491.91226,100.2517,-0.011165768,-0.0031585395,0.012138367,0.0,0.0,0.0
1200.687,451.37817,130425322,0.7625,0.12765957,-524.137,172.89246,-0.011165768,-0.0031585395,0.012138367,0.0,0.0,0.0
1191.2944,455.00537,130425338,0.77500004,0.12765957,-573.2931,246.80658,-0.011165768,-0.0031585395,0.012138367,0.0,0.0,0.0
1180.1218,457.3617,130425355,0.7875,0.12765957,-666.3261,253.36765,-0.011165768,-0.0031585395,0.012138367,0.0,0.0,0.0
1169.2125,459.214,130425372,0.7875,0.10638297,-650.6842,155.24124,-0.011165768,-0.0031585395,0.012138367,0.0,0.0,0.0
1159.1174,459.23254,130425388,0.7875,0.12765957,-691.8452,38.592857,-0.011165768,-0.0031585395,0.012138367,0.0,0.0,0.0
1144.7554,460.2373,130425405,0.77500004,0.12765957,-780.2935,-22.850016,-0.011165768,-0.0031585395,0.012138367,0.0,0.0,0.0
1128.4323,461.00952,130425422,0.77500004,0.12765957,-923.1062,-3.8095639,-0.011165768,-0.0031585395,0.012138367,0.0,0.0,0.0
1110.3893,461.00952,130425438,0.77500004,0.12765957,-1108.692,7.0228205,-0.011165768,-0.0031585395,0.012138367,0.0,0.0,0.0
1093.5824,461.00952,130425455,0.7625,0.12765957,-1184.1564,-2.100274,-0.011165768,-0.0031585395,0.012138367,0.0,0.0,0.0
1071.6631,461.00952,130425472,0.7875,0.10638297,-1302.2346,-23.176739,-0.011165768,-0.0031585395,0.012138367,0.0,0.0,0.0
1048.1642,460.63806,130425489,0.77500004,0.12765957,-1436.3832,-33.75784,-0.011165768,-0.0031585395,0.012138367,0.0,0.0,0.0
1025.7408,459.71765,130425505,0.77500004,0.12765957,-1455.7847,-38.316174,-0.011165768,-0.0031585395,0.012138367,0.0,0.0,0.0
1000.87634,457.45178,130425522,0.8,0.10638297,-1498.3453,-99.20628,-0.011165768,-0.0031585395,0.012138367,0.0,0.0,0.0
978.27515,455.22388,130425539,0.77500004,0.12765957,-1414.7194,-164.63354,-0.011165768,-0.0031585395,0.012138367,0.0,0.0,0.0
950.6356,451.70996,130425555,0.8,0.10638297,-1476.5911,-211.23154,-0.011165768,-0.0031585395,0.012138367,0.0,0.0,0.0
924.32446,447.81482,130425572,0.77500004,0.11702127,-1632.8464,-252.52187,-0.011165768,-0.0031585395,0.012138367,0.0,0.0,0.0
900.8336,444.15002,130425589,0.8,0.08510638,-1615.1687,-281.97974,-0.011165768,-0.0031585395,0.012138367,0.0,0.0,0.0
881.10785,441.7002,130425606,0.8,0.08510638,-1456.7753,-246.14833,-0.011165768,-0.0031585395,0.012138367,0.0,0.0,0.0
854.9037,436.4878,130425622,0.7875,0.06382979,-1347.6685,-244.94107,-0.011165768,-0.0031585395,0.012138367,0.0,0.0,0.0
832.7393,434.188,130425639,0.8,0.07446808,-1315.048,-209.86429,-0.011165768,-0.0031585395,0.012138367,0.0,0.0,0.0
811.68555,433.2943,130425656,0.7875,0.07446808,-1319.2175,-119.007225,-0.011165768,-0.0031585395,0.012138367,0.0,0.0,0.0
787.99646,432.5774,130425672,0.7875,0.06382979,-1346.0022,-39.93532,-0.00893262,-0.0025268495,-0.006289482,0.0,0.0,0.0
765.9105,432.22864,130425689,0.8,0.08510638,-1298.6692,68.92385,-0.00893262,-0.0025268495,-0.006289482,0.0,0.0,0.0
745.5879,431.338,130425706,0.8,0.06382979,-1239.0724,44.4029,-0.00893262,-0.0025268495,-0.006289482,0.0,0.0,0.0
724.24347,430.8004,130425723,0.8125,0.07446808,-1228.4896,-27.487627,-0.00893262,-0.0025268495,-0.006289482,0.0,0.0,0.0
703.9546,430.12976,130425739,0.825,0.08510638,-1176.3693,-25.715635,-0.00893262,-0.0025268495,-0.006289482,0.0,0.0,0.0
683.8739,430.62927,130425756,0.8125,0.06382979,-1161.6376,-22.0337,-0.00893262,-0.0025268495,-0.006289482,0.0,0.0,0.0
662.6454,434.18933,130425773,0.8125,0.07446808,-1229.0815,110.70198,-0.00893262,-0.0025268495,-0.006289482,0.0,0.0,0.0
640.8062,437.0171,130425789,0.7875,0.08510638,-1253.7548,240.19498,-0.00893262,-0.0025268495,-0.006289482,0.0,0.0,0.0
618.03864,439.745,130425806,0.8125,0.08510638,-1374.7297,267.18225,-0.00893262,-0.0025268495,-0.006289482,0.0,0.0,0.0
597.27167,442.47888,130425823,0.8,0.09574468,-1365.4064,238.51137,-0.00893262,-0.0025268495,-0.006289482,0.0,0.0,0.0
571.4731,442.35095,130425840,0.825,0.08510638,-1407.5475,85.27315,-0.00893262,-0.0025268495,-0.006289482,0.0,0.0,0.0
548.382,442.35095,130425856,0.825,0.09574468,-1462.1187,-30.422037,-0.00893262,-0.0025268495,-0.006289482,0.0,0.0,0.0
519.69824,443.58325,130425873,0.825,0.08510638,-1598.314,-44.556744,-0.00893262,-0.0025268495,-0.006289482,0.0,0.0,0.0
490.95203,445.43542,130425890,0.825,0.11702127,-1834.3693,40.89841,-0.00893262,-0.0025268495,-0.006289482,0.0,0.0,0.0
461.76935,447.28723,130425906,0.85,0.09574468,-1878.8726,142.31273,-0.00893262,-0.0025268495,-0.006289482,0.0,0.0,0.0
439.11346,448.57056,130425923,0.83750004,0.10638297,-1712.682,151.93483,-0.00893262,-0.0025268495,-0.006289482,0.0,0.0,0.0
418.33252,448.57056,130425940,0.83750004,0.10638297,-1299.1249,64.018456,-0.00893262,-0.0025268495,-0.006289482,0.0,0.0,0.0
389.79514,449.97656,130425957,0.8,0.09574468,-1193.7289,-0.16577938,-0.00893262,-0.0025268495,-0.006289482,0.0,0.0,0.0
355.31552,457.78418,130425973,0.71250004,0.12765957,-1668.5983,188.88533,-0.00893262,-0.0025268495,-0.006289482,0.0,0.0,0.0
353.36282,458.344,130425974,0.3375,0.10638297,-1740.8462,237.10332,-0.00893262,-0.0025268495,-0.006289482,0.0,0.0,0.0
353.36282,458.344,130425982,0.3375,0.10638297,-1740.8462,237.10332,-0.00893262,-0.0025268495,-0.006289482,0.0,0.0,0.0
