x,y,timestamp,pressure,fingerarea,velocityx,velocityy,accelx,accely,accelz,gyrox,gyroy,gyroz
398.34818,109.16223,14846242,0.7625,0.07446808,0.0,0.0,0.012657493,0.001201734,-0.011956215,0.0,0.0,0.0
398.34818,109.16223,14846267,0.8875,0.07446808,0.026067583,0.007409902,0.012657493,0.001201734,-0.011956215,0.0,0.0,0.0
398.34818,109.16223,14846284,0.925,0.08510638,0.038272075,0.010342325,0.012657493,0.001201734,-0.011956215,0.0,0.0,0.0
398.34818,109.16223,14846300,1.0125,0.10638297,-0.039241593,-0.009873944,0.012657493,0.001201734,-0.011956215,0.0,0.0,0.0
377.28336,131.24829,14846317,1.0875,0.12765957,-808.04254,826.9871,0.012657493,0.001201734,-0.011956215,0.0,0.0,0.0
359.95502,165.99939,14846334,1.1375,0.10638297,-1307.2814,1803.1036,0.012657493,0.001201734,-0.011956215,0.0,0.0,0.0
347.422,194.8645,14846350,1.1625,0.10638297,-1466.2239,2551.442,0.012657493,0.001201734,-0.011956215,0.0,0.0,0.0
335.659,226.58252,14846367,1.1625,0.10638297,-1183.3684,2745.798,0.012657493,0.001201734,-0.011956215,0.0,0.0,0.0
322.50046,261.9032,14846384,1.1875,0.11702127,-696.2043,2308.2532,0.012657493,0.001201734,-0.011956215,0.0,0.0,0.0
315.32767,287.03174,14846401,1.225,0.12765957,-431.8215,1878.0498,0.012657493,0.001201734,-0.011956215,0.0,0.0,0.0
307.4672,323.24097,14846417,1.2375001,0.12765957,-406.7077,1886.6962,0.012657493,0.001201734,-0.011956215,0.0,0.0,0.0
302.4259,348.13257,14846434,1.25,0.12765957,-282.83167,1786.6692,0.012657493,0.001201734,-0.011956215,0.0,0.0,0.0
296.93567,382.85413,14846451,1.225,0.12765957,-199.46652,1802.8853,0.012657493,0.001201734,-0.011956215,0.0,0.0,0.0
292.66904,405.15417,14846467,1.2125,0.12765957,-173.47299,1624.7495,0.012657493,0.001201734,-0.011956215,0.0,0.0,0.0
289.2737,430.99133,14846484,1.2125,0.10638297,-178.99649,1498.1683,0.012657493,0.001201734,-0.011956215,0.0,0.0,0.0
286.75192,448.29797,14846501,1.1875,0.10638297,-135.17873,1211.3439,0.012657493,0.001201734,-0.011956215,0.0,0.0,0.0
284.1774,463.3761,14846517,1.1875,0.10638297,-89.49473,792.76337,0.012657493,0.001201734,-0.011956215,0.0,0.0,0.0
282.48984,475.19067,14846534,1.1875,0.10638297,-81.74368,557.06995,0.012657493,0.001201734,-0.011956215,0.0,0.0,0.0
281.45834,481.94934,14846551,1.15,0.09574468,-50.548805,265.70828,0.012657493,0.001201734,-0.011956215,0.0,0.0,0.0
281.38626,484.9425,14846568,1.1,0.09574468,-1.3063593,70.101295,0.012657493,0.001201734,-0.011956215,0.0,0.0,0.0
281.38626,485.8877,14846584,0.8875,0.08510638,36.156055,-107.77549,0.012657493,0.001201734,-0.011956215,0.0,0.0,0.0
281.38626,485.8877,14846601,0.3625,0.08510638,49.233265,-229.4358,-0.021874003,0.024961382,-0.009565353,0.0,0.0,0.0
281.38626,485.8877,14846608,0.3625,0.08510638,49.233265,-229.4358,-0.021874003,0.024961382,-0.009565353,0.0,0.0,0.0
225.90433,197.12402,14847207,1.1,0.10638297,0.0,0.0,-0.0014992058,-0.03603089,-0.023652077,0.0,0.0,0.0
235.44623,195.95422,14847236,1.1625,0.10638297,1127.1658,-138.1693,-0.0014992058,-0.03603089,-0.023652077,0.0,0.0,0.0
260.69516,195.34705,14847253,1.15,0.12765957,2056.1057,-83.6959,-0.0014992058,-0.03603089,-0.023652077,0.0,0.0,0.0
294.02463,195.34705,14847269,1.1375,0.10638297,2542.684,-16.143688,-0.0014992058,-0.03603089,-0.023652077,0.0,0.0,0.0
330.84836,194.45862,14847286,1.1750001,0.12765957,2745.9692,-24.464956,-0.0014992058,-0.03603089,-0.023652077,0.0,0.0,0.0
364.2761,192.68152,14847303,1.15,0.12765957,2856.04,-66.8067,-0.0014992058,-0.03603089,-0.023652077,0.0,0.0,0.0
399.13956,190.86194,14847320,1.1375,0.12765957,2455.975,-104.59184,-0.0014992058,-0.03603089,-0.023652077,0.0,0.0,0.0
424.94443,189.8971,14847336,1.1625,0.12765957,1949.3738,-118.1187,-0.0014992058,-0.03603089,-0.023652077,0.0,0.0,0.0
447.5257,190.01599,14847353,1.1125001,0.10638297,1413.5542,-52.98823,-0.0014992058,-0.03603089,-0.023652077,0.0,0.0,0.0
463.5334,192.07312,14847370,1.1125001,0.12765957,941.5687,69.587875,-0.0014992058,-0.03603089,-0.023652077,0.0,0.0,0.0
474.00104,193.95703,14847386,1.0625,0.12765957,531.7915,160.95737,-0.0014992058,-0.03603089,-0.023652077,0.0,0.0,0.0
478.98688,195.74097,14847403,0.925,0.10638297,156.38924,192.02783,-0.0014992058,-0.03603089,-0.023652077,0.0,0.0,0.0
479.82166,196.2356,14847408,0.675,0.12765957,87.51887,188.25801,-0.0014992058,-0.03603089,-0.023652077,0.0,0.0,0.0
479.82166,196.2356,14847415,0.675,0.12765957,87.51887,188.25801,-0.0014992058,-0.03603089,-0.023652077,0.0,0.0,0.0
227.40384,334.84204,14847625,1.0500001,0.09574468,0.0,0.0,-0.0014992058,-0.03603089,-0.023652077,0.0,0.0,0.0
227.40384,334.84204,14847654,1.125,0.09574468,0.020680148,0.03307079,-0.0014992058,-0.03603089,-0.023652077,0.0,0.0,0.0
251.32346,328.28003,14847670,1.1625,0.11702127,1740.8341,-492.0043,-0.0014992058,-0.03603089,-0.023652077,0.0,0.0,0.0
275.81802,324.59973,14847687,1.2125,0.10638297,2124.1807,-436.48376,-0.0011993647,0.0031753033,0.01307869,0.0,0.0,0.0
301.5587,321.70203,14847704,1.2,0.10638297,2210.3984,-335.584,-0.0011993647,0.0031753033,0.01307869,0.0,0.0,0.0
331.22162,319.80786,14847721,1.2125,0.10638297,2273.782,-234.80391,-0.0011993647,0.0031753033,0.01307869,0.0,0.0,0.0
357.42844,317.96057,14847737,1.1875,0.11702127,1962.5052,-80.499016,-0.0011993647,0.0031753033,0.01307869,0.0,0.0,0.0
380.48126,317.96057,14847754,1.1875,0.10638297,1547.7799,23.328438,-0.0011993647,0.0031753033,0.01307869,0.0,0.0,0.0
401.41296,317.07202,14847771,1.1375,0.10638297,1336.7672,16.675756,-0.0011993647,0.0031753033,0.01307869,0.0,0.0,0.0
413.83026,318.1808,14847787,0.975,0.11702127,899.09375,55.60771,-0.0011993647,0.0031753033,0.01307869,0.0,0.0,0.0
414.8428,317.96057,14847795,0.5375,0.11702127,644.6857,65.88104,-0.0011993647,0.0031753033,0.01307869,0.0,0.0,0.0
414.8428,317.96057,14847801,0.5375,0.11702127,644.6857,65.88104,-0.0011993647,0.0031753033,0.01307869,0.0,0.0,0.0
428.3384,524.09326,14848853,0.85,0.11702127,0.0,0.0,0.012032405,0.0020322055,-0.0012302399,0.0,0.0,0.0
428.3384,524.09326,14848874,0.875,0.11702127,0.043411903,0.0510085,0.012032405,0.0020322055,-0.0012302399,0.0,0.0,0.0
428.3384,524.09326,14848890,0.925,0.12765957,-0.01821339,-0.020406801,0.012032405,0.0020322055,-0.0012302399,0.0,0.0,0.0
428.3384,524.09326,14848907,0.9375,0.10638297,0.017719705,0.024878837,0.012032405,0.0020322055,-0.0012302399,0.0,0.0,0.0
450.40613,504.95825,14848924,0.95,0.09574468,927.0506,-795.96716,0.012032405,0.0020322055,-0.0012302399,0.0,0.0,0.0
461.84906,492.9712,14848940,0.925,0.09574468,1156.0597,-1067.8196,0.012032405,0.0020322055,-0.0012302399,0.0,0.0,0.0
473.28107,479.12634,14848957,0.9375,0.11702127,1158.9988,-1211.052,0.012032405,0.0020322055,-0.0012302399,0.0,0.0,0.0
485.18707,464.3313,14848974,0.9375,0.12765957,974.7856,-1157.5011,0.012032405,0.0020322055,-0.0012302399,0.0,0.0,0.0
498.47235,446.80676,14848991,0.975,0.08510638,674.7444,-979.23285,0.012032405,0.0020322055,-0.0012302399,0.0,0.0,0.0
512.06116,427.24646,14849006,0.95,0.10638297,622.4623,-1015.6711,0.012032405,0.0020322055,-0.0012302399,0.0,0.0,0.0
524.8232,408.90747,14849024,0.95,0.12765957,845.2976,-1271.7346,0.012032405,0.0020322055,-0.0012302399,0.0,0.0,0.0
537.1453,388.85327,14849041,0.96250004,0.08510638,855.3219,-1347.5449,0.012032405,0.0020322055,-0.0012302399,0.0,0.0,0.0
550.4165,368.49646,14849057,0.95,0.10638297,832.98785,-1346.6511,0.012032405,0.0020322055,-0.0012302399,0.0,0.0,0.0
561.2759,351.7578,14849074,0.95,0.09574468,712.06036,-1147.076,0.012032405,0.0020322055,-0.0012302399,0.0,0.0,0.0
571.2398,331.94165,14849091,0.975,0.08510638,563.16064,-1012.2768,0.012032405,0.0020322055,-0.0012302399,0.0,0.0,0.0
578.30615,315.92102,14849108,0.96250004,0.11702127,439.6531,-973.45557,0.012032405,0.0020322055,-0.0012302399,0.0,0.0,0.0
582.62305,305.07324,14849124,0.925,0.12765957,254.97986,-807.6224,0.012032405,0.0020322055,-0.0012302399,0.0,0.0,0.0
584.7163,299.4917,14849141,0.925,0.12765957,71.132996,-456.54462,0.012032405,0.0020322055,-0.0012302399,0.0,0.0,0.0
586.34827,294.69604,14849158,0.90000004,0.11702127,-37.06997,-102.46496,0.012032405,0.0020322055,-0.0012302399,0.0,0.0,0.0
586.287,292.95068,14849174,0.90000004,0.11702127,-109.36483,114.846954,0.012032405,0.0020322055,-0.0012302399,0.0,0.0,0.0
585.68945,291.1317,14849191,0.90000004,0.12765957,-104.02629,84.29333,0.012032405,0.0020322055,-0.0012302399,0.0,0.0,0.0
584.6407,291.30542,14849208,0.925,0.12765957,-112.82999,62.59636,0.012032405,0.0020322055,-0.0012302399,0.0,0.0,0.0
581.6942,294.67493,14849225,0.9375,0.09574468,-171.7447,171.76988,0.012032405,0.0020322055,-0.0012302399,0.0,0.0,0.0
575.9207,303.8606,14849241,0.975,0.08510638,-299.64325,430.33685,0.012032405,0.0020322055,-0.0012302399,0.0,0.0,0.0
568.82306,318.7771,14849258,0.975,0.08510638,-472.6048,889.2763,0.012032405,0.0020322055,-0.0012302399,0.0,0.0,0.0
563.8644,330.7832,14849275,0.975,0.09574468,-498.18802,1103.8383,-0.006374076,-0.014374241,-9.841919E-4,0.0,0.0,0.0
559.5024,342.99268,14849291,0.96250004,0.10638297,-386.913,1021.3085,-0.006374076,-0.014374241,-9.841919E-4,0.0,0.0,0.0
554.8561,357.734,14849308,0.96250004,0.09574468,-253.95007,893.2096,-0.006374076,-0.014374241,-9.841919E-4,0.0,0.0,0.0
550.6765,373.31372,14849325,0.975,0.08510638,-203.80498,881.5573,-0.006374076,-0.014374241,-9.841919E-4,0.0,0.0,0.0
547.4887,386.59167,14849342,0.96250004,0.10638297,-194.74153,933.3933,-0.006374076,-0.014374241,-9.841919E-4,0.0,0.0,0.0
544.3645,398.54956,14849358,0.975,0.12765957,-176.05278,847.569,-0.006374076,-0.014374241,-9.841919E-4,0.0,0.0,0.0
541.73303,410.72986,14849375,1.0,0.11702127,-141.50827,691.92377,-0.006374076,-0.014374241,-9.841919E-4,0.0,0.0,0.0
540.126,421.9651,14849392,1.0125,0.09574468,-93.17785,613.5622,-0.006374076,-0.014374241,-9.841919E-4,0.0,0.0,0.0
539.8021,431.76404,14849408,1.0,0.11702127,-38.596115,592.3744,-0.006374076,-0.014374241,-9.841919E-4,0.0,0.0,0.0
539.3023,439.0244,14849425,0.9875,0.11702127,9.882934,504.12592,-0.006374076,-0.014374241,-9.841919E-4,0.0,0.0,0.0
539.9815,442.98865,14849442,1.025,0.12765957,59.577904,296.13504,-0.006374076,-0.014374241,-9.841919E-4,0.0,0.0,0.0
540.30194,449.8369,14849475,1.0125,0.12765957,52.996216,37.70192,-0.006374076,-0.014374241,-9.841919E-4,0.0,0.0,0.0
540.30194,452.58313,14849492,1.0125,0.12765957,20.960806,76.958374,-0.006374076,-0.014374241,-9.841919E-4,0.0,0.0,0.0
540.30194,454.50842,14849509,1.0,0.12765957,-9.912725,99.199165,-0.006374076,-0.014374241,-9.841919E-4,0.0,0.0,0.0
540.30194,455.67847,14849525,1.0125,0.12765957,-13.029196,73.28811,-0.006374076,-0.014374241,-9.841919E-4,0.0,0.0,0.0
540.30194,456.41882,14849542,1.0125,0.12765957,0.037966825,-3.5567298,-0.006374076,-0.014374241,-9.841919E-4,0.0,0.0,0.0
540.30194,456.56702,14849559,1.0125,0.12765957,-0.060952835,-27.220058,-0.006374076,-0.014374241,-9.841919E-4,0.0,0.0,0.0
540.30194,457.4524,14849576,1.025,0.12765957,0.029464912,-17.510988,-0.006374076,-0.014374241,-9.841919E-4,0.0,0.0,0.0
540.30194,458.7882,14849588,1.025,0.12765957,0.007186044,23.79861,-0.006374076,-0.014374241,-9.841919E-4,0.0,0.0,0.0
540.30194,458.344,14849609,1.025,0.12765957,0.032143828,27.975718,-0.006374076,-0.014374241,-9.841919E-4,0.0,0.0,0.0
540.30194,459.44275,14849626,1.0125,0.12765957,0.027713936,26.04816,-0.006374076,-0.014374241,-9.841919E-4,0.0,0.0,0.0
540.30194,460.56543,14849636,1.025,0.12765957,0.033124197,52.69879,-0.006374076,-0.014374241,-9.841919E-4,0.0,0.0,0.0
540.30194,461.00952,14849659,1.0375,0.12765957,0.043658786,55.634598,-0.006374076,-0.014374241,-9.841919E-4,0.0,0.0,0.0
540.30194,462.29883,14849676,1.0375,0.12765957,0.0036137672,73.17815,-0.006374076,-0.014374241,-9.841919E-4,0.0,0.0,0.0
540.30194,463.271,14849693,1.0375,0.11702127,0.06024373,57.22676,-0.006374076,-0.014374241,-9.841919E-4,0.0,0.0,0.0
540.30194,465.11084,14849709,1.025,0.11702127,0.020844392,82.13443,-0.006374076,-0.014374241,-9.841919E-4,0.0,0.0,0.0
540.30194,466.96838,14849726,1.025,0.11702127,-0.0071548806,128.87074,-0.006374076,-0.014374241,-9.841919E-4,0.0,0.0,0.0
540.30194,468.81567,14849743,1.025,0.11702127,0.019867338,137.29222,-0.006374076,-0.014374241,-9.841919E-4,0.0,0.0,0.0
540.30194,469.89453,14849759,1.0375,0.11702127,0.035383336,111.76991,-0.006374076,-0.014374241,-9.841919E-4,0.0,0.0,0.0
540.30194,471.2273,14849774,1.0375,0.11702127,-0.03052077,89.51412,-0.006374076,-0.014374241,-9.841919E-4,0.0,0.0,0.0
540.30194,471.67163,14849793,1.025,0.11702127,0.007044868,34.887295,-0.006374076,-0.014374241,-9.841919E-4,0.0,0.0,0.0
540.30194,471.67163,14849810,1.0625,0.11702127,0.026313586,-4.8563437,0.010900736,-0.01149939,-7.87735E-4,0.0,0.0,0.0
540.30194,472.71655,14849826,1.0375,0.11702127,0.033405274,-1.7643096,0.010900736,-0.01149939,-7.87735E-4,0.0,0.0,0.0
540.30194,474.55945,14849843,1.0375,0.08510638,-0.01383448,60.067013,0.010900736,-0.01149939,-7.87735E-4,0.0,0.0,0.0
540.30194,476.3977,14849860,1.025,0.08510638,0.028301207,117.81459,0.010900736,-0.01149939,-7.87735E-4,0.0,0.0,0.0
541.0209,478.28052,14849876,1.0,0.08510638,18.088192,159.94627,0.010900736,-0.01149939,-7.87735E-4,0.0,0.0,0.0
541.30164,480.109,14849893,1.0125,0.08510638,34.4472,136.53056,0.010900736,-0.01149939,-7.87735E-4,0.0,0.0,0.0
541.30164,481.9474,14849910,1.0125,0.08510638,29.58945,111.15399,0.010900736,-0.01149939,-7.87735E-4,0.0,0.0,0.0
541.30164,484.34656,14849927,1.025,0.08510638,8.992912,119.657555,0.010900736,-0.01149939,-7.87735E-4,0.0,0.0,0.0
541.30164,486.53064,14849943,1.025,0.10638297,-10.860909,143.04353,0.010900736,-0.01149939,-7.87735E-4,0.0,0.0,0.0
541.30164,489.08496,14849960,1.025,0.10638297,-13.941573,150.0705,0.010900736,-0.01149939,-7.87735E-4,0.0,0.0,0.0
542.23914,492.77466,14849977,1.025,0.10638297,17.11978,190.8976,0.010900736,-0.01149939,-7.87735E-4,0.0,0.0,0.0
542.30133,495.62695,14849993,1.0125,0.10638297,37.43705,218.591,0.010900736,-0.01149939,-7.87735E-4,0.0,0.0,0.0
542.30133,499.29626,14850010,1.0,0.12765957,22.220278,225.57147,0.010900736,-0.01149939,-7.87735E-4,0.0,0.0,0.0
542.30133,501.99207,14850027,1.0,0.12765957,1.8318026,213.4017,0.010900736,-0.01149939,-7.87735E-4,0.0,0.0,0.0
542.89954,505.78455,14850044,1.0125,0.12765957,0.26689312,194.89165,0.010900736,-0.01149939,-7.87735E-4,0.0,0.0,0.0
543.9328,509.4579,14850060,1.0,0.12765957,36.657295,210.10431,0.010900736,-0.01149939,-7.87735E-4,0.0,0.0,0.0
544.4703,513.14575,14850077,1.0,0.12765957,66.066574,229.06789,0.010900736,-0.01149939,-7.87735E-4,0.0,0.0,0.0
545.30035,515.20825,14850094,0.9875,0.10638297,67.19023,198.65967,0.010900736,-0.01149939,-7.87735E-4,0.0,0.0,0.0
546.0587,516.5564,14850110,1.0125,0.10638297,47.256824,98.49731,0.010900736,-0.01149939,-7.87735E-4,0.0,0.0,0.0
547.8751,518.38513,14850127,1.0125,0.09574468,66.19182,42.0187,0.010900736,-0.01149939,-7.87735E-4,0.0,0.0,0.0
550.2899,518.7622,14850144,1.025,0.09574468,129.04008,13.905303,0.010900736,-0.01149939,-7.87735E-4,0.0,0.0,0.0
554.28595,518.7622,14850161,1.025,0.09574468,220.24088,-11.207264,0.010900736,-0.01149939,-7.87735E-4,0.0,0.0,0.0
558.41864,518.7622,14850177,1.0375,0.10638297,294.92673,-28.52394,0.010900736,-0.01149939,-7.87735E-4,0.0,0.0,0.0
563.44775,516.3021,14850194,1.025,0.10638297,329.58905,-104.37736,0.010900736,-0.01149939,-7.87735E-4,0.0,0.0,0.0
569.74615,511.6953,14850211,1.0125,0.12765957,386.49594,-225.9819,0.010900736,-0.01149939,-7.87735E-4,0.0,0.0,0.0
575.4928,505.19507,14850227,1.025,0.11702127,407.36792,-398.7376,0.010900736,-0.01149939,-7.87735E-4,0.0,0.0,0.0
580.653,496.79102,14850244,1.0500001,0.09574468,383.7213,-565.10364,0.010900736,-0.01149939,-7.87735E-4,0.0,0.0,0.0
585.5055,487.18005,14850261,1.0375,0.11702127,334.67816,-680.21924,0.010900736,-0.01149939,-7.87735E-4,0.0,0.0,0.0
592.30444,474.30273,14850278,1.025,0.12765957,323.35388,-787.26855,0.010900736,-0.01149939,-7.87735E-4,0.0,0.0,0.0
598.6282,463.06165,14850294,1.0375,0.12765957,359.45374,-821.0352,0.010900736,-0.01149939,-7.87735E-4,0.0,0.0,0.0
606.8316,447.59082,14850311,1.0625,0.08510638,456.44168,-889.75885,0.010900736,-0.01149939,-7.87735E-4,0.0,0.0,0.0
616.19794,429.57495,14850328,1.025,0.09574468,573.878,-1062.5394,0.010900736,-0.01149939,-7.87735E-4,0.0,0.0,0.0
626.6118,412.61987,14850344,1.025,0.12765957,662.8345,-1188.1066,0.008720592,-0.009199515,0.03136921,0.0,0.0,0.0
636.3805,395.33972,14850361,1.0375,0.09574468,696.58136,-1189.5869,0.008720592,-0.009199515,0.03136921,0.0,0.0,0.0
646.05725,377.6488,14850378,1.0375,0.10638297,640.2195,-1101.077,0.008720592,-0.009199515,0.03136921,0.0,0.0,0.0
655.5291,362.6587,14850395,1.0375,0.12765957,577.28784,-972.9905,0.008720592,-0.009199515,0.03136921,0.0,0.0,0.0
664.90686,350.3667,14850411,1.0375,0.10638297,553.7227,-833.2662,0.008720592,-0.009199515,0.03136921,0.0,0.0,0.0
675.3008,337.4485,14850428,1.0375,0.10638297,580.92035,-694.28845,0.008720592,-0.009199515,0.03136921,0.0,0.0,0.0
682.5761,326.35742,14850445,1.0125,0.11702127,535.3103,-591.7032,0.008720592,-0.009199515,0.03136921,0.0,0.0,0.0
688.68774,318.23193,14850461,1.0125,0.11702127,415.30945,-501.3363,0.008720592,-0.009199515,0.03136921,0.0,0.0,0.0
692.74713,312.85852,14850478,1.025,0.11702127,252.27429,-346.15054,0.008720592,-0.009199515,0.03136921,0.0,0.0,0.0
694.6209,309.30786,14850495,0.9875,0.12765957,77.85839,-156.16043,0.008720592,-0.009199515,0.03136921,0.0,0.0,0.0
695.2515,307.83606,14850512,1.0,0.11702127,-38.612118,12.228085,0.008720592,-0.009199515,0.03136921,0.0,0.0,0.0
695.2515,307.29846,14850528,1.0125,0.11702127,-96.78797,70.691765,0.008720592,-0.009199515,0.03136921,0.0,0.0,0.0
695.2515,307.29846,14850545,1.0,0.11702127,-91.33657,92.23898,0.008720592,-0.009199515,0.03136921,0.0,0.0,0.0
694.11633,308.42786,14850562,1.025,0.11702127,-90.43576,114.75904,0.008720592,-0.009199515,0.03136921,0.0,0.0,0.0
691.4202,314.7008,14850578,1.0375,0.08510638,-137.89752,252.72774,0.008720592,-0.009199515,0.03136921,0.0,0.0,0.0
687.3964,324.58728,14850595,1.0375,0.10638297,-232.28094,531.37775,0.008720592,-0.009199515,0.03136921,0.0,0.0,0.0
682.6813,335.4845,14850611,1.0500001,0.10638297,-334.98367,789.13617,0.008720592,-0.009199515,0.03136921,0.0,0.0,0.0
678.0412,347.4629,14850628,1.0500001,0.10638297,-372.7201,926.58276,0.008720592,-0.009199515,0.03136921,0.0,0.0,0.0
673.32556,362.19556,14850645,1.0500001,0.09574468,-352.46808,976.5859,0.008720592,-0.009199515,0.03136921,0.0,0.0,0.0
668.116,378.84045,14850662,1.025,0.09574468,-330.42178,1037.0101,0.008720592,-0.009199515,0.03136921,0.0,0.0,0.0
662.91724,390.66467,14850678,1.0125,0.12765957,-324.34286,986.9485,0.008720592,-0.009199515,0.03136921,0.0,0.0,0.0
657.7214,405.68726,14850695,1.0375,0.11702127,-330.06558,918.8055,0.008720592,-0.009199515,0.03136921,0.0,0.0,0.0
652.5409,416.35242,14850712,1.0375,0.09574468,-323.78268,746.52075,0.008720592,-0.009199515,0.03136921,0.0,0.0,0.0
649.88965,427.4773,14850728,1.0625,0.11702127,-250.80165,608.64014,0.008720592,-0.009199515,0.03136921,0.0,0.0,0.0
648.04083,436.84985,14850745,1.0375,0.11702127,-122.07229,559.4726,0.008720592,-0.009199515,0.03136921,0.0,0.0,0.0
647.0047,444.2173,14850762,1.0625,0.12765957,-12.535333,429.4562,0.008720592,-0.009199515,0.03136921,0.0,0.0,0.0
646.26746,451.07373,14850779,1.0625,0.12765957,34.756596,354.33563,0.008720592,-0.009199515,0.03136921,0.0,0.0,0.0
645.76764,457.51013,14850795,1.0625,0.12765957,25.080124,297.03122,0.008720592,-0.009199515,0.03136921,0.0,0.0,0.0
645.76764,461.35352,14850812,1.075,0.11702127,16.846876,228.60725,0.008720592,-0.009199515,0.03136921,0.0,0.0,0.0
645.76764,465.14233,14850829,1.075,0.11702127,23.64623,178.9586,0.008720592,-0.009199515,0.03136921,0.0,0.0,0.0
645.76764,467.1526,14850845,1.075,0.11702127,23.49422,94.7728,0.008720592,-0.009199515,0.03136921,0.0,0.0,0.0
645.76764,469.8977,14850862,1.0875,0.11702127,12.616368,73.09949,0.008720592,-0.009199515,0.03136921,0.0,0.0,0.0
645.76764,471.72888,14850879,1.0875,0.11702127,4.929551,72.256935,0.0069764704,-0.007359609,0.009096146,0.0,0.0,0.0
645.76764,473.58997,14850896,1.0875,0.11702127,0.0392888,82.047,0.0069764704,-0.007359609,0.009096146,0.0,0.0,0.0
645.76764,474.44275,14850912,1.1,0.11702127,0.03692616,60.602154,0.0069764704,-0.007359609,0.009096146,0.0,0.0,0.0
645.76764,475.51172,14850929,1.0875,0.11702127,0.020672595,36.381523,0.0069764704,-0.007359609,0.009096146,0.0,0.0,0.0
645.76764,476.11414,14850962,1.1125001,0.11702127,-0.019047005,4.1604676,0.0069764704,-0.007359609,0.009096146,0.0,0.0,0.0
645.76764,477.00256,14850979,1.1,0.11702127,0.064124644,19.521193,0.0069764704,-0.007359609,0.009096146,0.0,0.0,0.0
645.76764,477.00256,14850995,1.1,0.11702127,-0.0075732833,17.02609,0.0069764704,-0.007359609,0.009096146,0.0,0.0,0.0
645.76764,477.62878,14851013,1.1125001,0.11702127,-0.022090938,10.604992,0.0069764704,-0.007359609,0.009096146,0.0,0.0,0.0
645.76764,478.57703,14851029,1.1125001,0.11702127,0.0060261264,37.6165,0.0069764704,-0.007359609,0.009096146,0.0,0.0,0.0
645.76764,478.77966,14851046,1.1,0.11702127,0.0029250383,40.97823,0.0069764704,-0.007359609,0.009096146,0.0,0.0,0.0
646.26746,480.49988,14851063,1.1,0.11702127,15.175414,63.75303,0.0069764704,-0.007359609,0.009096146,0.0,0.0,0.0
646.7224,482.25378,14851079,1.1125001,0.11702127,25.923151,102.87498,0.0069764704,-0.007359609,0.009096146,0.0,0.0,0.0
646.76733,483.22217,14851096,1.0875,0.11702127,26.077736,108.01366,0.0069764704,-0.007359609,0.009096146,0.0,0.0,0.0
646.76733,483.22217,14851107,1.1125001,0.11702127,17.560505,82.790886,0.0069764704,-0.007359609,0.009096146,0.0,0.0,0.0
646.76733,483.22217,14851130,1.125,0.11702127,-4.77597,-4.5932126,0.0069764704,-0.007359609,0.009096146,0.0,0.0,0.0
646.76733,483.22217,14851146,1.125,0.11702127,-11.4972,-50.267868,0.0069764704,-0.007359609,0.009096146,0.0,0.0,0.0
647.26715,483.22217,14851163,1.1125001,0.11702127,6.9814696,-38.538124,0.0069764704,-0.007359609,0.009096146,0.0,0.0,0.0
647.51276,483.22217,14851180,1.1125001,0.11702127,21.70629,-9.097391,0.0069764704,-0.007359609,0.009096146,0.0,0.0,0.0
648.48895,484.50537,14851196,1.1125001,0.11702127,46.284603,32.934994,0.0069764704,-0.007359609,0.009096146,0.0,0.0,0.0
649.1282,485.39587,14851230,1.1,0.11702127,31.707716,42.345016,0.0069764704,-0.007359609,0.009096146,0.0,0.0,0.0
649.2665,485.8877,14851247,1.1,0.11702127,18.097868,56.44221,0.0069764704,-0.007359609,0.009096146,0.0,0.0,0.0
650.0163,485.8877,14851262,1.1,0.11702127,20.27212,35.05241,0.0069764704,-0.007359609,0.009096146,0.0,0.0,0.0
650.23315,485.8877,14851280,1.125,0.10638297,18.93242,3.3422806,0.0069764704,-0.007359609,0.009096146,0.0,0.0,0.0
650.2662,485.8877,14851297,1.1125001,0.11702127,12.59056,-30.707277,0.0069764704,-0.007359609,0.009096146,0.0,0.0,0.0
650.2662,485.8877,14851313,1.1125001,0.10638297,1.557245,-25.415796,0.0069764704,-0.007359609,0.009096146,0.0,0.0,0.0
651.3621,486.77612,14851330,1.1125001,0.10638297,24.502926,29.59561,0.0069764704,-0.007359609,0.009096146,0.0,0.0,0.0
651.26587,486.77612,14851347,1.1,0.10638297,24.71246,30.42243,0.0069764704,-0.007359609,0.009096146,0.0,0.0,0.0
651.85474,487.82288,14851364,1.1,0.10638297,31.246975,45.252216,0.0069764704,-0.007359609,0.009096146,0.0,0.0,0.0
653.023,489.44165,14851397,1.1,0.10638297,26.891384,57.723923,0.0069764704,-0.007359609,0.009096146,0.0,0.0,0.0
654.0149,489.44165,14851413,1.075,0.10638297,49.29221,43.679276,0.0055811703,0.010112315,0.0072774887,0.0,0.0,0.0
654.5998,490.9254,14851430,1.0625,0.10638297,56.930046,42.31257,0.0055811703,0.010112315,0.0072774887,0.0,0.0,0.0
655.6388,492.77234,14851447,1.0375,0.10638297,60.25286,88.09484,0.0055811703,0.010112315,0.0072774887,0.0,0.0,0.0
656.67426,494.61316,14851464,1.025,0.10638297,59.14546,141.77377,0.0055811703,0.010112315,0.0072774887,0.0,0.0,0.0
658.15356,496.4519,14851481,1.0375,0.10638297,72.03948,145.01424,0.0055811703,0.010112315,0.0072774887,0.0,0.0,0.0
660.2413,498.30737,14851497,1.0625,0.10638297,112.79213,134.56194,0.0055811703,0.010112315,0.0072774887,0.0,0.0,0.0
662.3239,500.15845,14851514,1.0625,0.10638297,144.1581,111.78733,0.0055811703,0.010112315,0.0072774887,0.0,0.0,0.0
664.9769,501.11987,14851531,1.0375,0.10638297,166.04672,82.93945,0.0055811703,0.010112315,0.0072774887,0.0,0.0,0.0
668.0653,502.0614,14851547,1.025,0.10638297,193.71208,52.143215,0.0055811703,0.010112315,0.0072774887,0.0,0.0,0.0
671.3107,501.88074,14851564,1.025,0.10638297,207.13768,8.093959,0.0055811703,0.010112315,0.0072774887,0.0,0.0,0.0
675.2858,502.76917,14851581,1.0125,0.10638297,243.35641,5.0276556,0.0055811703,0.010112315,0.0072774887,0.0,0.0,0.0
679.38293,503.16943,14851598,0.9875,0.12765957,262.80783,10.374061,0.0055811703,0.010112315,0.0072774887,0.0,0.0,0.0
683.8157,503.6577,14851614,0.975,0.12765957,284.01273,20.700502,0.0055811703,0.010112315,0.0072774887,0.0,0.0,0.0
688.2547,503.6577,14851631,0.975,0.12765957,289.62177,12.6491165,0.0055811703,0.010112315,0.0072774887,0.0,0.0,0.0
693.7947,503.6577,14851648,1.025,0.12765957,305.61237,-7.895396,0.0055811703,0.010112315,0.0072774887,0.0,0.0,0.0
699.95575,503.6577,14851664,1.0375,0.12765957,360.28058,-9.776712,0.0055811703,0.010112315,0.0072774887,0.0,0.0,0.0
705.7066,502.92957,14851681,1.025,0.12765957,386.14484,-27.960293,0.0055811703,0.010112315,0.0072774887,0.0,0.0,0.0
712.94617,501.05872,14851698,1.0375,0.09574468,426.06696,-74.16191,0.0055811703,0.010112315,0.0072774887,0.0,0.0,0.0
721.7988,496.5199,14851715,0.9875,0.09574468,492.00244,-208.37238,0.0055811703,0.010112315,0.0072774887,0.0,0.0,0.0
731.126,490.02527,14851731,1.0,0.10638297,586.753,-381.88968,0.0055811703,0.010112315,0.0072774887,0.0,0.0,0.0
740.3775,483.6046,14851748,1.0,0.11702127,642.6822,-496.65637,0.0055811703,0.010112315,0.0072774887,0.0,0.0,0.0
750.6001,474.8999,14851765,1.0,0.11702127,651.9783,-572.01825,0.0055811703,0.010112315,0.0072774887,0.0,0.0,0.0
759.1792,467.71924,14851781,1.0125,0.12765957,598.14557,-568.38654,0.0055811703,0.010112315,0.0072774887,0.0,0.0,0.0
767.5897,460.2439,14851798,0.9875,0.10638297,525.5457,-512.25653,0.0055811703,0.010112315,0.0072774887,0.0,0.0,0.0
777.1077,451.7843,14851815,1.0,0.09574468,518.651,-492.09363,0.0055811703,0.010112315,0.0072774887,0.0,0.0,0.0
786.4274,442.5669,14851832,0.975,0.08510638,555.004,-532.5544,0.0055811703,0.010112315,0.0072774887,0.0,0.0,0.0
794.044,433.42957,14851848,1.0,0.09574468,539.2908,-586.5299,0.0055811703,0.010112315,0.0072774887,0.0,0.0,0.0
799.98737,424.1012,14851865,0.9875,0.11702127,425.21924,-599.92645,0.0055811703,0.010112315,0.0072774887,0.0,0.0,0.0
804.2849,415.765,14851882,0.975,0.12765957,245.21272,-543.11053,0.0055811703,0.010112315,0.0072774887,0.0,0.0,0.0
808.76355,406.72388,14851898,1.0,0.12765957,141.79724,-500.22968,0.0055811703,0.010112315,0.0072774887,0.0,0.0,0.0
815.0703,391.323,14851915,1.0,0.10638297,216.74838,-670.97034,0.0055811703,0.010112315,0.0072774887,0.0,0.0,0.0
818.2456,379.14587,14851932,1.0,0.08510638,249.68498,-859.9505,0.0055811703,0.010112315,0.0072774887,0.0,0.0,0.0
819.81573,370.89832,14851949,1.0125,0.10638297,167.20998,-783.99054,-0.011535063,-0.007910147,-0.010178566,0.0,0.0,0.0
820.2108,362.5913,14851965,1.025,0.12765957,29.776533,-577.4912,-0.011535063,-0.007910147,-0.010178566,0.0,0.0,0.0
818.955,356.3717,14851982,1.0,0.12765957,-124.206474,-329.07162,-0.011535063,-0.007910147,-0.010178566,0.0,0.0,0.0
817.39124,351.15405,14851999,1.0125,0.12765957,-189.20699,-195.34822,-0.011535063,-0.007910147,-0.010178566,0.0,0.0,0.0
815.282,347.4048,14852015,1.025,0.11702127,-197.76608,-172.9207,-0.011535063,-0.007910147,-0.010178566,0.0,0.0,0.0
811.98047,343.73914,14852032,1.0375,0.11702127,-211.83957,-135.82553,-0.011535063,-0.007910147,-0.010178566,0.0,0.0,0.0
805.42664,340.04468,14852049,1.0125,0.10638297,-316.4615,-144.16118,-0.011535063,-0.007910147,-0.010178566,0.0,0.0,0.0
796.8732,336.9458,14852066,1.0125,0.10638297,-510.28168,-169.91798,-0.011535063,-0.007910147,-0.010178566,0.0,0.0,0.0
786.95166,335.08496,14852082,1.025,0.09574468,-691.99084,-140.59897,-0.011535063,-0.007910147,-0.010178566,0.0,0.0,0.0
776.7436,333.9536,14852099,1.0125,0.10638297,-756.9628,-73.159615,-0.011535063,-0.007910147,-0.010178566,0.0,0.0,0.0
768.27246,333.9536,14852116,1.0125,0.11702127,-675.03015,16.268854,-0.011535063,-0.007910147,-0.010178566,0.0,0.0,0.0
761.8314,333.9536,14852132,1.0125,0.11702127,-510.8862,64.92858,-0.011535063,-0.007910147,-0.010178566,0.0,0.0,0.0
757.1415,334.88196,14852149,1.025,0.12765957,-308.14987,79.68855,-0.011535063,-0.007910147,-0.010178566,0.0,0.0,0.0
753.4958,336.72437,14852166,1.0500001,0.12765957,-156.6336,120.79372,-0.011535063,-0.007910147,-0.010178566,0.0,0.0,0.0
750.43536,338.57275,14852183,1.0375,0.12765957,-84.43647,147.7771,-0.011535063,-0.007910147,-0.010178566,0.0,0.0,0.0
748.3247,340.65833,14852199,1.0375,0.12765957,-62.269352,163.26993,-0.011535063,-0.007910147,-0.010178566,0.0,0.0,0.0
745.8951,345.52185,14852216,1.0375,0.12765957,-77.61247,229.70976,-0.011535063,-0.007910147,-0.010178566,0.0,0.0,0.0
744.01953,350.21008,14852233,1.0500001,0.12765957,-93.754715,305.73465,-0.011535063,-0.007910147,-0.010178566,0.0,0.0,0.0
742.97894,354.4143,14852249,1.0625,0.10638297,-64.937164,358.40137,-0.011535063,-0.007910147,-0.010178566,0.0,0.0,0.0
742.7361,358.10986,14852266,1.0625,0.10638297,-21.880032,309.99762,-0.011535063,-0.007910147,-0.010178566,0.0,0.0,0.0
742.7361,361.18762,14852283,1.075,0.10638297,33.547543,211.21097,-0.011535063,-0.007910147,-0.010178566,0.0,0.0,0.0
743.57446,362.98755,14852300,1.0625,0.10638297,68.132996,113.47285,-0.011535063,-0.007910147,-0.010178566,0.0,0.0,0.0
744.2356,364.16272,14852316,1.0375,0.11702127,86.8993,46.93609,-0.011535063,-0.007910147,-0.010178566,0.0,0.0,0.0
744.71344,365.0121,14852333,1.025,0.11702127,73.70261,6.931141,-0.011535063,-0.007910147,-0.010178566,0.0,0.0,0.0
746.7199,366.81506,14852350,1.0125,0.09574468,80.21194,10.750048,-0.011535063,-0.007910147,-0.010178566,0.0,0.0,0.0
748.7658,368.63342,14852366,1.0,0.09574468,123.28536,74.648964,-0.011535063,-0.007910147,-0.010178566,0.0,0.0,0.0
751.94434,370.50732,14852383,1.0125,0.09574468,184.53558,119.37982,-0.011535063,-0.007910147,-0.010178566,0.0,0.0,0.0
754.45135,372.35388,14852400,1.025,0.09574468,217.70029,136.46866,-0.011535063,-0.007910147,-0.010178566,0.0,0.0,0.0
758.2582,375.05896,14852417,1.0375,0.10638297,227.396,145.14906,-0.011535063,-0.007910147,-0.010178566,0.0,0.0,0.0
761.8971,376.99695,14852433,1.0625,0.10638297,235.82756,142.47134,-0.011535063,-0.007910147,-0.010178566,0.0,0.0,0.0
764.91907,378.7876,14852450,1.0375,0.10638297,222.58394,131.54468,-0.011535063,-0.007910147,-0.010178566,0.0,0.0,0.0
768.8015,380.63293,14852467,1.0125,0.09574468,222.8923,110.450935,-0.011535063,-0.007910147,-0.010178566,0.0,0.0,0.0
772.9581,381.0443,14852483,1.025,0.09574468,236.63892,59.81942,0.006771952,0.009671882,-0.008142471,0.0,0.0,0.0
777.00134,381.0443,14852500,1.025,0.09574468,251.19547,1.5559185,0.006771952,0.009671882,-0.008142471,0.0,0.0,0.0
781.5314,381.0443,14852516,1.025,0.09574468,278.73062,-37.440033,0.006771952,0.009671882,-0.008142471,0.0,0.0,0.0
786.2885,381.0443,14852533,1.0125,0.10638297,297.50983,-52.48085,0.006771952,0.009671882,-0.008142471,0.0,0.0,0.0
790.8531,381.93274,14852550,1.0125,0.10638297,286.3754,-9.290957,0.006771952,0.009671882,-0.008142471,0.0,0.0,0.0
795.1244,381.93274,14852567,1.0125,0.11702127,284.13284,29.09391,0.006771952,0.009671882,-0.008142471,0.0,0.0,0.0
799.282,381.93274,14852583,1.0125,0.11702127,260.7959,18.351353,0.006771952,0.009671882,-0.008142471,0.0,0.0,0.0
803.93604,381.93274,14852600,1.0125,0.11702127,256.10306,-2.0434382,0.006771952,0.009671882,-0.008142471,0.0,0.0,0.0
809.17206,381.93274,14852617,1.0125,0.11702127,286.23578,-14.1225395,0.006771952,0.009671882,-0.008142471,0.0,0.0,0.0
813.2231,381.93274,14852633,1.0125,0.10638297,284.73907,-9.220889,0.006771952,0.009671882,-0.008142471,0.0,0.0,0.0
817.37775,381.93274,14852650,1.0125,0.09574468,268.31528,-0.022990318,0.006771952,0.009671882,-0.008142471,0.0,0.0,0.0
821.75867,380.67175,14852667,1.0125,0.09574468,243.84172,-28.33266,0.006771952,0.009671882,-0.008142471,0.0,0.0,0.0
826.44666,379.71582,14852684,1.0,0.09574468,252.93283,-73.90867,0.006771952,0.009671882,-0.008142471,0.0,0.0,0.0
830.85724,377.86792,14852700,1.0125,0.09574468,279.05136,-116.67394,0.006771952,0.009671882,-0.008142471,0.0,0.0,0.0
835.0038,375.4486,14852717,1.0125,0.09574468,270.34222,-150.275,0.006771952,0.009671882,-0.008142471,0.0,0.0,0.0
839.16205,373.28882,14852734,1.0,0.09574468,247.63507,-169.6298,0.006771952,0.009671882,-0.008142471,0.0,0.0,0.0
842.3693,371.46875,14852750,1.0,0.10638297,208.55913,-151.41957,0.006771952,0.009671882,-0.008142471,0.0,0.0,0.0
845.9137,369.62195,14852767,0.9875,0.10638297,182.56686,-125.73261,0.006771952,0.009671882,-0.008142471,0.0,0.0,0.0
849.62366,366.89722,14852784,0.975,0.10638297,186.34119,-113.83716,0.006771952,0.009671882,-0.008142471,0.0,0.0,0.0
853.28815,364.08447,14852801,0.9875,0.12765957,208.77867,-154.77573,0.006771952,0.009671882,-0.008142471,0.0,0.0,0.0
857.449,362.27454,14852817,0.9875,0.12765957,243.0421,-168.32486,0.006771952,0.009671882,-0.008142471,0.0,0.0,0.0
861.6037,360.4281,14852834,0.96250004,0.12765957,263.77972,-138.68846,0.006771952,0.009671882,-0.008142471,0.0,0.0,0.0
866.3081,358.5597,14852851,0.96250004,0.12765957,278.44183,-102.88687,0.006771952,0.009671882,-0.008142471,0.0,0.0,0.0
871.005,356.69458,14852867,0.96250004,0.12765957,294.33942,-85.38828,0.006771952,0.009671882,-0.008142471,0.0,0.0,0.0
876.1829,354.92578,14852884,0.9375,0.10638297,307.51587,-100.64276,0.006771952,0.009671882,-0.008142471,0.0,0.0,0.0
881.6982,353.94275,14852901,0.96250004,0.10638297,332.65976,-85.32582,0.006771952,0.009671882,-0.008142471,0.0,0.0,0.0
887.4348,353.5006,14852917,0.96250004,0.10638297,354.12033,-42.242626,0.006771952,0.009671882,-0.008142471,0.0,0.0,0.0
893.28436,353.5006,14852934,0.95,0.10638297,372.81607,13.500803,0.006771952,0.009671882,-0.008142471,0.0,0.0,0.0
898.9973,353.5006,14852951,0.9375,0.12765957,365.90436,41.73072,0.006771952,0.009671882,-0.008142471,0.0,0.0,0.0
903.21576,355.06982,14852968,0.95,0.12765957,306.775,73.28778,0.006771952,0.009671882,-0.008142471,0.0,0.0,0.0
907.309,356.8888,14852984,0.9375,0.12765957,240.24843,119.230316,0.006771952,0.009671882,-0.008142471,0.0,0.0,0.0
911.1202,358.80457,14853001,0.95,0.11702127,190.41412,153.38315,0.006771952,0.009671882,-0.008142471,0.0,0.0,0.0
914.26605,362.48743,14853018,0.96250004,0.11702127,172.00954,211.82697,0.0054175556,-0.0082625,0.025485992,0.0,0.0,0.0
916.3133,365.2887,14853034,0.9875,0.11702127,135.96434,223.74557,0.0054175556,-0.0082625,0.025485992,0.0,0.0,0.0
918.3936,368.98682,14853051,0.9875,0.11702127,100.61188,237.87378,0.0054175556,-0.0082625,0.025485992,0.0,0.0,0.0
920.9892,376.81897,14853068,1.0,0.11702127,95.141235,361.6278,0.0054175556,-0.0082625,0.025485992,0.0,0.0,0.0
922.3861,383.0443,14853085,1.0,0.11702127,89.601814,455.62424,0.0054175556,-0.0082625,0.025485992,0.0,0.0,0.0
922.6775,388.05103,14853101,1.0,0.12765957,53.649,458.88232,0.0054175556,-0.0082625,0.025485992,0.0,0.0,0.0
922.6775,392.19348,14853118,1.0125,0.12765957,-19.539404,322.39813,0.0054175556,-0.0082625,0.025485992,0.0,0.0,0.0
921.87897,398.63013,14853135,1.0375,0.12765957,-79.577095,265.7731,0.0054175556,-0.0082625,0.025485992,0.0,0.0,0.0
920.5158,405.61084,14853151,1.0375,0.12765957,-106.893524,344.2943,0.0054175556,-0.0082625,0.025485992,0.0,0.0,0.0
918.06885,412.1068,14853168,1.0125,0.11702127,-146.55006,435.65375,0.0054175556,-0.0082625,0.025485992,0.0,0.0,0.0
914.9911,419.40137,14853185,1.0125,0.09574468,-203.11519,468.08786,0.0054175556,-0.0082625,0.025485992,0.0,0.0,0.0
911.8717,426.79468,14853202,1.0,0.09574468,-236.94463,453.52463,0.0054175556,-0.0082625,0.025485992,0.0,0.0,0.0
907.2168,435.182,14853218,0.9875,0.08510638,-274.55615,480.54935,0.0054175556,-0.0082625,0.025485992,0.0,0.0,0.0
903.58234,438.85706,14853235,0.975,0.10638297,-286.57758,402.43533,0.0054175556,-0.0082625,0.025485992,0.0,0.0,0.0
899.4669,444.38635,14853252,0.975,0.10638297,-279.45285,306.53656,0.0054175556,-0.0082625,0.025485992,0.0,0.0,0.0
895.84186,448.08997,14853268,0.9875,0.10638297,-250.08093,191.48953,0.0054175556,-0.0082625,0.025485992,0.0,0.0,0.0
891.00385,453.92456,14853285,0.975,0.12765957,-245.65683,193.91145,0.0054175556,-0.0082625,0.025485992,0.0,0.0,0.0
886.4388,460.2328,14853302,0.975,0.10638297,-266.17245,306.37396,0.0054175556,-0.0082625,0.025485992,0.0,0.0,0.0
880.5603,468.8368,14853319,0.96250004,0.08510638,-330.12497,478.2995,0.0054175556,-0.0082625,0.025485992,0.0,0.0,0.0
876.43634,474.78503,14853335,0.975,0.09574468,-338.65756,533.881,0.0054175556,-0.0082625,0.025485992,0.0,0.0,0.0
872.0742,481.65796,14853352,0.95,0.09574468,-282.79868,446.34506,0.0054175556,-0.0082625,0.025485992,0.0,0.0,0.0
868.6902,488.5619,14853369,0.96250004,0.09574468,-221.56265,406.43634,0.0054175556,-0.0082625,0.025485992,0.0,0.0,0.0
865.9558,493.4225,14853385,0.95,0.11702127,-153.42474,339.40244,0.0054175556,-0.0082625,0.025485992,0.0,0.0,0.0
863.8793,497.11365,14853402,0.96250004,0.11702127,-102.0718,245.21149,0.0054175556,-0.0082625,0.025485992,0.0,0.0,0.0
861.8133,500.78613,14853419,0.95,0.12765957,-80.06908,170.66426,0.0054175556,-0.0082625,0.025485992,0.0,0.0,0.0
860.699,504.5415,14853435,0.95,0.12765957,-50.27448,115.41932,0.0054175556,-0.0082625,0.025485992,0.0,0.0,0.0
859.6521,510.12183,14853452,0.95,0.12765957,-42.111656,231.43036,0.0054175556,-0.0082625,0.025485992,0.0,0.0,0.0
858.62286,514.5879,14853469,0.95,0.11702127,-35.591618,311.6745,0.0054175556,-0.0082625,0.025485992,0.0,0.0,0.0
858.1985,518.35547,14853486,0.95,0.11702127,-23.605228,296.39108,0.0054175556,-0.0082625,0.025485992,0.0,0.0,0.0
858.1985,522.0154,14853502,0.9375,0.09574468,-0.84598005,242.01697,0.0054175556,-0.0082625,0.025485992,0.0,0.0,0.0
858.1985,524.76587,14853519,0.9375,0.09574468,16.93142,171.0071,0.0054175556,-0.0082625,0.025485992,0.0,0.0,0.0
858.4185,527.1499,14853536,0.90000004,0.09574468,32.21993,125.55677,0.0054175556,-0.0082625,0.025485992,0.0,0.0,0.0
858.96857,528.1277,14853552,0.8875,0.09574468,37.272945,75.82862,0.0043340474,0.0093899965,0.004389763,0.0,0.0,0.0
860.8135,529.97144,14853569,0.90000004,0.09574468,75.32549,34.92999,0.0043340474,0.0093899965,0.004389763,0.0,0.0,0.0
864.5963,531.82324,14853586,0.8875,0.09574468,181.2721,55.105183,0.0043340474,0.0093899965,0.004389763,0.0,0.0,0.0
869.0513,533.63806,14853603,0.90000004,0.08510638,293.9171,93.80627,0.0043340474,0.0093899965,0.004389763,0.0,0.0,0.0
873.82745,534.7554,14853619,0.90000004,0.08510638,365.00778,110.2613,0.0043340474,0.0093899965,0.004389763,0.0,0.0,0.0
879.95447,535.6438,14853636,0.9125,0.08510638,399.29062,71.74177,0.0043340474,0.0093899965,0.004389763,0.0,0.0,0.0
887.214,536.53235,14853653,0.90000004,0.08510638,442.11487,35.295807,0.0043340474,0.0093899965,0.004389763,0.0,0.0,0.0
894.9655,534.6846,14853669,0.9125,0.09574468,504.85413,-50.626087,0.0043340474,0.0093899965,0.004389763,0.0,0.0,0.0
902.754,530.91187,14853686,0.8875,0.11702127,541.40393,-190.41609,0.0043340474,0.0093899965,0.004389763,0.0,0.0,0.0
913.6804,525.426,14853703,0.8875,0.11702127,570.294,-323.60242,0.0043340474,0.0093899965,0.004389763,0.0,0.0,0.0
922.9274,520.095,14853719,0.925,0.12765957,604.53033,-418.65875,0.0043340474,0.0093899965,0.004389763,0.0,0.0,0.0
931.04724,514.849,14853736,0.90000004,0.10638297,616.57153,-448.24045,0.0043340474,0.0093899965,0.004389763,0.0,0.0,0.0
940.1852,507.00098,14853753,0.8875,0.09574468,590.4027,-462.3255,0.0043340474,0.0093899965,0.004389763,0.0,0.0,0.0
950.1583,496.72278,14853770,0.8875,0.08510638,579.3054,-579.33734,0.0043340474,0.0093899965,0.004389763,0.0,0.0,0.0
959.52905,485.5,14853786,0.8875,0.09574468,563.6623,-721.04474,0.0043340474,0.0093899965,0.004389763,0.0,0.0,0.0
969.3091,474.1632,14853803,0.8625,0.11702127,591.4023,-800.79913,0.0043340474,0.0093899965,0.004389763,0.0,0.0,0.0
980.3435,462.28442,14853820,0.8875,0.12765957,613.7717,-790.20337,0.0043340474,0.0093899965,0.004389763,0.0,0.0,0.0
989.94934,452.07275,14853837,0.8875,0.09574468,604.10205,-686.96436,0.0043340474,0.0093899965,0.004389763,0.0,0.0,0.0
998.431,440.86963,14853853,0.90000004,0.08510638,570.3742,-638.7159,0.0043340474,0.0093899965,0.004389763,0.0,0.0,0.0
1005.8071,430.56836,14853870,0.90000004,0.10638297,476.2562,-626.083,0.0043340474,0.0093899965,0.004389763,0.0,0.0,0.0
1012.7726,420.07568,14853887,0.8875,0.12765957,375.85263,-603.0372,0.0043340474,0.0093899965,0.004389763,0.0,0.0,0.0
1018.22644,411.28296,14853903,0.90000004,0.12765957,309.07983,-584.4149,0.0043340474,0.0093899965,0.004389763,0.0,0.0,0.0
1023.98755,399.73218,14853920,0.875,0.09574468,296.15308,-604.25134,0.0043340474,0.0093899965,0.004389763,0.0,0.0,0.0
1030.6123,385.3313,14853937,0.90000004,0.09574468,338.78845,-776.2467,0.0043340474,0.0093899965,0.004389763,0.0,0.0,0.0
1036.6439,372.23987,14853954,0.8625,0.10638297,344.43582,-840.63434,0.0043340474,0.0093899965,0.004389763,0.0,0.0,0.0
1044.5538,353.2306,14853970,0.875,0.12765957,423.13168,-1070.461,0.0043340474,0.0093899965,0.004389763,0.0,0.0,0.0
1050.5435,337.44763,14853987,0.8875,0.08510638,426.08942,-1105.3635,0.0043340474,0.0093899965,0.004389763,0.0,0.0,0.0
1054.6061,322.81714,14854004,0.875,0.08510638,332.5876,-1028.0466,0.0043340474,0.0093899965,0.004389763,0.0,0.0,0.0
1058.4563,309.70447,14854020,0.8625,0.12765957,219.465,-878.22736,0.0043340474,0.0093899965,0.004389763,0.0,0.0,0.0
1062.6232,294.2279,14854037,0.8875,0.12765957,134.91899,-728.48157,0.0043340474,0.0093899965,0.004389763,0.0,0.0,0.0
1066.3389,279.14465,14854054,0.8625,0.08510638,174.01231,-838.8632,0.0043340474,0.0093899965,0.004389763,0.0,0.0,0.0
1069.0833,263.245,14854071,0.90000004,0.08510638,184.88527,-909.1864,0.0043340474,0.0093899965,0.004389763,0.0,0.0,0.0
1072.7684,246.32141,14854087,0.8625,0.12765957,182.36905,-1019.65466,-0.012532756,-0.024488002,0.019511223,0.0,0.0,0.0
1075.3223,230.2207,14854104,0.875,0.09574468,159.3838,-1013.7697,-0.012532756,-0.024488002,0.019511223,0.0,0.0,0.0
1077.312,216.2456,14854121,0.875,0.09574468,136.72285,-985.88043,-0.012532756,-0.024488002,0.019511223,0.0,0.0,0.0
1080.1262,200.23389,14854136,0.8625,0.12765957,129.70654,-920.3213,-0.012532756,-0.024488002,0.019511223,0.0,0.0,0.0
1082.7631,186.10608,14854154,0.875,0.11702127,133.94193,-870.7622,-0.012532756,-0.024488002,0.019511223,0.0,0.0,0.0
1085.0421,173.20349,14854171,0.8625,0.09574468,150.95937,-819.25934,-0.012532756,-0.024488002,0.019511223,0.0,0.0,0.0
1087.1301,162.0011,14854187,0.8625,0.09574468,148.54753,-732.6232,-0.012532756,-0.024488002,0.019511223,0.0,0.0,0.0
1089.4165,151.8706,14854204,0.8875,0.11702127,132.50134,-604.4644,-0.012532756,-0.024488002,0.019511223,0.0,0.0,0.0
1091.097,141.28467,14854221,0.875,0.12765957,97.16188,-477.43918,-0.012532756,-0.024488002,0.019511223,0.0,0.0,0.0
1092.821,130.93506,14854238,0.8875,0.11702127,86.39635,-522.6318,-0.012532756,-0.024488002,0.019511223,0.0,0.0,0.0
1093.6218,121.72754,14854254,0.90000004,0.09574468,69.57206,-545.526,-0.012532756,-0.024488002,0.019511223,0.0,0.0,0.0
1094.1217,117.15881,14854270,0.90000004,0.09574468,32.55853,-468.3482,-0.012532756,-0.024488002,0.019511223,0.0,0.0,0.0
1094.1217,108.33838,14854288,0.90000004,0.09574468,-12.561071,-363.22076,-0.012532756,-0.024488002,0.019511223,0.0,0.0,0.0
1094.1217,102.68262,14854304,0.90000004,0.09574468,-34.54003,-269.4055,-0.012532756,-0.024488002,0.019511223,0.0,0.0,0.0
1094.1217,99.11951,14854321,0.90000004,0.09574468,-27.215313,-216.45116,-0.012532756,-0.024488002,0.019511223,0.0,0.0,0.0
1093.4889,97.37549,14854338,0.90000004,0.11702127,-26.483488,-108.94995,-0.012532756,-0.024488002,0.019511223,0.0,0.0,0.0
1092.4889,95.59778,14854355,0.90000004,0.11702127,-54.87952,-34.823166,-0.012532756,-0.024488002,0.019511223,0.0,0.0,0.0
1091.429,93.71387,14854371,0.925,0.11702127,-78.948586,-18.838015,-0.012532756,-0.024488002,0.019511223,0.0,0.0,0.0
1090.401,91.88635,14854388,0.925,0.11702127,-90.24377,-59.08445,-0.012532756,-0.024488002,0.019511223,0.0,0.0,0.0
1089.3661,90.04663,14854405,0.9125,0.11702127,-77.60754,-103.29502,-0.012532756,-0.024488002,0.019511223,0.0,0.0,0.0
1088.3517,89.615234,14854421,0.925,0.11702127,-60.814938,-73.388115,-0.012532756,-0.024488002,0.019511223,0.0,0.0,0.0
1087.3009,89.615234,14854438,0.975,0.11702127,-61.046856,-5.650179,-0.012532756,-0.024488002,0.019511223,0.0,0.0,0.0
1085.9097,89.615234,14854455,0.9875,0.11702127,-66.93398,43.6905,-0.012532756,-0.024488002,0.019511223,0.0,0.0,0.0
1083.8322,89.615234,14854472,1.0,0.11702127,-100.91991,50.692356,-0.012532756,-0.024488002,0.019511223,0.0,0.0,0.0
1082.1888,89.615234,14854488,1.0125,0.11702127,-127.54828,24.415186,-0.012532756,-0.024488002,0.019511223,0.0,0.0,0.0
1080.6442,89.615234,14854505,1.0125,0.11702127,-118.403915,0.014304949,-0.012532756,-0.024488002,0.019511223,0.0,0.0,0.0
1079.59,89.615234,14854522,1.0125,0.11702127,-88.899155,0.005098288,-0.012532756,-0.024488002,0.019511223,0.0,0.0,0.0
1078.5522,91.52466,14854538,1.0125,0.11702127,-55.792133,53.454304,-0.012532756,-0.024488002,0.019511223,0.0,0.0,0.0
1077.5342,91.39221,14854555,1.0125,0.11702127,-45.251396,62.797035,-0.012532756,-0.024488002,0.019511223,0.0,0.0,0.0
1076.4688,91.39221,14854572,1.0625,0.11702127,-50.36757,37.941288,-0.012532756,-0.024488002,0.019511223,0.0,0.0,0.0
1075.5042,92.28064,14854589,1.025,0.11702127,-52.491623,28.882921,-0.012532756,-0.024488002,0.019511223,0.0,0.0,0.0
1074.628,93.57532,14854605,1.025,0.11702127,-58.585453,36.4995,-0.012532756,-0.024488002,0.019511223,0.0,0.0,0.0
1073.8763,94.94617,14854622,1.0375,0.11702127,-45.324677,94.77661,-0.010026202,-0.00359039,0.015608788,0.0,0.0,0.0
1073.3383,96.350464,14854639,1.0375,0.11702127,-32.11907,104.24282,-0.010026202,-0.00359039,0.015608788,0.0,0.0,0.0
1073.1285,97.611694,14854655,1.0375,0.11702127,-16.733557,97.92296,-0.010026202,-0.00359039,0.015608788,0.0,0.0,0.0
1072.7437,98.500244,14854672,1.0500001,0.11702127,-2.6678,80.35628,-0.010026202,-0.00359039,0.015608788,0.0,0.0,0.0
1072.6287,99.25525,14854689,1.025,0.11702127,-3.4949682,43.67415,-0.010026202,-0.00359039,0.015608788,0.0,0.0,0.0
1072.6287,101.09631,14854706,1.025,0.10638297,4.4167466,58.054523,-0.010026202,-0.00359039,0.015608788,0.0,0.0,0.0
1072.6287,102.05725,14854722,1.0500001,0.11702127,4.261687,69.72166,-0.010026202,-0.00359039,0.015608788,0.0,0.0,0.0
1072.6287,102.94275,14854739,1.0375,0.11702127,5.860819,81.2384,-0.010026202,-0.00359039,0.015608788,0.0,0.0,0.0
1072.042,103.98547,14854756,1.0625,0.11702127,-6.4519277,60.40606,-0.010026202,-0.00359039,0.015608788,0.0,0.0,0.0
1072.1288,104.97681,14854772,1.0375,0.11702127,-18.182758,40.47687,-0.010026202,-0.00359039,0.015608788,0.0,0.0,0.0
1071.629,104.71973,14854789,1.0375,0.10638297,-28.229155,18.695507,-0.010026202,-0.00359039,0.015608788,0.0,0.0,0.0
1071.629,105.60828,14854806,1.0375,0.10638297,-18.870472,25.608152,-0.010026202,-0.00359039,0.015608788,0.0,0.0,0.0
1071.1292,105.60828,14854822,1.0500001,0.10638297,-14.820017,12.062959,-0.010026202,-0.00359039,0.015608788,0.0,0.0,0.0
1071.1292,105.60828,14854839,1.0500001,0.10638297,-9.2681465,-12.153301,-0.010026202,-0.00359039,0.015608788,0.0,0.0,0.0
1071.1292,105.60828,14854856,1.0500001,0.10638297,0.58517456,-15.722635,-0.010026202,-0.00359039,0.015608788,0.0,0.0,0.0
1070.6293,105.60828,14854873,1.0500001,0.10638297,-12.470804,-16.143576,-0.010026202,-0.00359039,0.015608788,0.0,0.0,0.0
1069.8796,105.60828,14854887,1.0625,0.10638297,-28.103651,-8.621465,-0.010026202,-0.00359039,0.015608788,0.0,0.0,0.0
1070.1295,105.60828,14854906,1.0375,0.10638297,-29.139795,0.005286738,-0.010026202,-0.00359039,0.015608788,0.0,0.0,0.0
1070.1295,105.60828,14854923,1.0500001,0.10638297,-9.677254,-0.005696135,-0.010026202,-0.00359039,0.015608788,0.0,0.0,0.0
1070.1295,105.60828,14854939,1.0625,0.10638297,10.455853,-2.0519564E-4,-0.010026202,-0.00359039,0.015608788,0.0,0.0,0.0
1069.5804,105.60828,14854956,1.075,0.10638297,0.28588358,0.0024297382,-0.010026202,-0.00359039,0.015608788,0.0,0.0,0.0
1069.6296,105.60828,14854973,1.0500001,0.10638297,-13.981735,-0.005026069,-0.010026202,-0.00359039,0.015608788,0.0,0.0,0.0
1069.6296,105.60828,14854984,1.075,0.10638297,-18.2544,-0.0091788,-0.010026202,-0.00359039,0.015608788,0.0,0.0,0.0
1069.6296,106.816284,14855006,1.075,0.10638297,1.091938,31.834476,-0.010026202,-0.00359039,0.015608788,0.0,0.0,0.0
1068.8799,106.496704,14855023,1.0500001,0.10638297,-8.294354,33.014957,-0.010026202,-0.00359039,0.015608788,0.0,0.0,0.0
1068.3445,106.496704,14855056,1.0375,0.10638297,-33.62451,-6.025269,-0.010026202,-0.00359039,0.015608788,0.0,0.0,0.0
1067.3064,106.496704,14855073,1.0375,0.10638297,-50.715054,-18.962582,-0.010026202,-0.00359039,0.015608788,0.0,0.0,0.0
1066.3806,106.496704,14855088,1.0625,0.10638297,-67.2616,-9.892738,-0.010026202,-0.00359039,0.015608788,0.0,0.0,0.0
1065.7312,106.496704,14855107,1.025,0.10638297,-62.096348,0.0015481961,-0.010026202,-0.00359039,0.015608788,0.0,0.0,0.0
1064.6913,106.496704,14855123,1.0375,0.10638297,-51.411606,-0.0028245817,-0.010026202,-0.00359039,0.015608788,0.0,0.0,0.0
1064.1515,106.496704,14855140,1.0375,0.10638297,-43.652657,0.014056825,-0.010026202,-0.00359039,0.015608788,0.0,0.0,0.0
1063.1111,106.496704,14855157,1.0125,0.09574468,-47.71338,0.009374823,0.007979035,0.021127686,0.012486458,0.0,0.0,0.0
1062.1007,106.496704,14855173,1.0125,0.09574468,-60.24462,0.010150806,0.007979035,0.021127686,0.012486458,0.0,0.0,0.0
1061.0371,106.496704,14855190,1.0125,0.09574468,-66.02345,0.00733799,0.007979035,0.021127686,0.012486458,0.0,0.0,0.0
1060.0024,106.496704,14855207,1.0125,0.09574468,-70.12315,6.2314E-4,0.007979035,0.021127686,0.012486458,0.0,0.0,0.0
1058.925,106.496704,14855224,1.0125,0.09574468,-67.106125,0.005239214,0.007979035,0.021127686,0.012486458,0.0,0.0,0.0
1058.4237,106.496704,14855240,0.975,0.09574468,-49.60123,0.0012996566,0.007979035,0.021127686,0.012486458,0.0,0.0,0.0
1058.1334,106.496704,14855257,1.0125,0.09574468,-24.6589,0.012013756,0.007979035,0.021127686,0.012486458,0.0,0.0,0.0
1057.3433,106.496704,14855274,1.0125,0.09574468,-13.887199,0.009309456,0.007979035,0.021127686,0.012486458,0.0,0.0,0.0
1056.3076,107.385254,14855290,0.9875,0.09574468,-35.424377,26.173798,0.007979035,0.021127686,0.012486458,0.0,0.0,0.0
1055.7668,107.385254,14855307,1.0125,0.09574468,-51.659595,34.410007,0.007979035,0.021127686,0.012486458,0.0,0.0,0.0
1055.6342,107.385254,14855324,0.9875,0.09574468,-40.372387,19.856339,0.007979035,0.021127686,0.012486458,0.0,0.0,0.0
1055.1344,107.385254,14855340,1.0,0.09574468,-19.145754,-1.3124049,0.007979035,0.021127686,0.012486458,0.0,0.0,0.0
1054.6345,107.385254,14855357,1.0125,0.09574468,-8.950193,-15.824331,0.007979035,0.021127686,0.012486458,0.0,0.0,0.0
1054.1346,107.385254,14855374,1.0,0.09574468,-24.57556,-8.658237,0.007979035,0.021127686,0.012486458,0.0,0.0,0.0
1053.6349,107.385254,14855391,0.9875,0.09574468,-34.102543,-0.004065139,0.007979035,0.021127686,0.012486458,0.0,0.0,0.0
1052.534,107.385254,14855407,0.9875,0.09574468,-47.617817,5.3814496E-4,0.007979035,0.021127686,0.012486458,0.0,0.0,0.0
1051.4829,107.385254,14855424,1.0,0.09574468,-61.482777,-0.0010757039,0.007979035,0.021127686,0.012486458,0.0,0.0,0.0
1051.0371,107.385254,14855441,0.975,0.09574468,-54.417244,-0.003473289,0.007979035,0.021127686,0.012486458,0.0,0.0,0.0
1049.9197,107.385254,14855457,0.9875,0.09574468,-58.501274,0.00879614,0.007979035,0.021127686,0.012486458,0.0,0.0,0.0
1048.8802,107.385254,14855474,0.975,0.09574468,-62.429127,-0.0016547726,0.007979035,0.021127686,0.012486458,0.0,0.0,0.0
1047.8413,107.385254,14855491,0.9875,0.09574468,-69.53722,0.0044053094,0.007979035,0.021127686,0.012486458,0.0,0.0,0.0
1046.8041,107.385254,14855508,0.95,0.09574468,-73.05975,0.0065974244,0.007979035,0.021127686,0.012486458,0.0,0.0,0.0
1046.2635,107.385254,14855524,0.975,0.09574468,-43.410892,0.007932612,0.007979035,0.021127686,0.012486458,0.0,0.0,0.0
1045.2278,107.385254,14855541,0.96250004,0.10638297,-41.974693,0.01279324,0.007979035,0.021127686,0.012486458,0.0,0.0,0.0
1044.2156,107.385254,14855558,0.975,0.10638297,-50.363968,8.76619E-6,0.007979035,0.021127686,0.012486458,0.0,0.0,0.0
1043.6466,107.385254,14855574,0.96250004,0.10638297,-48.01348,7.2727946E-4,0.007979035,0.021127686,0.012486458,0.0,0.0,0.0
1042.566,107.385254,14855591,0.95,0.10638297,-51.65495,0.002098279,0.007979035,0.021127686,0.012486458,0.0,0.0,0.0
1041.5701,107.385254,14855608,0.96250004,0.10638297,-58.147636,0.006063883,0.007979035,0.021127686,0.012486458,0.0,0.0,0.0
1040.531,107.385254,14855625,0.95,0.10638297,-64.60091,0.0049819564,0.007979035,0.021127686,0.012486458,0.0,0.0,0.0
1040.1393,107.385254,14855641,0.95,0.10638297,-56.381012,-0.004819681,0.007979035,0.021127686,0.012486458,0.0,0.0,0.0
1038.9357,107.385254,14855658,0.95,0.10638297,-49.152508,0.0020355613,0.007979035,0.021127686,0.012486458,0.0,0.0,0.0
1037.9182,107.385254,14855675,0.95,0.11702127,-50.074383,-0.0027559071,-0.009616777,-0.007097855,0.009988785,0.0,0.0,0.0
1036.8785,107.385254,14855691,0.95,0.11702127,-64.78935,0.0023751466,-0.009616777,-0.007097855,0.009988785,0.0,0.0,0.0
1035.8379,107.385254,14855708,0.95,0.11702127,-72.73717,-0.004342439,-0.009616777,-0.007097855,0.009988785,0.0,0.0,0.0
1034.7997,107.385254,14855725,0.95,0.11702127,-67.08751,0.006269782,-0.009616777,-0.007097855,0.009988785,0.0,0.0,0.0
1033.7625,107.385254,14855742,0.95,0.11702127,-61.403053,0.002962556,-0.009616777,-0.007097855,0.009988785,0.0,0.0,0.0
1032.7244,107.385254,14855758,0.9375,0.11702127,-61.268528,2.6461552E-4,-0.009616777,-0.007097855,0.009988785,0.0,0.0,0.0
1031.6865,107.385254,14855775,0.96250004,0.11702127,-61.895885,0.009905345,-0.009616777,-0.007097855,0.009988785,0.0,0.0,0.0
1030.6622,107.385254,14855792,0.9375,0.11702127,-61.79472,0.0066275154,-0.009616777,-0.007097855,0.009988785,0.0,0.0,0.0
1029.6063,107.385254,14855808,0.95,0.11702127,-62.207382,0.0016747441,-0.009616777,-0.007097855,0.009988785,0.0,0.0,0.0
1028.5719,107.385254,14855825,0.96250004,0.11702127,-62.36741,5.767304E-4,-0.009616777,-0.007097855,0.009988785,0.0,0.0,0.0
1027.5251,107.385254,14855842,0.95,0.11702127,-62.329884,0.002019132,-0.009616777,-0.007097855,0.009988785,0.0,0.0,0.0
1026.4503,107.385254,14855858,0.96250004,0.11702127,-62.3528,0.0019139356,-0.009616777,-0.007097855,0.009988785,0.0,0.0,0.0
1025.4797,108.56555,14855875,0.95,0.11702127,-61.573956,26.666094,-0.009616777,-0.007097855,0.009988785,0.0,0.0,0.0
1024.4141,109.16223,14855892,0.96250004,0.11702127,-61.79065,61.447968,-0.009616777,-0.007097855,0.009988785,0.0,0.0,0.0
1024.1444,109.63696,14855909,0.95,0.11702127,-42.352814,58.62468,-0.009616777,-0.007097855,0.009988785,0.0,0.0,0.0
1023.34924,110.575806,14855925,0.975,0.11702127,-26.322353,51.851955,-0.009616777,-0.007097855,0.009988785,0.0,0.0,0.0
1022.8948,111.38342,14855932,0.96250004,0.11702127,-30.836233,62.706547,-0.009616777,-0.007097855,0.009988785,0.0,0.0,0.0
1022.25977,110.93921,14855959,0.96250004,0.11702127,-24.727388,7.366182,-0.009616777,-0.007097855,0.009988785,0.0,0.0,0.0
1022.14514,112.198364,14855975,0.96250004,0.11702127,-20.879175,26.191885,-0.009616777,-0.007097855,0.009988785,0.0,0.0,0.0
1021.21204,112.5979,14855992,0.95,0.11702127,-21.369791,19.158323,-0.009616777,-0.007097855,0.009988785,0.0,0.0,0.0
1020.6456,113.60437,14856009,0.95,0.11702127,-35.737717,52.702976,-0.009616777,-0.007097855,0.009988785,0.0,0.0,0.0
1019.6024,113.60474,14856026,0.9875,0.10638297,-55.89757,54.01269,-0.009616777,-0.007097855,0.009988785,0.0,0.0,0.0
1019.0642,114.493286,14856042,0.95,0.10638297,-50.561123,35.1377,-0.009616777,-0.007097855,0.009988785,0.0,0.0,0.0
1018.0255,114.493286,14856059,0.975,0.10638297,-56.174564,15.589457,-0.009616777,-0.007097855,0.009988785,0.0,0.0,0.0
1016.9623,115.70972,14856076,0.96250004,0.10638297,-62.73367,18.45652,-0.009616777,-0.007097855,0.009988785,0.0,0.0,0.0
1015.9254,115.381836,14856092,0.96250004,0.10638297,-70.64808,17.744654,-0.009616777,-0.007097855,0.009988785,0.0,0.0,0.0
1015.921,116.67212,14856109,0.925,0.10638297,-38.41928,34.13419,-0.009616777,-0.007097855,0.009988785,0.0,0.0,0.0
1014.8793,117.635376,14856126,0.925,0.12765957,-26.047018,71.44685,-0.009616777,-0.007097855,0.009988785,0.0,0.0,0.0
1013.9005,118.93579,14856143,0.9375,0.12765957,-41.711456,89.21445,-0.009616777,-0.007097855,0.009988785,0.0,0.0,0.0
1012.8179,119.82434,14856159,0.9375,0.10638297,-65.78214,88.42046,-0.009616777,-0.007097855,0.009988785,0.0,0.0,0.0
1011.2871,120.71277,14856176,0.9375,0.10638297,-94.04991,63.326298,-0.009616777,-0.007097855,0.009988785,0.0,0.0,0.0
1009.38074,122.28418,14856193,0.925,0.10638297,-106.2837,55.401386,-0.009616777,-0.007097855,0.009988785,0.0,0.0,0.0
1007.25684,124.171875,14856209,0.925,0.10638297,-130.72214,92.981255,-0.007693425,0.010321721,0.023991585,0.0,0.0,0.0
1004.12146,126.06128,14856226,0.925,0.10638297,-175.25232,127.397316,-0.007693425,0.010321721,0.023991585,0.0,0.0,0.0
1001.0132,128.87378,14856243,0.9125,0.10638297,-212.84004,161.8302,-0.007693425,0.010321721,0.023991585,0.0,0.0,0.0
997.93286,132.52417,14856260,0.925,0.10638297,-224.82104,213.87675,-0.007693425,0.010321721,0.023991585,0.0,0.0,0.0
994.74316,136.30408,14856276,0.9375,0.10638297,-217.80772,253.60596,-0.007693425,0.010321721,0.023991585,0.0,0.0,0.0
990.3988,140.93213,14856293,0.925,0.10638297,-231.56517,300.74265,-0.007693425,0.010321721,0.023991585,0.0,0.0,0.0
986.83545,145.79688,14856310,0.925,0.11702127,-237.00487,314.92023,-0.007693425,0.010321721,0.023991585,0.0,0.0,0.0
982.4313,152.21326,14856326,0.925,0.11702127,-262.87878,346.15573,-0.007693425,0.010321721,0.023991585,0.0,0.0,0.0
978.0493,158.1278,14856343,0.9125,0.11702127,-287.10803,427.2999,-0.007693425,0.010321721,0.023991585,0.0,0.0,0.0
973.8695,162.7312,14856360,0.9125,0.11702127,-273.4262,378.29626,-0.007693425,0.010321721,0.023991585,0.0,0.0,0.0
969.5813,167.307,14856377,0.9125,0.10638297,-268.31308,296.40173,-0.007693425,0.010321721,0.023991585,0.0,0.0,0.0
965.15063,171.81323,14856393,0.9125,0.12765957,-248.33635,216.97792,-0.007693425,0.010321721,0.023991585,0.0,0.0,0.0
960.4358,176.448,14856410,0.925,0.10638297,-266.43292,225.31065,-0.007693425,0.010321721,0.023991585,0.0,0.0,0.0
955.7574,181.89868,14856427,0.925,0.10638297,-296.14496,301.37793,-0.007693425,0.010321721,0.023991585,0.0,0.0,0.0
950.0463,190.20215,14856443,0.90000004,0.09574468,-314.3352,399.67596,-0.007693425,0.010321721,0.023991585,0.0,0.0,0.0
946.4336,194.77344,14856460,0.9125,0.09574468,-292.61237,420.81915,-0.007693425,0.010321721,0.023991585,0.0,0.0,0.0
939.4087,204.53064,14856477,0.9125,0.08510638,-326.08392,489.93048,-0.007693425,0.010321721,0.023991585,0.0,0.0,0.0
934.67346,212.22876,14856493,0.9125,0.10638297,-354.4079,551.75885,-0.007693425,0.010321721,0.023991585,0.0,0.0,0.0
930.50446,218.75122,14856510,0.90000004,0.10638297,-316.93823,510.87064,-0.007693425,0.010321721,0.023991585,0.0,0.0,0.0
926.3454,224.8866,14856527,0.8625,0.12765957,-258.25537,431.30222,-0.007693425,0.010321721,0.023991585,0.0,0.0,0.0
922.19336,230.85938,14856544,0.90000004,0.12765957,-186.57576,284.9192,-0.007693425,0.010321721,0.023991585,0.0,0.0,0.0
916.45386,241.06177,14856560,0.9125,0.12765957,-252.13129,391.31747,-0.007693425,0.010321721,0.023991585,0.0,0.0,0.0
911.3736,250.09229,14856577,0.8875,0.10638297,-340.44485,591.75323,-0.007693425,0.010321721,0.023991585,0.0,0.0,0.0
905.85175,260.55872,14856594,0.8875,0.08510638,-357.92587,683.99286,-0.007693425,0.010321721,0.023991585,0.0,0.0,0.0
900.6533,270.92554,14856610,0.875,0.08510638,-345.7988,715.36523,-0.007693425,0.010321721,0.023991585,0.0,0.0,0.0
896.35986,279.34302,14856627,0.8875,0.09574468,-298.03152,614.872,-0.007693425,0.010321721,0.023991585,0.0,0.0,0.0
891.7683,289.3275,14856644,0.8875,0.11702127,-254.74008,545.3268,-0.007693425,0.010321721,0.023991585,0.0,0.0,0.0
887.5908,300.4519,14856661,0.875,0.09574468,-238.89026,602.42944,-0.007693425,0.010321721,0.023991585,0.0,0.0,0.0
883.95905,311.46838,14856677,0.8875,0.08510638,-210.26427,655.0469,-0.007693425,0.010321721,0.023991585,0.0,0.0,0.0
881.5054,323.3922,14856694,0.90000004,0.08510638,-175.24394,747.6712,-0.007693425,0.010321721,0.023991585,0.0,0.0,0.0
879.92993,332.44983,14856711,0.8875,0.12765957,-106.63445,689.07434,-0.007693425,0.010321721,0.023991585,0.0,0.0,0.0
878.53296,341.8673,14856727,0.8875,0.12765957,-40.58296,563.68713,-0.007693425,0.010321721,0.023991585,0.0,0.0,0.0
878.19196,352.7395,14856744,0.8875,0.10638297,3.0276074,551.16254,0.009845257,0.016257375,0.0031929016,0.0,0.0,0.0
878.43933,363.6864,14856761,0.8875,0.08510638,38.91638,599.1684,0.009845257,0.016257375,0.0031929016,0.0,0.0,0.0
879.19165,374.95935,14856778,0.875,0.08510638,73.8433,698.14984,0.009845257,0.016257375,0.0031929016,0.0,0.0,0.0
880.80176,384.10303,14856794,0.8625,0.09574468,110.92678,665.695,0.009845257,0.016257375,0.0031929016,0.0,0.0,0.0
883.0328,392.9231,14856811,0.8875,0.10638297,146.5369,533.12366,0.009845257,0.016257375,0.0031929016,0.0,0.0,0.0
885.61786,401.01367,14856828,0.875,0.10638297,177.60918,449.38632,0.009845257,0.016257375,0.0031929016,0.0,0.0,0.0
888.84515,407.0891,14856844,0.90000004,0.09574468,206.03328,342.63885,0.009845257,0.016257375,0.0031929016,0.0,0.0,0.0
892.61774,412.0492,14856861,0.925,0.09574468,234.92784,270.78488,0.009845257,0.016257375,0.0031929016,0.0,0.0,0.0
897.82306,417.6195,14856878,0.9375,0.08510638,301.4407,255.72333,0.009845257,0.016257375,0.0031929016,0.0,0.0,0.0
904.082,422.15137,14856894,0.90000004,0.09574468,389.11823,238.1219,0.009845257,0.016257375,0.0031929016,0.0,0.0,0.0
911.49084,425.8291,14856911,0.9125,0.09574468,471.32056,234.5524,0.009845257,0.016257375,0.0031929016,0.0,0.0,0.0
922.17114,429.50598,14856928,0.9375,0.08510638,602.93353,203.06105,0.009845257,0.016257375,0.0031929016,0.0,0.0,0.0
933.01776,430.8004,14856945,0.925,0.08510638,723.1021,115.550224,0.009845257,0.016257375,0.0031929016,0.0,0.0,0.0
945.56335,430.41382,14856961,0.925,0.09574468,826.05334,-5.484989,0.009845257,0.016257375,0.0031929016,0.0,0.0,0.0
956.8307,427.27405,14856978,0.9375,0.10638297,814.9506,-169.81252,0.009845257,0.016257375,0.0031929016,0.0,0.0,0.0
969.1913,423.6162,14856995,0.9125,0.11702127,754.13025,-321.2278,0.009845257,0.016257375,0.0031929016,0.0,0.0,0.0
980.9568,419.42834,14857011,0.925,0.09574468,730.4175,-365.27386,0.009845257,0.016257375,0.0031929016,0.0,0.0,0.0
991.96594,413.9309,14857028,0.9375,0.10638297,686.15295,-380.84787,0.009845257,0.016257375,0.0031929016,0.0,0.0,0.0
1001.99524,407.72412,14857045,0.9125,0.10638297,618.5753,-388.27213,0.009845257,0.016257375,0.0031929016,0.0,0.0,0.0
1012.38184,400.99988,14857062,0.925,0.12765957,560.9949,-432.40518,0.009845257,0.016257375,0.0031929016,0.0,0.0,0.0
1025.4556,392.71448,14857078,0.925,0.11702127,602.9139,-484.16565,0.009845257,0.016257375,0.0031929016,0.0,0.0,0.0
1038.0173,383.4048,14857095,0.90000004,0.08510638,782.22864,-581.87213,0.009845257,0.016257375,0.0031929016,0.0,0.0,0.0
1050.8951,373.26147,14857112,0.9125,0.09574468,860.0681,-657.89465,0.009845257,0.016257375,0.0031929016,0.0,0.0,0.0
1062.9661,363.06836,14857128,0.8875,0.12765957,830.2441,-691.69586,0.009845257,0.016257375,0.0031929016,0.0,0.0,0.0
1075.1324,353.17383,14857145,0.8625,0.12765957,756.0633,-683.3724,0.009845257,0.016257375,0.0031929016,0.0,0.0,0.0
1089.3282,343.30945,14857162,0.8875,0.10638297,759.45575,-631.115,0.009845257,0.016257375,0.0031929016,0.0,0.0,0.0
1102.3225,334.6173,14857179,0.90000004,0.08510638,815.6098,-550.75354,0.009845257,0.016257375,0.0031929016,0.0,0.0,0.0
1114.4897,325.85852,14857195,0.8875,0.08510638,805.14856,-502.585,0.009845257,0.016257375,0.0031929016,0.0,0.0,0.0
1125.7838,317.0183,14857212,0.8875,0.11702127,702.09143,-481.32062,0.009845257,0.016257375,0.0031929016,0.0,0.0,0.0
1139.2866,308.3767,14857229,0.85,0.12765957,696.9209,-506.23132,0.009845257,0.016257375,0.0031929016,0.0,0.0,0.0
1151.7026,300.13147,14857245,0.8625,0.10638297,740.3913,-508.13983,0.009845257,0.016257375,0.0031929016,0.0,0.0,0.0
1163.736,292.7516,14857262,0.8625,0.10638297,760.9316,-460.3819,0.009845257,0.016257375,0.0031929016,0.0,0.0,0.0
1173.213,286.20117,14857279,0.85,0.10638297,682.989,-408.2254,-0.024123795,0.005005896,-0.0134449005,0.0,0.0,0.0
1182.5741,280.65454,14857296,0.8625,0.11702127,533.0012,-323.23877,-0.024123795,0.005005896,-0.0134449005,0.0,0.0,0.0
1190.8956,275.10876,14857312,0.8875,0.09574468,445.67972,-282.70407,-0.024123795,0.005005896,-0.0134449005,0.0,0.0,0.0
1198.039,269.58057,14857329,0.875,0.08510638,395.2298,-274.75824,-0.024123795,0.005005896,-0.0134449005,0.0,0.0,0.0
1203.1503,266.02637,14857346,0.8625,0.09574468,313.966,-241.03482,-0.024123795,0.005005896,-0.0134449005,0.0,0.0,0.0
1207.0156,262.36304,14857362,0.8625,0.09574468,216.1484,-203.61559,-0.024123795,0.005005896,-0.0134449005,0.0,0.0,0.0
1209.9698,258.97656,14857379,0.875,0.09574468,111.91967,-168.5215,-0.024123795,0.005005896,-0.0134449005,0.0,0.0,0.0
1212.0472,257.13013,14857396,0.875,0.09574468,54.128963,-114.654976,-0.024123795,0.005005896,-0.0134449005,0.0,0.0,0.0
1213.3566,255.27905,14857412,0.90000004,0.09574468,34.90749,-83.964554,-0.024123795,0.005005896,-0.0134449005,0.0,0.0,0.0
1214.0826,253.45007,14857429,0.925,0.09574468,4.6097918,-59.975815,-0.024123795,0.005005896,-0.0134449005,0.0,0.0,0.0
1214.0826,251.59363,14857446,0.9375,0.10638297,-24.491621,-68.34148,-0.024123795,0.005005896,-0.0134449005,0.0,0.0,0.0
1214.0826,249.73645,14857463,0.96250004,0.10638297,-48.23803,-100.02232,-0.024123795,0.005005896,-0.0134449005,0.0,0.0,0.0
1214.0826,248.78918,14857479,0.975,0.10638297,-43.66318,-84.50069,-0.024123795,0.005005896,-0.0134449005,0.0,0.0,0.0
1214.0826,248.65723,14857496,1.0,0.12765957,-22.33064,-34.26633,-0.024123795,0.005005896,-0.0134449005,0.0,0.0,0.0
1214.0826,248.65723,14857513,0.9875,0.12765957,-5.557172,19.086134,-0.024123795,0.005005896,-0.0134449005,0.0,0.0,0.0
1214.0826,248.65723,14857528,1.0,0.12765957,0.040006284,43.100452,-0.024123795,0.005005896,-0.0134449005,0.0,0.0,0.0
1213.5828,248.65723,14857546,1.0,0.12765957,-16.485823,32.794834,-0.024123795,0.005005896,-0.0134449005,0.0,0.0,0.0
1212.4751,248.65723,14857563,1.0,0.12765957,-46.31862,14.002583,-0.024123795,0.005005896,-0.0134449005,0.0,0.0,0.0
1211.4292,248.65723,14857580,1.0375,0.12765957,-75.04093,0.009817506,-0.024123795,0.005005896,-0.0134449005,0.0,0.0,0.0
1210.3977,248.65723,14857596,1.025,0.12765957,-86.11018,0.005933764,-0.024123795,0.005005896,-0.0134449005,0.0,0.0,0.0
1209.7195,248.65723,14857613,1.0500001,0.12765957,-70.356415,0.0013669765,-0.024123795,0.005005896,-0.0134449005,0.0,0.0,0.0
1208.8292,248.65723,14857630,1.0625,0.12765957,-48.11778,0.018395448,-0.024123795,0.005005896,-0.0134449005,0.0,0.0,0.0
1207.8347,248.65723,14857646,1.0875,0.12765957,-46.698166,0.023444269,-0.024123795,0.005005896,-0.0134449005,0.0,0.0,0.0
1208.0846,248.65723,14857663,1.075,0.12765957,-19.334305,0.016903203,-0.024123795,0.005005896,-0.0134449005,0.0,0.0,0.0
1207.5847,248.65723,14857680,1.0625,0.12765957,-7.2757745,-0.0040969765,-0.024123795,0.005005896,-0.0134449005,0.0,0.0,0.0
1207.5847,249.64087,14857696,1.075,0.12765957,4.1150274,27.85621,-0.024123795,0.005005896,-0.0134449005,0.0,0.0,0.0
1207.5847,251.35547,14857730,1.1,0.12765957,4.8047256,69.72527,-0.024123795,0.005005896,-0.0134449005,0.0,0.0,0.0
1207.5847,253.24109,14857747,1.1,0.12765957,10.476461,115.01206,-0.024123795,0.005005896,-0.0134449005,0.0,0.0,0.0
1207.5847,254.18762,14857763,1.1375,0.12765957,5.7434015,107.558334,-0.024123795,0.005005896,-0.0134449005,0.0,0.0,0.0
1207.5847,253.98828,14857780,1.125,0.12765957,-0.011459703,56.24736,-0.024123795,0.005005896,-0.0134449005,0.0,0.0,0.0
1207.7175,253.98828,14857797,1.1125001,0.12765957,2.647709,-33.98326,-0.024123795,0.005005896,-0.0134449005,0.0,0.0,0.0
1208.4354,253.98828,14857814,1.1125001,0.12765957,21.725231,-48.53931,-0.019299038,-0.027995288,-0.026756287,0.0,0.0,0.0
1209.3118,253.98828,14857830,1.075,0.12765957,54.137455,-26.40856,-0.019299038,-0.027995288,-0.026756287,0.0,0.0,0.0
1210.0839,253.98828,14857847,1.075,0.10638297,68.6358,-8.187858,-0.019299038,-0.027995288,-0.026756287,0.0,0.0,0.0
1210.0839,253.98828,14857864,1.0875,0.12765957,43.875107,-0.0068758805,-0.019299038,-0.027995288,-0.026756287,0.0,0.0,0.0
1210.0839,253.98828,14857880,1.075,0.10638297,-6.0678887,-0.01275597,-0.019299038,-0.027995288,-0.026756287,0.0,0.0,0.0
1210.9805,255.58203,14857897,1.075,0.10638297,1.125841,39.283707,-0.019299038,-0.027995288,-0.026756287,0.0,0.0,0.0
1211.8335,255.76526,14857911,1.0875,0.10638297,26.879717,62.914818,-0.019299038,-0.027995288,-0.026756287,0.0,0.0,0.0
1212.5625,256.6538,14857931,1.075,0.10638297,62.774807,71.73818,-0.019299038,-0.027995288,-0.026756287,0.0,0.0,0.0
1213.5977,256.6538,14857947,1.0625,0.10638297,72.053444,31.286633,-0.019299038,-0.027995288,-0.026756287,0.0,0.0,0.0
1214.141,257.64612,14857964,1.0625,0.10638297,51.255272,14.239466,-0.019299038,-0.027995288,-0.026756287,0.0,0.0,0.0
1214.5825,258.4308,14857981,1.0375,0.09574468,33.4457,35.84477,-0.019299038,-0.027995288,-0.026756287,0.0,0.0,0.0
1215.0823,260.20776,14857997,1.025,0.09574468,27.858599,94.950294,-0.019299038,-0.027995288,-0.026756287,0.0,0.0,0.0
1216.281,261.44995,14858014,1.025,0.10638297,36.01075,105.32319,-0.019299038,-0.027995288,-0.026756287,0.0,0.0,0.0
1216.7953,261.47583,14858031,1.0375,0.09574468,43.828873,58.00461,-0.019299038,-0.027995288,-0.026756287,0.0,0.0,0.0
1217.5815,262.8733,14858048,1.0375,0.09574468,50.25547,37.279957,-0.019299038,-0.027995288,-0.026756287,0.0,0.0,0.0
1218.3741,263.76184,14858064,1.0,0.09574468,47.62394,52.71277,-0.019299038,-0.027995288,-0.026756287,0.0,0.0,0.0
1219.4109,264.65027,14858081,0.975,0.09574468,51.88455,73.23562,-0.019299038,-0.027995288,-0.026756287,0.0,0.0,0.0
1220.451,266.19727,14858098,0.975,0.09574468,65.81504,72.661674,-0.019299038,-0.027995288,-0.026756287,0.0,0.0,0.0
1221.4877,268.03992,14858114,0.95,0.09574468,72.72439,93.265945,-0.019299038,-0.027995288,-0.026756287,0.0,0.0,0.0
1223.4719,269.88574,14858131,0.96250004,0.09574468,93.32927,127.31367,-0.019299038,-0.027995288,-0.026756287,0.0,0.0,0.0
1225.0599,271.72437,14858148,0.95,0.09574468,114.5823,135.89677,-0.019299038,-0.027995288,-0.026756287,0.0,0.0,0.0
1226.6011,273.57544,14858164,0.975,0.12765957,117.32163,123.432785,-0.019299038,-0.027995288,-0.026756287,0.0,0.0,0.0
1228.146,275.43298,14858181,0.95,0.10638297,106.52136,110.86559,-0.019299038,-0.027995288,-0.026756287,0.0,0.0,0.0
1230.2892,277.2776,14858198,0.925,0.10638297,103.961334,110.76307,-0.019299038,-0.027995288,-0.026756287,0.0,0.0,0.0
1231.7344,279.14636,14858215,0.925,0.12765957,101.550995,110.52167,-0.019299038,-0.027995288,-0.026756287,0.0,0.0,0.0
1233.934,280.9613,14858231,0.9375,0.12765957,117.5068,109.959404,-0.019299038,-0.027995288,-0.026756287,0.0,0.0,0.0
1236.022,282.81702,14858248,0.9125,0.12765957,127.54954,111.149445,-0.019299038,-0.027995288,-0.026756287,0.0,0.0,0.0
1238.3549,283.771,14858265,0.90000004,0.12765957,137.12712,85.71192,-0.019299038,-0.027995288,-0.026756287,0.0,0.0,0.0
1240.9788,285.62195,14858281,0.9125,0.12765957,158.42397,76.99118,-0.019299038,-0.027995288,-0.026756287,0.0,0.0,0.0
1243.2529,287.46692,14858298,0.8875,0.12765957,163.01775,89.72971,-0.019299038,-0.027995288,-0.026756287,0.0,0.0,0.0
1246.1736,289.29236,14858315,0.90000004,0.14893617,163.46603,109.84667,-0.019299038,-0.027995288,-0.026756287,0.0,0.0,0.0
1248.811,291.8855,14858332,0.8875,0.12765957,167.89265,138.81108,-0.019299038,-0.027995288,-0.026756287,0.0,0.0,0.0
1250.9796,294.69775,14858348,0.8875,0.12765957,155.76411,168.86125,5.607754E-4,0.017603785,-0.0054044724,0.0,0.0,0.0
1253.5431,298.36597,14858365,0.9125,0.12765957,144.42593,203.51154,5.607754E-4,0.017603785,-0.0054044724,0.0,0.0,0.0
1255.1035,300.25122,14858382,0.8875,0.10638297,119.41916,202.96815,5.607754E-4,0.017603785,-0.0054044724,0.0,0.0,0.0
1257.1858,304.8413,14858398,0.90000004,0.10638297,99.77054,229.3735,5.607754E-4,0.017603785,-0.0054044724,0.0,0.0,0.0
1258.1692,306.58936,14858415,0.8875,0.09574468,75.70801,186.48,5.607754E-4,0.017603785,-0.0054044724,0.0,0.0,0.0
1259.2369,308.48743,14858432,0.875,0.08510638,49.559853,129.65079,5.607754E-4,0.017603785,-0.0054044724,0.0,0.0,0.0
1263.1078,314.4795,14858449,0.8875,0.08510638,108.93951,185.95888,5.607754E-4,0.017603785,-0.0054044724,0.0,0.0,0.0
1265.0189,319.6538,14858465,0.8875,0.08510638,172.8506,315.4846,5.607754E-4,0.017603785,-0.0054044724,0.0,0.0,0.0
1266.7557,323.96777,14858482,0.90000004,0.08510638,172.95183,389.5362,5.607754E-4,0.017603785,-0.0054044724,0.0,0.0,0.0
1267.8726,327.93835,14858499,0.875,0.09574468,108.1429,336.84488,5.607754E-4,0.017603785,-0.0054044724,0.0,0.0,0.0
1268.0651,331.63184,14858515,0.9125,0.09574468,9.549396,218.1477,5.607754E-4,0.017603785,-0.0054044724,0.0,0.0,0.0
1268.0651,335.31873,14858532,0.90000004,0.10638297,-38.804325,167.50592,5.607754E-4,0.017603785,-0.0054044724,0.0,0.0,0.0
1268.0651,339.01,14858549,0.9125,0.10638297,-49.820686,191.44107,5.607754E-4,0.017603785,-0.0054044724,0.0,0.0,0.0
1267.6044,342.69934,14858566,0.8875,0.10638297,-43.39632,207.61713,5.607754E-4,0.017603785,-0.0054044724,0.0,0.0,0.0
1267.5652,347.25928,14858582,0.90000004,0.12765957,-32.92109,236.54808,5.607754E-4,0.017603785,-0.0054044724,0.0,0.0,0.0
1266.528,352.81274,14858599,0.8875,0.10638297,-41.89591,305.34494,5.607754E-4,0.017603785,-0.0054044724,0.0,0.0,0.0
1265.4865,358.3672,14858616,0.9125,0.10638297,-67.69377,359.88336,5.607754E-4,0.017603785,-0.0054044724,0.0,0.0,0.0
1263.936,361.96082,14858632,0.925,0.08510638,-97.3946,326.52536,5.607754E-4,0.017603785,-0.0054044724,0.0,0.0,0.0
1262.8267,365.90417,14858649,0.9375,0.08510638,-98.357895,249.1642,5.607754E-4,0.017603785,-0.0054044724,0.0,0.0,0.0
1261.3746,369.28992,14858666,0.9125,0.08510638,-97.20363,183.78935,5.607754E-4,0.017603785,-0.0054044724,0.0,0.0,0.0
1259.8358,372.9834,14858683,0.9125,0.08510638,-93.37751,182.94933,5.607754E-4,0.017603785,-0.0054044724,0.0,0.0,0.0
1258.028,376.67346,14858699,0.925,0.09574468,-103.930046,215.24626,5.607754E-4,0.017603785,-0.0054044724,0.0,0.0,0.0
1256.4498,380.3673,14858716,0.925,0.09574468,-115.71295,220.341,5.607754E-4,0.017603785,-0.0054044724,0.0,0.0,0.0
1254.8691,384.06555,14858733,0.90000004,0.11702127,-101.97866,216.4543,5.607754E-4,0.017603785,-0.0054044724,0.0,0.0,0.0
1253.098,387.21387,14858749,0.9125,0.11702127,-95.519714,195.94281,5.607754E-4,0.017603785,-0.0054044724,0.0,0.0,0.0
1250.9812,390.97668,14858766,0.95,0.12765957,-108.11736,194.95009,5.607754E-4,0.017603785,-0.0054044724,0.0,0.0,0.0
1249.571,393.48328,14858782,0.90000004,0.12765957,-114.93501,190.48363,5.607754E-4,0.017603785,-0.0054044724,0.0,0.0,0.0
1245.5724,399.70276,14858799,0.90000004,0.12765957,-156.84955,229.50584,5.607754E-4,0.017603785,-0.0054044724,0.0,0.0,0.0
1241.5732,404.81226,14858816,0.8875,0.12765957,-212.91501,290.11246,5.607754E-4,0.017603785,-0.0054044724,0.0,0.0,0.0
1239.4048,406.96143,14858833,0.90000004,0.10638297,-232.63002,280.03952,5.607754E-4,0.017603785,-0.0054044724,0.0,0.0,0.0
1236.4253,410.5426,14858850,0.90000004,0.10638297,-216.19281,232.45946,5.607754E-4,0.017603785,-0.0054044724,0.0,0.0,0.0
1231.9698,414.0138,14858866,0.925,0.09574468,-230.44305,192.13708,5.607754E-4,0.017603785,-0.0054044724,0.0,0.0,0.0
1225.6871,419.42126,14858883,0.95,0.08510638,-297.64114,223.33508,4.4861436E-4,0.0060830265,0.027676582,0.0,0.0,0.0
1219.8728,423.66248,14858900,0.9125,0.08510638,-420.43436,310.68842,4.4861436E-4,0.0060830265,0.027676582,0.0,0.0,0.0
1214.683,427.35266,14858916,0.90000004,0.08510638,-419.01416,293.8438,4.4861436E-4,0.0060830265,0.027676582,0.0,0.0,0.0
1209.4927,431.0431,14858933,0.8875,0.08510638,-350.8154,234.27368,4.4861436E-4,0.0060830265,0.027676582,0.0,0.0,0.0
1203.9323,435.3794,14858950,0.9125,0.11702127,-298.90146,196.49213,4.4861436E-4,0.0060830265,0.027676582,0.0,0.0,0.0
1197.7294,439.30542,14858967,0.90000004,0.11702127,-324.10776,226.05421,4.4861436E-4,0.0060830265,0.027676582,0.0,0.0,0.0
1191.4946,442.99988,14858983,0.9125,0.11702127,-384.97137,247.31508,4.4861436E-4,0.0060830265,0.027676582,0.0,0.0,0.0
1184.2856,446.6953,14859000,0.9125,0.12765957,-425.15482,228.41443,4.4861436E-4,0.0060830265,0.027676582,0.0,0.0,0.0
1176.9972,450.39697,14859017,0.925,0.10638297,-457.26788,211.32622,4.4861436E-4,0.0060830265,0.027676582,0.0,0.0,0.0
1169.2368,454.08447,14859033,0.9125,0.10638297,-481.85693,208.68137,4.4861436E-4,0.0060830265,0.027676582,0.0,0.0,0.0
1160.8868,457.77246,14859050,0.925,0.12765957,-509.3328,221.37112,4.4861436E-4,0.0060830265,0.027676582,0.0,0.0,0.0
1152.7195,461.40186,14859067,0.875,0.12765957,-517.07367,218.46124,4.4861436E-4,0.0060830265,0.027676582,0.0,0.0,0.0
1142.0604,465.29065,14859084,0.8875,0.12765957,-569.8392,221.30383,4.4861436E-4,0.0060830265,0.027676582,0.0,0.0,0.0
1132.7449,468.85376,14859100,0.8875,0.10638297,-618.49066,222.32713,4.4861436E-4,0.0060830265,0.027676582,0.0,0.0,0.0
1122.6428,472.55115,14859117,0.925,0.09574468,-647.44183,225.6067,4.4861436E-4,0.0060830265,0.027676582,0.0,0.0,0.0
1111.5623,476.234,14859134,0.9125,0.09574468,-684.8433,224.01564,4.4861436E-4,0.0060830265,0.027676582,0.0,0.0,0.0
1102.1962,479.93384,14859150,0.925,0.10638297,-636.7836,219.61703,4.4861436E-4,0.0060830265,0.027676582,0.0,0.0,0.0
1092.486,483.62598,14859167,0.925,0.11702127,-583.952,218.64822,4.4861436E-4,0.0060830265,0.027676582,0.0,0.0,0.0
1083.049,486.41138,14859184,0.925,0.11702127,-545.1576,191.16869,4.4861436E-4,0.0060830265,0.027676582,0.0,0.0,0.0
1074.6865,489.22107,14859201,0.9125,0.09574468,-499.27008,160.15796,4.4861436E-4,0.0060830265,0.027676582,0.0,0.0,0.0
1066.8027,492.06348,14859217,0.925,0.09574468,-481.88242,151.74326,4.4861436E-4,0.0060830265,0.027676582,0.0,0.0,0.0
1058.983,494.83936,14859234,0.9125,0.09574468,-438.46,146.46301,4.4861436E-4,0.0060830265,0.027676582,0.0,0.0,0.0
1052.2858,496.6532,14859251,0.925,0.10638297,-396.88058,132.42397,4.4861436E-4,0.0060830265,0.027676582,0.0,0.0,0.0
1044.8317,499.57324,14859267,0.90000004,0.12765957,-391.04358,132.43329,4.4861436E-4,0.0060830265,0.027676582,0.0,0.0,0.0
1037.5676,501.26453,14859284,0.9125,0.12765957,-403.52625,119.62422,4.4861436E-4,0.0060830265,0.027676582,0.0,0.0,0.0
1030.7367,503.12598,14859301,0.925,0.12765957,-409.24808,111.54153,4.4861436E-4,0.0060830265,0.027676582,0.0,0.0,0.0
1024.8687,504.92395,14859317,0.9125,0.12765957,-390.92816,99.8824,4.4861436E-4,0.0060830265,0.027676582,0.0,0.0,0.0
1019.38696,506.77063,14859334,0.95,0.11702127,-341.94916,94.80834,4.4861436E-4,0.0060830265,0.027676582,0.0,0.0,0.0
1014.69995,509.12915,14859351,0.9375,0.10638297,-269.61765,111.34374,4.4861436E-4,0.0060830265,0.027676582,0.0,0.0,0.0
1009.834,511.9342,14859368,0.95,0.10638297,-242.43149,153.29195,4.4861436E-4,0.0060830265,0.027676582,0.0,0.0,0.0
1006.54175,514.74426,14859384,0.95,0.10638297,-201.21242,182.44586,4.4861436E-4,0.0060830265,0.027676582,0.0,0.0,0.0
1003.0222,517.5442,14859401,0.95,0.09574468,-170.872,191.54381,4.4861436E-4,0.0060830265,0.027676582,0.0,0.0,0.0
999.8213,520.33923,14859418,0.95,0.09574468,-159.51102,182.96217,3.5889447E-4,0.004866421,-0.009858131,0.0,0.0,0.0
996.22095,523.1449,14859434,0.96250004,0.09574468,-163.58116,168.22472,3.5889447E-4,0.004866421,-0.009858131,0.0,0.0,0.0
993.0814,525.02515,14859451,0.96250004,0.10638297,-190.45631,147.27623,3.5889447E-4,0.004866421,-0.009858131,0.0,0.0,0.0
991.0498,526.8524,14859468,0.96250004,0.10638297,-163.06017,113.71833,3.5889447E-4,0.004866421,-0.009858131,0.0,0.0,0.0
988.93494,528.7322,14859485,0.975,0.10638297,-115.91611,90.86358,3.5889447E-4,0.004866421,-0.009858131,0.0,0.0,0.0
986.84546,530.5891,14859501,0.96250004,0.10638297,-92.555885,86.19143,3.5889447E-4,0.004866421,-0.009858131,0.0,0.0,0.0
984.7378,532.4625,14859518,0.975,0.11702127,-89.95697,97.21683,3.5889447E-4,0.004866421,-0.009858131,0.0,0.0,0.0
983.44275,532.9783,14859535,0.975,0.11702127,-97.054665,83.22434,3.5889447E-4,0.004866421,-0.009858131,0.0,0.0,0.0
982.4055,532.9783,14859551,0.9875,0.11702127,-68.91741,10.980316,3.5889447E-4,0.004866421,-0.009858131,0.0,0.0,0.0
980.8628,534.39233,14859568,1.0125,0.11702127,-54.50714,-5.2025604,3.5889447E-4,0.004866421,-0.009858131,0.0,0.0,0.0
979.8231,534.7554,14859585,1.0,0.11702127,-52.26345,16.059958,3.5889447E-4,0.004866421,-0.009858131,0.0,0.0,0.0
978.78687,534.7554,14859602,1.025,0.11702127,-58.150204,22.724049,3.5889447E-4,0.004866421,-0.009858131,0.0,0.0,0.0
978.1594,535.4861,14859618,1.0500001,0.11702127,-53.965847,20.500593,3.5889447E-4,0.004866421,-0.009858131,0.0,0.0,0.0
978.1594,535.6438,14859635,1.0500001,0.11702127,-11.219376,7.1275144,3.5889447E-4,0.004866421,-0.009858131,0.0,0.0,0.0
978.1594,535.6438,14859640,1.075,0.11702127,3.8457074,2.413891,3.5889447E-4,0.004866421,-0.009858131,0.0,0.0,0.0
978.1594,535.6438,14859668,1.1,0.11702127,27.020777,8.61848,3.5889447E-4,0.004866421,-0.009858131,0.0,0.0,0.0
978.1594,535.6438,14859685,1.125,0.11702127,22.356346,-11.440924,3.5889447E-4,0.004866421,-0.009858131,0.0,0.0,0.0
978.1594,535.6438,14859702,1.125,0.11702127,6.8894706,-16.980175,3.5889447E-4,0.004866421,-0.009858131,0.0,0.0,0.0
978.1594,535.6438,14859719,1.1375,0.11702127,0.035345647,0.018901937,3.5889447E-4,0.004866421,-0.009858131,0.0,0.0,0.0
978.1594,535.6438,14859735,1.15,0.11702127,0.016759656,0.010537338,3.5889447E-4,0.004866421,-0.009858131,0.0,0.0,0.0
978.7717,535.6438,14859752,1.1750001,0.11702127,20.886425,-0.023789782,3.5889447E-4,0.004866421,-0.009858131,0.0,0.0,0.0
979.4247,535.6438,14859769,1.1625,0.11702127,39.87907,-0.04142245,3.5889447E-4,0.004866421,-0.009858131,0.0,0.0,0.0
980.1588,535.6438,14859785,1.1750001,0.11702127,60.577213,6.964717E-4,3.5889447E-4,0.004866421,-0.009858131,0.0,0.0,0.0
981.00146,535.6438,14859802,1.1625,0.12765957,59.46907,0.002108664,3.5889447E-4,0.004866421,-0.009858131,0.0,0.0,0.0
982.41614,535.6438,14859819,1.1875,0.10638297,68.45979,0.019772597,3.5889447E-4,0.004866421,-0.009858131,0.0,0.0,0.0
983.574,535.6438,14859836,1.1750001,0.12765957,88.60315,-0.010194979,3.5889447E-4,0.004866421,-0.009858131,0.0,0.0,0.0
984.61414,535.6438,14859852,1.1875,0.10638297,84.98563,0.04935992,3.5889447E-4,0.004866421,-0.009858131,0.0,0.0,0.0
985.65186,535.6438,14859869,1.1750001,0.10638297,74.916016,0.01718263,3.5889447E-4,0.004866421,-0.009858131,0.0,0.0,0.0
986.6793,535.6438,14859886,1.1750001,0.10638297,56.16903,0.014050158,3.5889447E-4,0.004866421,-0.009858131,0.0,0.0,0.0
987.7328,535.6438,14859902,1.1625,0.10638297,55.11968,0.0335042,3.5889447E-4,0.004866421,-0.009858131,0.0,0.0,0.0
988.76807,535.6438,14859919,1.1875,0.10638297,62.597202,-8.441365E-4,3.5889447E-4,0.004866421,-0.009858131,0.0,0.0,0.0
989.7993,535.6438,14859936,1.15,0.10638297,62.34149,0.03269781,3.5889447E-4,0.004866421,-0.009858131,0.0,0.0,0.0
990.3479,535.6438,14859952,1.1625,0.10638297,49.45043,0.017997278,2.8711557E-4,-0.012106866,-0.007885933,0.0,0.0,0.0
991.3844,535.6438,14859969,1.1750001,0.10638297,42.540455,0.02736407,2.8711557E-4,-0.012106866,-0.007885933,0.0,0.0,0.0
991.655,535.6438,14859986,1.1625,0.10638297,32.223095,0.023208678,2.8711557E-4,-0.012106866,-0.007885933,0.0,0.0,0.0
992.4048,535.6438,14860002,1.1625,0.10638297,24.990866,0.025703317,2.8711557E-4,-0.012106866,-0.007885933,0.0,0.0,0.0
992.99634,535.0366,14860019,1.1750001,0.10638297,27.64094,-11.518993,2.8711557E-4,-0.012106866,-0.007885933,0.0,0.0,0.0
993.5386,534.7554,14860036,1.1750001,0.10638297,29.941835,-32.607113,2.8711557E-4,-0.012106866,-0.007885933,0.0,0.0,0.0
994.07764,534.0029,14860053,1.15,0.10638297,33.329296,-39.270824,2.8711557E-4,-0.012106866,-0.007885933,0.0,0.0,0.0
994.90405,533.8668,14860066,1.15,0.10638297,46.65005,-42.396492,2.8711557E-4,-0.012106866,-0.007885933,0.0,0.0,0.0
995.15393,532.9783,14860086,1.1375,0.10638297,34.1398,-44.248108,2.8711557E-4,-0.012106866,-0.007885933,0.0,0.0,0.0
996.1824,532.9783,14860103,1.125,0.10638297,41.099564,-19.483055,2.8711557E-4,-0.012106866,-0.007885933,0.0,0.0,0.0
996.72876,532.9783,14860120,1.1625,0.10638297,40.606068,-3.0436862,2.8711557E-4,-0.012106866,-0.007885933,0.0,0.0,0.0
997.2739,532.9783,14860136,1.15,0.10638297,35.694695,17.83091,2.8711557E-4,-0.012106866,-0.007885933,0.0,0.0,0.0
997.6531,532.9783,14860153,1.1375,0.12765957,35.431004,14.426212,2.8711557E-4,-0.012106866,-0.007885933,0.0,0.0,0.0
998.15295,532.08984,14860170,1.125,0.10638297,23.089657,-25.493336,2.8711557E-4,-0.012106866,-0.007885933,0.0,0.0,0.0
998.8895,532.08984,14860186,1.125,0.10638297,29.42842,-34.13437,2.8711557E-4,-0.012106866,-0.007885933,0.0,0.0,0.0
999.5409,531.39966,14860203,1.125,0.10638297,39.136803,-38.5466,2.8711557E-4,-0.012106866,-0.007885933,0.0,0.0,0.0
1000.4629,531.2013,14860220,1.1125001,0.10638297,51.695667,-32.38416,2.8711557E-4,-0.012106866,-0.007885933,0.0,0.0,0.0
1001.005,531.2013,14860237,1.1125001,0.10638297,53.92785,-8.057692,2.8711557E-4,-0.012106866,-0.007885933,0.0,0.0,0.0
1001.5409,531.2013,14860253,1.1,0.09574468,33.669765,6.8813953,2.8711557E-4,-0.012106866,-0.007885933,0.0,0.0,0.0
1002.1516,531.2013,14860270,1.1125001,0.10638297,31.307907,13.081484,2.8711557E-4,-0.012106866,-0.007885933,0.0,0.0,0.0
1002.6515,531.2013,14860287,1.0875,0.09574468,31.46748,12.209277,2.8711557E-4,-0.012106866,-0.007885933,0.0,0.0,0.0
1003.6564,531.2013,14860303,1.1125001,0.09574468,40.42373,0.0019447464,2.8711557E-4,-0.012106866,-0.007885933,0.0,0.0,0.0
1004.70056,531.2013,14860320,1.1,0.10638297,59.775764,0.010172461,2.8711557E-4,-0.012106866,-0.007885933,0.0,0.0,0.0
1005.15063,531.2013,14860337,1.075,0.10638297,57.05876,0.007762062,2.8711557E-4,-0.012106866,-0.007885933,0.0,0.0,0.0
1006.2584,531.2013,14860354,1.075,0.10638297,57.195858,-0.010143969,2.8711557E-4,-0.012106866,-0.007885933,0.0,0.0,0.0
1006.65015,531.2013,14860370,1.0500001,0.09574468,42.249332,0.018531995,2.8711557E-4,-0.012106866,-0.007885933,0.0,0.0,0.0
1007.35266,531.2013,14860387,1.075,0.10638297,26.0324,0.025118008,2.8711557E-4,-0.012106866,-0.007885933,0.0,0.0,0.0
1007.8922,531.2013,14860404,1.075,0.10638297,29.362425,-0.016709862,2.8711557E-4,-0.012106866,-0.007885933,0.0,0.0,0.0
1008.9314,531.2013,14860420,1.0625,0.10638297,43.149258,0.011225258,2.8711557E-4,-0.012106866,-0.007885933,0.0,0.0,0.0
1009.4691,531.2013,14860437,1.0875,0.10638297,50.10782,0.04390747,2.8711557E-4,-0.012106866,-0.007885933,0.0,0.0,0.0
1010.5082,531.2013,14860454,1.0625,0.10638297,57.645924,0.02522929,2.8711557E-4,-0.012106866,-0.007885933,0.0,0.0,0.0
1011.1487,531.2013,14860470,1.075,0.10638297,52.259445,0.058960687,2.8711557E-4,-0.012106866,-0.007885933,0.0,0.0,0.0
1011.64856,531.2013,14860487,1.0375,0.10638297,41.571087,0.018395,-0.015770309,-0.009685501,0.025691032,0.0,0.0,0.0
1012.3982,531.2013,14860501,1.0625,0.10638297,34.926266,-0.011733045,-0.015770309,-0.009685501,0.025691032,0.0,0.0,0.0
1012.6482,531.2013,14860521,1.0500001,0.10638297,21.352903,0.008355427,-0.015770309,-0.009685501,0.025691032,0.0,0.0,0.0
1013.39795,531.2013,14860535,1.0500001,0.10638297,22.444698,0.03301946,-0.015770309,-0.009685501,0.025691032,0.0,0.0,0.0
1013.6478,531.2013,14860553,1.0500001,0.10638297,25.310131,-0.03992767,-0.015770309,-0.009685501,0.025691032,0.0,0.0,0.0
1014.1477,531.2013,14860571,1.0375,0.10638297,24.06454,-0.031089472,-0.015770309,-0.009685501,0.025691032,0.0,0.0,0.0
1015.3141,531.2013,14860587,1.0500001,0.10638297,41.776585,-0.023079788,-0.015770309,-0.009685501,0.025691032,0.0,0.0,0.0
1016.1471,531.2013,14860604,1.025,0.10638297,64.223625,0.01861308,-0.015770309,-0.009685501,0.025691032,0.0,0.0,0.0
1016.895,531.2013,14860621,1.025,0.11702127,61.814922,-0.009898991,-0.015770309,-0.009685501,0.025691032,0.0,0.0,0.0
1017.5408,531.2013,14860638,1.025,0.11702127,44.712364,-0.006205291,-0.015770309,-0.009685501,0.025691032,0.0,0.0,0.0
1018.4728,530.31274,14860654,1.0125,0.11702127,41.30289,-26.74811,-0.015770309,-0.009685501,0.025691032,0.0,0.0,0.0
1019.396,530.31274,14860669,1.0125,0.11702127,48.527775,-31.799257,-0.015770309,-0.009685501,0.025691032,0.0,0.0,0.0
1020.57263,530.31274,14860704,1.025,0.11702127,33.439453,2.3764734,-0.015770309,-0.009685501,0.025691032,0.0,0.0,0.0
1021.1355,530.31274,14860721,1.0,0.11702127,32.66934,17.451048,-0.015770309,-0.009685501,0.025691032,0.0,0.0,0.0
1022.16724,530.31274,14860738,1.0,0.11702127,44.603413,9.519225,-0.015770309,-0.009685501,0.025691032,0.0,0.0,0.0
1023.20715,530.31274,14860755,1.0125,0.11702127,65.18717,0.016374402,-0.015770309,-0.009685501,0.025691032,0.0,0.0,0.0
1024.244,530.31274,14860771,1.0,0.11702127,68.65986,0.0330669,-0.015770309,-0.009685501,0.025691032,0.0,0.0,0.0
1025.276,530.31274,14860788,1.0,0.11702127,69.3162,0.03853899,-0.015770309,-0.009685501,0.025691032,0.0,0.0,0.0
1026.3171,530.31274,14860805,1.0,0.11702127,67.875244,0.028691094,-0.015770309,-0.009685501,0.025691032,0.0,0.0,0.0
1027.3586,530.31274,14860821,1.0125,0.11702127,62.185257,0.012923151,-0.015770309,-0.009685501,0.025691032,0.0,0.0,0.0
1028.3956,530.31274,14860838,0.9875,0.11702127,62.271687,0.018502554,-0.015770309,-0.009685501,0.025691032,0.0,0.0,0.0
1029.9353,530.31274,14860855,1.0,0.11702127,77.14352,0.040458594,-0.015770309,-0.009685501,0.025691032,0.0,0.0,0.0
1031.8069,530.31274,14860872,0.9875,0.10638297,101.923676,0.006217295,-0.015770309,-0.009685501,0.025691032,0.0,0.0,0.0
1033.3823,530.31274,14860888,0.9875,0.10638297,117.74874,0.057997875,-0.015770309,-0.009685501,0.025691032,0.0,0.0,0.0
1034.9662,530.31274,14860905,0.9875,0.10638297,113.996956,0.037303608,-0.015770309,-0.009685501,0.025691032,0.0,0.0,0.0
1037.0378,530.31274,14860922,1.0125,0.10638297,114.0274,0.044059753,-0.015770309,-0.009685501,0.025691032,0.0,0.0,0.0
1039.1093,530.31274,14860938,0.9875,0.09574468,121.82864,0.031084528,-0.015770309,-0.009685501,0.025691032,0.0,0.0,0.0
1041.1696,530.31274,14860955,0.9875,0.09574468,132.62514,-0.0054391315,-0.015770309,-0.009685501,0.025691032,0.0,0.0,0.0
1043.277,530.31274,14860972,0.9875,0.09574468,137.27914,0.010447216,-0.015770309,-0.009685501,0.025691032,0.0,0.0,0.0
1045.3796,530.31274,14860989,0.975,0.09574468,129.57674,0.03846628,-0.015770309,-0.009685501,0.025691032,0.0,0.0,0.0
1047.5051,530.31274,14861005,0.9875,0.09574468,125.30376,0.008878617,-0.015770309,-0.009685501,0.025691032,0.0,0.0,0.0
1049.5596,530.31274,14861022,0.9875,0.09574468,125.73596,0.006221877,-0.012616254,0.016251594,-0.0274477,0.0,0.0,0.0
1051.5753,530.31274,14861039,1.0,0.09574468,126.26541,-0.008668092,-0.012616254,0.016251594,-0.0274477,0.0,0.0,0.0
1053.6577,530.31274,14861055,1.0,0.09574468,125.7282,0.020564895,-0.012616254,0.016251594,-0.0274477,0.0,0.0,0.0
1055.7307,530.31274,14861072,0.9875,0.09574468,123.53423,-0.008373224,-0.012616254,0.016251594,-0.0274477,0.0,0.0,0.0
1057.4716,530.31274,14861089,0.975,0.09574468,116.273964,0.0099994205,-0.012616254,0.016251594,-0.0274477,0.0,0.0,0.0
1059.0092,530.31274,14861105,1.0,0.09574468,97.24191,0.028588273,-0.012616254,0.016251594,-0.0274477,0.0,0.0,0.0
1060.0438,530.31274,14861122,0.9875,0.09574468,67.51415,0.04000094,-0.012616254,0.016251594,-0.0274477,0.0,0.0,0.0
1061.0874,529.4243,14861139,1.0125,0.09574468,43.771667,-26.12549,-0.012616254,0.016251594,-0.0274477,0.0,0.0,0.0
1062.1241,529.4243,14861156,1.0,0.09574468,38.500965,-33.432117,-0.012616254,0.016251594,-0.0274477,0.0,0.0,0.0
1063.1605,528.4845,14861172,1.025,0.10638297,49.461388,-39.730995,-0.012616254,0.016251594,-0.0274477,0.0,0.0,0.0
1064.2068,527.51355,14861189,1.0125,0.10638297,57.133972,-54.25358,-0.012616254,0.016251594,-0.0274477,0.0,0.0,0.0
1064.7703,527.64734,14861206,1.0125,0.12765957,46.064205,-40.157837,-0.012616254,0.016251594,-0.0274477,0.0,0.0,0.0
1064.8197,526.7588,14861239,1.025,0.12765957,-10.915488,-22.165352,-0.012616254,0.016251594,-0.0274477,0.0,0.0,0.0
1065.1311,526.35864,14861256,1.0,0.10638297,-10.167956,-1.088255,-0.012616254,0.016251594,-0.0274477,0.0,0.0,0.0
1065.3967,525.3982,14861273,1.025,0.12765957,5.9459662,-36.452503,-0.012616254,0.016251594,-0.0274477,0.0,0.0,0.0
1066.1307,524.9818,14861289,0.975,0.10638297,35.125484,-49.90363,-0.012616254,0.016251594,-0.0274477,0.0,0.0,0.0
1066.1307,523.6489,14861304,1.0,0.12765957,33.832146,-59.338306,-0.012616254,0.016251594,-0.0274477,0.0,0.0,0.0
1067.0099,524.09326,14861323,0.9875,0.12765957,31.224499,-33.495853,-0.012616254,0.016251594,-0.0274477,0.0,0.0,0.0
1068.0491,524.09326,14861339,0.975,0.12765957,52.02026,7.4211493,-0.012616254,0.016251594,-0.0274477,0.0,0.0,0.0
1069.0867,524.09326,14861356,0.975,0.12765957,65.99109,19.3433,-0.012616254,0.016251594,-0.0274477,0.0,0.0,0.0
1070.1213,524.09326,14861373,0.975,0.12765957,82.4177,17.121475,-0.012616254,0.016251594,-0.0274477,0.0,0.0,0.0
1071.1566,524.09326,14861390,0.975,0.12765957,74.440445,7.6008415,-0.012616254,0.016251594,-0.0274477,0.0,0.0,0.0
1072.1962,524.09326,14861406,0.9875,0.12765957,62.212574,0.0070231524,-0.012616254,0.016251594,-0.0274477,0.0,0.0,0.0
1073.2626,524.09326,14861423,0.9875,0.12765957,62.38795,0.043388356,-0.012616254,0.016251594,-0.0274477,0.0,0.0,0.0
1073.1285,524.09326,14861440,1.0125,0.12765957,31.395542,0.02914099,-0.012616254,0.016251594,-0.0274477,0.0,0.0,0.0
1073.1285,524.09326,14861473,0.9875,0.12765957,-28.994831,-0.008610344,-0.012616254,0.016251594,-0.0274477,0.0,0.0,0.0
1073.0999,524.09326,14861490,0.96250004,0.10638297,-27.481491,-0.027030712,-0.012616254,0.016251594,-0.0274477,0.0,0.0,0.0
1071.9806,524.09326,14861507,0.83750004,0.10638297,-43.248516,-0.008846459,-0.012616254,0.016251594,-0.0274477,0.0,0.0,0.0
1071.629,524.09326,14861509,0.675,0.09574468,-51.773026,0.0069598234,-0.012616254,0.016251594,-0.0274477,0.0,0.0,0.0
1071.629,524.09326,14861522,0.675,0.09574468,-51.773026,0.0069598234,-0.012616254,0.016251594,-0.0274477,0.0,0.0,0.0
1060.6326,540.0863,14864178,0.71250004,0.053191487,0.0,0.0,0.013581112,0.014054924,-0.020999908,0.0,0.0,0.0
1060.6326,540.0863,14864197,0.725,0.053191487,-0.12676546,-0.06999941,0.013581112,0.014054924,-0.020999908,0.0,0.0,0.0
1060.6326,540.0863,14864214,0.7375,0.06382979,-0.04181842,-0.021000499,-0.005135104,-0.004756063,-0.016799927,0.0,0.0,0.0
1060.6326,540.0863,14864230,0.75,0.08510638,0.05195762,0.028089786,-0.005135104,-0.004756063,-0.016799927,0.0,0.0,0.0
1060.6326,540.0863,14864264,0.77500004,0.08510638,0.067567945,0.03197878,-0.005135104,-0.004756063,-0.016799927,0.0,0.0,0.0
1073.3583,533.62317,14864280,0.77500004,0.09574468,346.9635,-176.18379,-0.005135104,-0.004756063,-0.016799927,0.0,0.0,0.0
1082.3053,528.72546,14864297,0.8,0.11702127,749.11414,-389.54678,-0.005135104,-0.004756063,-0.016799927,0.0,0.0,0.0
1088.0552,526.7832,14864314,0.825,0.10638297,772.11365,-378.29605,-0.005135104,-0.004756063,-0.016799927,0.0,0.0,0.0
1092.223,524.937,14864331,0.825,0.09574468,284.0372,-101.86322,-0.005135104,-0.004756063,-0.016799927,0.0,0.0,0.0
1096.3003,522.15686,14864347,0.83750004,0.10638297,183.25595,-80.67716,-0.005135104,-0.004756063,-0.016799927,0.0,0.0,0.0
1099.9119,520.36633,14864364,0.85,0.10638297,57.366814,-41.832775,-0.005135104,-0.004756063,-0.016799927,0.0,0.0,0.0
1102.902,518.5106,14864381,0.83750004,0.10638297,133.81161,-101.58044,-0.005135104,-0.004756063,-0.016799927,0.0,0.0,0.0
1105.8446,516.7838,14864397,0.8625,0.10638297,147.73732,-111.11314,-0.005135104,-0.004756063,-0.016799927,0.0,0.0,0.0
1109.2753,515.20825,14864414,0.825,0.10638297,153.81429,-87.94572,-0.005135104,-0.004756063,-0.016799927,0.0,0.0,0.0
1112.3877,513.8624,14864431,0.85,0.10638297,168.50829,-69.9457,-0.005135104,-0.004756063,-0.016799927,0.0,0.0,0.0
1116.3214,512.0065,14864448,0.875,0.10638297,207.93411,-83.75226,-0.005135104,-0.004756063,-0.016799927,0.0,0.0,0.0
1119.1337,510.1615,14864464,0.8625,0.12765957,216.94432,-101.6233,-0.005135104,-0.004756063,-0.016799927,0.0,0.0,0.0
1122.6067,508.32483,14864481,0.875,0.12765957,203.36278,-118.57313,-0.005135104,-0.004756063,-0.016799927,0.0,0.0,0.0
1125.856,507.3629,14864498,0.875,0.12765957,197.24248,-99.16576,-0.005135104,-0.004756063,-0.016799927,0.0,0.0,0.0
1129.9084,505.5243,14864514,0.875,0.12765957,208.53317,-75.81309,-0.005135104,-0.004756063,-0.016799927,0.0,0.0,0.0
1134.576,503.6692,14864531,0.875,0.11702127,254.76588,-90.160706,-0.005135104,-0.004756063,-0.016799927,0.0,0.0,0.0
1139.2299,502.72546,14864548,0.8875,0.10638297,303.97382,-84.30952,-0.005135104,-0.004756063,-0.016799927,0.0,0.0,0.0
1143.9751,502.76917,14864565,0.90000004,0.10638297,313.6577,-41.888966,-0.005135104,-0.004756063,-0.016799927,0.0,0.0,0.0
1149.169,500.79126,14864581,0.9125,0.09574468,326.67978,-40.7343,-0.005135104,-0.004756063,-0.016799927,0.0,0.0,0.0
1154.1614,499.85522,14864598,0.90000004,0.09574468,320.69385,-45.513115,-0.005135104,-0.004756063,-0.016799927,0.0,0.0,0.0
1158.5447,497.9912,14864615,0.9125,0.09574468,295.76434,-93.117874,-0.005135104,-0.004756063,-0.016799927,0.0,0.0,0.0
1163.0195,496.14075,14864631,0.9125,0.09574468,266.75558,-130.52235,-0.005135104,-0.004756063,-0.016799927,0.0,0.0,0.0
1167.1315,494.31348,14864648,0.90000004,0.08510638,235.8859,-126.64746,-0.005135104,-0.004756063,-0.016799927,0.0,0.0,0.0
1171.3232,492.45068,14864665,0.90000004,0.08510638,230.72748,-126.82258,-0.005135104,-0.004756063,-0.016799927,0.0,0.0,0.0
1175.4849,489.9839,14864681,0.8875,0.08510638,237.89214,-121.239456,-0.005135104,-0.004756063,-0.016799927,0.0,0.0,0.0
1179.1412,487.17834,14864698,0.8875,0.09574468,225.84338,-156.01677,-0.005135104,-0.004756063,-0.016799927,0.0,0.0,0.0
1183.285,483.49536,14864715,0.8875,0.09574468,229.26115,-210.13107,-0.005135104,-0.004756063,-0.016799927,0.0,0.0,0.0
1188.3943,479.80798,14864732,0.90000004,0.09574468,257.12463,-250.242,-0.005135104,-0.004756063,-0.016799927,0.0,0.0,0.0
1193.6063,476.10193,14864748,0.8875,0.10638297,312.4727,-257.92197,0.019891918,0.012195155,0.0025606155,0.0,0.0,0.0
1199.3059,472.4048,14864765,0.8625,0.09574468,362.369,-246.28215,0.019891918,0.012195155,0.0025606155,0.0,0.0,0.0
1204.5027,468.7096,14864782,0.875,0.10638297,363.306,-232.88637,0.019891918,0.012195155,0.0025606155,0.0,0.0,0.0
1209.1962,465.01697,14864798,0.8625,0.10638297,319.18805,-222.88454,0.019891918,0.012195155,0.0025606155,0.0,0.0,0.0
1214.3555,462.23718,14864815,0.8625,0.10638297,291.6989,-197.27133,0.019891918,0.012195155,0.0025606155,0.0,0.0,0.0
1219.5712,458.5287,14864832,0.8625,0.10638297,292.1518,-187.71931,0.019891918,0.012195155,0.0025606155,0.0,0.0,0.0
1224.7793,454.82544,14864849,0.8625,0.10638297,315.36633,-200.84735,0.019891918,0.012195155,0.0025606155,0.0,0.0,0.0
1229.9778,451.62683,14864865,0.85,0.10638297,321.33804,-214.47092,0.019891918,0.012195155,0.0025606155,0.0,0.0,0.0
1235.3467,449.78284,14864882,0.83750004,0.11702127,320.98538,-168.93703,0.019891918,0.012195155,0.0025606155,0.0,0.0,0.0
1240.2172,447.30115,14864899,0.85,0.11702127,302.55927,-109.174126,0.019891918,0.012195155,0.0025606155,0.0,0.0,0.0
1245.5502,444.31348,14864915,0.83750004,0.11702127,304.91083,-117.00093,0.019891918,0.012195155,0.0025606155,0.0,0.0,0.0
1249.7872,440.82617,14864932,0.8625,0.08510638,284.17166,-168.98137,0.019891918,0.012195155,0.0025606155,0.0,0.0,0.0
1253.925,437.14844,14864949,0.85,0.08510638,243.0216,-229.1413,0.019891918,0.012195155,0.0025606155,0.0,0.0,0.0
1258.1133,434.31458,14864966,0.83750004,0.08510638,229.49767,-222.78798,0.019891918,0.012195155,0.0025606155,0.0,0.0,0.0
1261.7736,430.61694,14864982,0.83750004,0.08510638,209.39893,-213.99904,0.019891918,0.012195155,0.0025606155,0.0,0.0,0.0
1265.3422,427.9713,14864999,0.825,0.08510638,212.07954,-198.10854,0.019891918,0.012195155,0.0025606155,0.0,0.0,0.0
1268.4208,425.04773,14865016,0.8625,0.08510638,189.32419,-163.4308,0.019891918,0.012195155,0.0025606155,0.0,0.0,0.0
1271.732,421.32178,14865032,0.85,0.09574468,172.12997,-181.57796,0.019891918,0.012195155,0.0025606155,0.0,0.0,0.0
1275.6853,418.88098,14865049,0.8625,0.09574468,198.54353,-182.44046,0.019891918,0.012195155,0.0025606155,0.0,0.0,0.0
1279.549,416.14563,14865066,0.8625,0.10638297,231.30411,-172.11269,0.019891918,0.012195155,0.0025606155,0.0,0.0,0.0
1284.2178,413.40442,14865083,0.8,0.12765957,277.85513,-157.48857,0.019891918,0.012195155,0.0025606155,0.0,0.0,0.0
1288.3618,410.67432,14865099,0.825,0.12765957,279.65894,-140.206,0.019891918,0.012195155,0.0025606155,0.0,0.0,0.0
1292.5154,408.18054,14865116,0.8125,0.12765957,269.9157,-149.01466,0.019891918,0.012195155,0.0025606155,0.0,0.0,0.0
1297.9779,405.37585,14865133,0.7875,0.12765957,284.67017,-158.61443,0.019891918,0.012195155,0.0025606155,0.0,0.0,0.0
1303.6896,403.36462,14865149,0.7875,0.12765957,323.50906,-142.08052,0.019891918,0.012195155,0.0025606155,0.0,0.0,0.0
1308.9542,400.66064,14865166,0.8,0.12765957,360.8917,-133.03485,0.019891918,0.012195155,0.0025606155,0.0,0.0,0.0
1313.6356,398.77637,14865183,0.8125,0.10638297,341.86755,-129.84712,0.019891918,0.012195155,0.0025606155,0.0,0.0,0.0
1317.2272,396.93176,14865199,0.8,0.10638297,262.21466,-110.862045,0.019891918,0.012195155,0.0025606155,0.0,0.0,0.0
1320.2354,395.09375,14865216,0.8125,0.09574468,175.08566,-102.47134,0.019891918,0.012195155,0.0025606155,0.0,0.0,0.0
1324.7201,393.2439,14865233,0.77500004,0.09574468,166.25853,-99.42324,0.019891918,0.012195155,0.0025606155,0.0,0.0,0.0
1329.2863,391.37708,14865250,0.8,0.09574468,218.4663,-97.28674,0.019891918,0.012195155,0.0025606155,0.0,0.0,0.0
1333.6942,389.54407,14865266,0.8,0.09574468,277.38583,-110.878815,0.019891918,0.012195155,0.0025606155,0.0,0.0,0.0
1337.5704,389.04077,14865283,0.8,0.08510638,279.39157,-77.22114,0.015913531,-0.0062438697,-0.013952255,0.0,0.0,0.0
1341.23,388.5127,14865300,0.75,0.10638297,230.2096,-17.096493,0.015913531,-0.0062438697,-0.013952255,0.0,0.0,0.0
1346.8783,387.2638,14865316,0.7625,0.09574468,242.85857,-17.399433,0.015913531,-0.0062438697,-0.013952255,0.0,0.0,0.0
1353.6505,385.7119,14865333,0.7375,0.09574468,356.93237,-48.99957,0.015913531,-0.0062438697,-0.013952255,0.0,0.0,0.0
1360.4088,384.7572,14865350,0.7375,0.08510638,459.37595,-83.428535,0.015913531,-0.0062438697,-0.013952255,0.0,0.0,0.0
1365.3248,384.59827,14865367,0.7375,0.08510638,443.19144,-68.06681,0.015913531,-0.0062438697,-0.013952255,0.0,0.0,0.0
1370.0043,384.59827,14865383,0.7375,0.08510638,336.60617,-1.811876,0.015913531,-0.0062438697,-0.013952255,0.0,0.0,0.0
1373.1289,384.59827,14865400,0.725,0.08510638,195.81277,27.511189,0.015913531,-0.0062438697,-0.013952255,0.0,0.0,0.0
1375.1544,384.59827,14865417,0.725,0.08510638,99.959274,32.116337,0.015913531,-0.0062438697,-0.013952255,0.0,0.0,0.0
1377.2476,386.56897,14865433,0.725,0.08510638,56.271923,67.01867,0.015913531,-0.0062438697,-0.013952255,0.0,0.0,0.0
1378.8147,388.40613,14865450,0.7375,0.08510638,45.31613,118.09299,0.015913531,-0.0062438697,-0.013952255,0.0,0.0,0.0
1380.9027,390.26196,14865467,0.71250004,0.08510638,60.72501,157.46901,0.015913531,-0.0062438697,-0.013952255,0.0,0.0,0.0
1382.9669,392.09668,14865484,0.725,0.10638297,107.535706,152.3348,0.015913531,-0.0062438697,-0.013952255,0.0,0.0,0.0
1385.0612,393.9579,14865500,0.675,0.08510638,125.44335,120.06621,0.015913531,-0.0062438697,-0.013952255,0.0,0.0,0.0
1386.3306,395.80054,14865517,0.675,0.08510638,113.66101,110.802986,0.015913531,-0.0062438697,-0.013952255,0.0,0.0,0.0
1387.7166,397.65076,14865534,0.6875,0.08510638,77.51805,110.6062,0.015913531,-0.0062438697,-0.013952255,0.0,0.0,0.0
1389.2876,400.84546,14865550,0.7,0.10638297,63.295086,134.33066,0.015913531,-0.0062438697,-0.013952255,0.0,0.0,0.0
1390.4404,405.6211,14865567,0.7625,0.10638297,66.79976,241.22717,0.015913531,-0.0062438697,-0.013952255,0.0,0.0,0.0
1391.025,408.50916,14865584,0.77500004,0.09574468,58.753983,287.89868,0.015913531,-0.0062438697,-0.013952255,0.0,0.0,0.0
1391.025,411.25378,14865601,0.8,0.09574468,13.375436,236.01614,0.015913531,-0.0062438697,-0.013952255,0.0,0.0,0.0
1391.025,413.10815,14865617,0.8,0.09574468,-27.513887,140.99359,0.015913531,-0.0062438697,-0.013952255,0.0,0.0,0.0
1390.434,414.0808,14865634,0.8125,0.08510638,-47.94761,34.66979,0.015913531,-0.0062438697,-0.013952255,0.0,0.0,0.0
1389.4104,415.90063,14865651,0.83750004,0.08510638,-69.17366,34.312733,0.015913531,-0.0062438697,-0.013952255,0.0,0.0,0.0
1388.3738,416.58435,14865667,0.85,0.08510638,-84.05842,43.861244,0.015913531,-0.0062438697,-0.013952255,0.0,0.0,0.0
1387.1586,416.58435,14865684,0.875,0.08510638,-92.85288,13.318598,0.015913531,-0.0062438697,-0.013952255,0.0,0.0,0.0
1385.0593,416.58435,14865701,0.875,0.08510638,-112.98067,-22.550632,0.015913531,-0.0062438697,-0.013952255,0.0,0.0,0.0
1382.9827,417.0686,14865717,0.8875,0.08510638,-135.61725,-42.351704,0.015913531,-0.0062438697,-0.013952255,0.0,0.0,0.0
1380.8995,418.03162,14865734,0.8875,0.08510638,-154.02452,16.80819,0.015913531,-0.0062438697,-0.013952255,0.0,0.0,0.0
1377.982,418.36133,14865751,0.9125,0.08510638,-168.65921,60.988678,0.015913531,-0.0062438697,-0.013952255,0.0,0.0,0.0
1375.7552,419.0498,14865768,0.90000004,0.08510638,-166.9437,48.939865,0.015913531,-0.0062438697,-0.013952255,0.0,0.0,0.0
1373.2622,420.00134,14865784,0.8875,0.08510638,-156.12257,44.566715,0.015913531,-0.0062438697,-0.013952255,0.0,0.0,0.0
1369.686,420.13843,14865801,0.8875,0.09574468,-175.76385,34.326054,0.015913531,-0.0062438697,-0.013952255,0.0,0.0,0.0
1366.0532,420.13843,14865818,0.8875,0.09574468,-211.56886,18.64394,0.0047308207,-0.0049950927,-0.011161804,0.0,0.0,0.0
1361.8287,420.13843,14865834,0.90000004,0.09574468,-263.79065,-4.9596977,0.0047308207,-0.0049950927,-0.011161804,0.0,0.0,0.0
1358.1898,420.13843,14865851,0.9125,0.09574468,-275.12775,-23.458344,0.0047308207,-0.0049950927,-0.011161804,0.0,0.0,0.0
1353.561,420.13843,14865868,0.90000004,0.10638297,-273.58618,-13.025579,0.0047308207,-0.0049950927,-0.011161804,0.0,0.0,0.0
1348.9113,419.85962,14865885,0.8875,0.10638297,-283.78586,-3.8847563,0.0047308207,-0.0049950927,-0.011161804,0.0,0.0,0.0
1343.8306,418.00305,14865901,0.90000004,0.09574468,-303.19724,-57.44777,0.0047308207,-0.0049950927,-0.011161804,0.0,0.0,0.0
1338.3389,416.58435,14865918,0.925,0.09574468,-343.5635,-122.696815,0.0047308207,-0.0049950927,-0.011161804,0.0,0.0,0.0
1333.1412,415.1974,14865935,0.925,0.09574468,-341.0732,-129.35611,0.0047308207,-0.0049950927,-0.011161804,0.0,0.0,0.0
1327.9803,414.80737,14865951,0.925,0.09574468,-329.02277,-87.177025,0.0047308207,-0.0049950927,-0.011161804,0.0,0.0,0.0
1323.629,414.80737,14865968,0.9125,0.10638297,-291.35516,-5.904817,0.0047308207,-0.0049950927,-0.011161804,0.0,0.0,0.0
1319.0612,414.10107,14865985,0.90000004,0.10638297,-248.72441,21.158281,0.0047308207,-0.0049950927,-0.011161804,0.0,0.0,0.0
1314.335,413.91882,14866002,0.9125,0.11702127,-256.02197,2.4437919,0.0047308207,-0.0049950927,-0.011161804,0.0,0.0,0.0
1309.7006,413.08337,14866018,0.9125,0.12765957,-259.13354,-16.365215,0.0047308207,-0.0049950927,-0.011161804,0.0,0.0,0.0
1304.4741,413.0304,14866035,0.9125,0.12765957,-296.54144,-37.128933,0.0047308207,-0.0049950927,-0.011161804,0.0,0.0,0.0
1300.3612,413.0304,14866052,0.8875,0.12765957,-293.13376,-12.329745,0.0047308207,-0.0049950927,-0.011161804,0.0,0.0,0.0
1296.1874,412.14185,14866068,0.90000004,0.12765957,-261.54785,-20.230013,0.0047308207,-0.0049950927,-0.011161804,0.0,0.0,0.0
1292.4127,412.14185,14866085,0.8875,0.10638297,-228.89682,-19.550919,0.0047308207,-0.0049950927,-0.011161804,0.0,0.0,0.0
1287.7126,412.14185,14866102,0.90000004,0.10638297,-226.38159,-3.3672159,0.0047308207,-0.0049950927,-0.011161804,0.0,0.0,0.0
1283.2234,412.14185,14866119,0.8875,0.10638297,-256.11914,1.967136,0.0047308207,-0.0049950927,-0.011161804,0.0,0.0,0.0
1279.0652,412.14185,14866135,0.9125,0.10638297,-272.70474,16.609444,0.0047308207,-0.0049950927,-0.011161804,0.0,0.0,0.0
1274.9309,411.63904,14866152,0.90000004,0.10638297,-258.83517,-8.503301,0.0047308207,-0.0049950927,-0.011161804,0.0,0.0,0.0
1270.2559,411.25342,14866169,0.8875,0.10638297,-254.82993,-32.707935,0.0047308207,-0.0049950927,-0.011161804,0.0,0.0,0.0
1265.735,411.25342,14866185,0.875,0.12765957,-265.1283,-28.025393,0.0047308207,-0.0049950927,-0.011161804,0.0,0.0,0.0
1262.356,410.36487,14866202,0.8875,0.12765957,-255.43211,-35.113754,0.0047308207,-0.0049950927,-0.011161804,0.0,0.0,0.0
1258.339,410.36487,14866219,0.8875,0.12765957,-219.82065,-23.317753,0.0047308207,-0.0049950927,-0.011161804,0.0,0.0,0.0
1254.1862,410.36487,14866235,0.875,0.12765957,-219.27988,-4.7176867,0.0047308207,-0.0049950927,-0.011161804,0.0,0.0,0.0
1249.4668,410.36487,14866252,0.8875,0.12765957,-251.72063,1.8349427,0.0047308207,-0.0049950927,-0.011161804,0.0,0.0,0.0
1246.3812,410.36487,14866269,0.8625,0.12765957,-246.49701,13.942634,0.0047308207,-0.0049950927,-0.011161804,0.0,0.0,0.0
1242.6506,410.36487,14866286,0.875,0.12765957,-223.20915,8.889171,0.0047308207,-0.0049950927,-0.011161804,0.0,0.0,0.0
1239.6053,410.36487,14866302,0.90000004,0.12765957,-179.50586,-0.0044298787,0.0047308207,-0.0049950927,-0.011161804,0.0,0.0,0.0
1236.4404,410.36487,14866319,0.9125,0.10638297,-166.24966,0.007215394,0.0047308207,-0.0049950927,-0.011161804,0.0,0.0,0.0
1233.928,410.36487,14866336,0.90000004,0.10638297,-154.78783,0.0069034537,0.0047308207,-0.0049950927,-0.011161804,0.0,0.0,0.0
1231.3121,410.36487,14866352,0.8875,0.10638297,-145.51555,-0.015225048,0.0037846565,-0.003996074,-0.008929253,0.0,0.0,0.0
1228.1915,410.36487,14866369,0.875,0.10638297,-152.50589,0.05266081,0.0037846565,-0.003996074,-0.008929253,0.0,0.0,0.0
1225.0818,410.36487,14866386,0.875,0.10638297,-175.3098,0.0064275446,0.0037846565,-0.003996074,-0.008929253,0.0,0.0,0.0
1221.6073,410.36487,14866403,0.8875,0.10638297,-199.78336,0.019666325,0.0037846565,-0.003996074,-0.008929253,0.0,0.0,0.0
1217.0929,410.36487,14866419,0.875,0.09574468,-242.62431,0.015052478,0.0037846565,-0.003996074,-0.008929253,0.0,0.0,0.0
1212.0753,410.36487,14866436,0.875,0.10638297,-301.1691,0.034690212,0.0037846565,-0.003996074,-0.008929253,0.0,0.0,0.0
1206.651,410.36487,14866453,0.90000004,0.12765957,-344.3488,0.013277613,0.0037846565,-0.003996074,-0.008929253,0.0,0.0,0.0
1199.8934,411.25342,14866469,0.875,0.12765957,-408.83542,28.571777,0.0037846565,-0.003996074,-0.008929253,0.0,0.0,0.0
1191.0504,411.25342,14866486,0.875,0.12765957,-507.51727,30.608469,0.0037846565,-0.003996074,-0.008929253,0.0,0.0,0.0
1183.7662,411.25342,14866503,0.8625,0.10638297,-562.2447,19.68224,0.0037846565,-0.003996074,-0.008929253,0.0,0.0,0.0
1173.7808,411.25342,14866520,0.875,0.10638297,-596.7142,-1.9747348,0.0037846565,-0.003996074,-0.008929253,0.0,0.0,0.0
1163.3665,411.25342,14866536,0.85,0.10638297,-623.04565,-14.524413,0.0037846565,-0.003996074,-0.008929253,0.0,0.0,0.0
1152.9556,411.25342,14866553,0.85,0.12765957,-653.7153,0.04115553,0.0037846565,-0.003996074,-0.008929253,0.0,0.0,0.0
1138.9116,411.25342,14866570,0.85,0.12765957,-802.21313,0.004034311,0.0037846565,-0.003996074,-0.008929253,0.0,0.0,0.0
1125.372,410.7152,14866586,0.85,0.10638297,-903.2637,-9.262951,0.0037846565,-0.003996074,-0.008929253,0.0,0.0,0.0
1111.604,410.36487,14866603,0.85,0.10638297,-920.0689,-30.756237,0.0037846565,-0.003996074,-0.008929253,0.0,0.0,0.0
1093.1918,408.84766,14866620,0.825,0.12765957,-986.7235,-64.4881,0.0037846565,-0.003996074,-0.008929253,0.0,0.0,0.0
1073.4939,406.97253,14866637,0.85,0.10638297,-1177.721,-114.29744,0.0037846565,-0.003996074,-0.008929253,0.0,0.0,0.0
1055.0916,404.33435,14866653,0.83750004,0.10638297,-1256.6019,-155.79002,0.0037846565,-0.003996074,-0.008929253,0.0,0.0,0.0
1035.1624,402.37024,14866670,0.825,0.12765957,-1285.2311,-179.9999,0.0037846565,-0.003996074,-0.008929253,0.0,0.0,0.0
1016.9989,400.52356,14866687,0.85,0.10638297,-1204.4407,-158.11249,0.0037846565,-0.003996074,-0.008929253,0.0,0.0,0.0
998.2295,398.68115,14866703,0.83750004,0.10638297,-1123.7314,-117.80454,0.0037846565,-0.003996074,-0.008929253,0.0,0.0,0.0
980.06946,397.92578,14866720,0.85,0.12765957,-1113.1704,-75.66952,0.0037846565,-0.003996074,-0.008929253,0.0,0.0,0.0
960.48975,396.67456,14866737,0.8625,0.10638297,-1085.469,-36.02394,0.0037846565,-0.003996074,-0.008929253,0.0,0.0,0.0
941.62756,397.03735,14866754,0.875,0.12765957,-1126.8702,-2.1042614,0.0037846565,-0.003996074,-0.008929253,0.0,0.0,0.0
918.8097,397.03735,14866770,0.8875,0.12765957,-1304.3618,30.74774,0.0037846565,-0.003996074,-0.008929253,0.0,0.0,0.0
896.7004,396.55383,14866787,0.875,0.10638297,-1413.8241,20.832563,0.0037846565,-0.003996074,-0.008929253,0.0,0.0,0.0
871.5537,395.60046,14866804,0.8625,0.12765957,-1494.0664,-24.616194,0.0037846565,-0.003996074,-0.008929253,0.0,0.0,0.0
848.7405,393.7567,14866820,0.90000004,0.09574468,-1505.8588,-91.189865,0.0037846565,-0.003996074,-0.008929253,0.0,0.0,0.0
822.17267,392.79736,14866837,0.8875,0.10638297,-1530.3124,-116.23045,0.0037846565,-0.003996074,-0.008929253,0.0,0.0,0.0
799.4285,391.00488,14866854,0.90000004,0.09574468,-1488.858,-114.3283,0.0037846565,-0.003996074,-0.008929253,0.0,0.0,0.0
773.22253,389.92932,14866870,0.8875,0.09574468,-1488.675,-99.97104,0.0037846565,-0.003996074,-0.008929253,0.0,0.0,0.0
747.0944,389.92932,14866887,0.925,0.09574468,-1560.418,-40.057575,0.0030277222,0.012803137,-0.023142815,0.0,0.0,0.0
722.61975,388.96094,14866904,0.90000004,0.10638297,-1566.705,-13.274338,0.0030277222,0.012803137,-0.023142815,0.0,0.0,0.0
697.34393,389.04077,14866921,0.9125,0.09574468,-1548.7863,6.0827785,0.0030277222,0.012803137,-0.023142815,0.0,0.0,0.0
672.5523,389.04077,14866937,0.925,0.09574468,-1490.0262,14.792303,0.0030277222,0.012803137,-0.023142815,0.0,0.0,0.0
646.57245,390.25024,14866954,0.90000004,0.10638297,-1468.6307,33.10608,0.0030277222,0.012803137,-0.023142815,0.0,0.0,0.0
623.5675,390.28516,14866971,0.9375,0.09574468,-1456.1302,49.793148,0.0030277222,0.012803137,-0.023142815,0.0,0.0,0.0
599.0827,391.7063,14866987,0.9375,0.11702127,-1463.8054,86.61064,0.0030277222,0.012803137,-0.023142815,0.0,0.0,0.0
577.0486,392.59485,14867004,0.96250004,0.09574468,-1421.9083,86.240715,0.0030277222,0.012803137,-0.023142815,0.0,0.0,0.0
557.6181,394.0144,14867021,0.96250004,0.10638297,-1208.4946,82.05145,0.0030277222,0.012803137,-0.023142815,0.0,0.0,0.0
537.2544,395.26025,14867038,0.9375,0.12765957,-1095.3662,93.84202,0.0030277222,0.012803137,-0.023142815,0.0,0.0,0.0
519.6602,396.7915,14867054,0.96250004,0.10638297,-978.50616,84.92675,0.0030277222,0.012803137,-0.023142815,0.0,0.0,0.0
501.7378,397.92578,14867071,0.9875,0.10638297,-979.4489,93.93338,0.0030277222,0.012803137,-0.023142815,0.0,0.0,0.0
484.047,399.62683,14867088,0.95,0.12765957,-977.04095,82.798164,0.0030277222,0.012803137,-0.023142815,0.0,0.0,0.0
468.6809,401.49817,14867104,0.975,0.10638297,-952.4724,99.5114,0.0030277222,0.012803137,-0.023142815,0.0,0.0,0.0
456.02765,403.3756,14867121,0.9875,0.10638297,-820.2486,120.4477,0.0030277222,0.012803137,-0.023142815,0.0,0.0,0.0
445.9234,405.19543,14867138,0.9875,0.12765957,-630.4694,123.29023,0.0030277222,0.012803137,-0.023142815,0.0,0.0,0.0
438.34866,405.0338,14867155,1.0125,0.12765957,-415.2354,69.923965,0.0030277222,0.012803137,-0.023142815,0.0,0.0,0.0
432.37735,405.0338,14867171,1.0,0.12765957,-255.49696,-8.916824,0.0030277222,0.012803137,-0.023142815,0.0,0.0,0.0
428.01236,405.0338,14867188,0.9875,0.12765957,-167.98792,-46.645714,0.0030277222,0.012803137,-0.023142815,0.0,0.0,0.0
424.84705,405.0338,14867205,0.975,0.12765957,-95.80943,-42.8513,0.0030277222,0.012803137,-0.023142815,0.0,0.0,0.0
423.83987,405.0338,14867221,0.9125,0.12765957,-29.567907,-8.967545,0.0030277222,0.012803137,-0.023142815,0.0,0.0,0.0
423.83987,405.0338,14867233,0.675,0.12765957,34.90885,1.2090621,0.0030277222,0.012803137,-0.023142815,0.0,0.0,0.0
423.83987,405.0338,14867240,0.675,0.12765957,34.90885,1.2090621,0.0030277222,0.012803137,-0.023142815,0.0,0.0,0.0
