x,y,timestamp,pressure,fingerarea,velocityx,velocityy,accelx,accely,accelz,gyrox,gyroy,gyroz
223.40512,238.88379,78873453,0.975,0.12765957,0.0,0.0,0.015292048,-0.0071840286,0.07443905,3.355443E-6,0.0,0.0
223.40512,238.88379,78873470,0.96250004,0.12765957,0.23397747,0.25682774,0.015292048,-0.0071840286,0.07443905,4.885594E-5,-1.709958E-4,0.0
223.40512,238.88379,78873487,0.975,0.12765957,-0.009033022,-0.010820102,0.015292048,-0.0071840286,0.07443905,4.885594E-5,-1.709958E-4,0.0
223.40512,238.88379,78873504,0.96250004,0.10638297,0.012263313,0.013273903,0.015292048,-0.0071840286,0.07443905,4.885594E-5,-1.709958E-4,0.0
232.01672,237.27246,78873521,0.925,0.10638297,240.73909,-45.059887,0.015292048,-0.0071840286,0.07443905,4.885594E-5,-1.709958E-4,0.0
255.54785,232.63403,78873537,0.90000004,0.11702127,1140.5347,-220.94295,0.015292048,-0.0071840286,0.07443905,0.0,5.3687072E-5,0.0
275.69275,228.07874,78873554,0.9125,0.08510638,1715.8907,-359.0313,0.015292048,-0.0071840286,0.07443905,0.0,5.3687072E-5,0.0
295.65814,222.99475,78873571,0.9125,0.08510638,1769.9354,-401.28696,0.015292048,-0.0071840286,0.07443905,0.0,5.3687072E-5,0.0
316.0126,217.43408,78873587,0.9125,0.08510638,1406.7714,-381.10757,0.015292048,-0.0071840286,0.07443905,0.0,5.3687072E-5,0.0
341.08023,211.84802,78873604,0.90000004,0.06382979,1242.8982,-346.12692,0.015292048,-0.0071840286,0.07443905,-3.355443E-6,0.0,0.0
365.92377,205.39746,78873621,0.90000004,0.09574468,1543.1927,-389.0365,0.015292048,-0.0071840286,0.07443905,-3.355443E-6,0.0,0.0
390.85043,199.78955,78873638,0.8875,0.08510638,1639.7052,-389.71646,0.015292048,-0.0071840286,0.07443905,-3.355443E-6,0.0,0.0
413.7224,194.23547,78873654,0.83750004,0.12765957,1561.3566,-358.7128,0.015292048,-0.0071840286,0.07443905,-3.355443E-6,0.0,0.0
433.4449,189.80872,78873671,0.83750004,0.10638297,1324.4183,-309.96692,0.015292048,-0.0071840286,0.07443905,0.0,0.0,0.0
452.30823,185.29712,78873688,0.8,0.10638297,1090.6007,-256.62534,0.015292048,-0.0071840286,0.07443905,0.0,0.0,0.0
470.03003,181.45398,78873704,0.77500004,0.11702127,963.1627,-208.42627,0.015292048,-0.0071840286,0.07443905,0.0,0.0,0.0
490.96625,174.7511,78873721,0.6875,0.08510638,1015.15106,-269.0333,0.015292048,-0.0071840286,0.07443905,0.0,0.0,0.0
499.78577,171.81482,78873738,0.3625,0.08510638,895.4289,-290.9754,0.015292048,-0.0071840286,0.07443905,4.7453127E-6,0.0,0.0
500.81482,171.35754,78873742,0.1875,0.06382979,787.68317,-268.39468,0.015292048,-0.0071840286,0.07443905,4.7453127E-6,0.0,0.0
500.81482,171.35754,78873750,0.1875,0.06382979,787.68317,-268.39468,0.015292048,-0.0071840286,0.07443905,4.7453127E-6,0.0,0.0
246.39764,393.48328,78874193,0.7625,0.08510638,0.0,0.0,0.04423368,0.026252747,0.04355049,0.0,0.0,0.0
246.39764,393.48328,78874222,0.90000004,0.08510638,-0.001389657,-0.001589902,0.04423368,0.026252747,0.04355049,0.0,0.0,0.0
246.39764,393.48328,78874239,0.90000004,0.09574468,0.02391626,0.038254593,0.04423368,0.026252747,0.04355049,0.0,0.0,0.0
269.20612,385.3745,78874256,0.8875,0.06382979,1078.2479,-383.31866,0.04423368,0.026252747,0.04355049,0.0,0.0,0.0
292.7601,378.0144,78874272,0.8875,0.06382979,1746.7095,-585.80164,0.04423368,0.026252747,0.04355049,5.8696245E-5,-9.782707E-5,0.0
316.99875,369.73315,78874289,0.8625,0.08510638,2014.257,-679.0048,0.04423368,0.026252747,0.04355049,5.8696245E-5,-9.782707E-5,0.0
345.66928,360.5155,78874306,0.875,0.10638297,2152.3884,-705.10754,0.04423368,0.026252747,0.04355049,5.8696245E-5,-9.782707E-5,0.0
373.55823,351.32812,78874323,0.875,0.12765957,1974.4868,-635.0992,0.04423368,0.026252747,0.04355049,5.8696245E-5,-9.782707E-5,0.0
404.01202,341.10425,78874339,0.85,0.08510638,1854.4445,-606.9257,0.04423368,0.026252747,0.04355049,0.0,0.0,0.0
429.26825,332.82166,78874356,0.85,0.07446808,1807.7502,-589.73627,0.04423368,0.026252747,0.04355049,0.0,0.0,0.0
452.6147,325.67834,78874373,0.825,0.06382979,1535.217,-491.74933,0.04423368,0.026252747,0.04355049,0.0,0.0,0.0
470.59973,319.5348,78874389,0.825,0.08510638,1196.2197,-388.60498,0.04423368,0.026252747,0.04355049,0.0,0.0,0.0
485.51843,315.31152,78874406,0.825,0.08510638,813.942,-251.64935,-0.044613004,0.005002022,0.034840584,0.0,3.355443E-6,0.0
498.24664,311.10522,78874423,0.8,0.08510638,582.6151,-173.74667,-0.044613004,0.005002022,0.034840584,0.0,3.355443E-6,0.0
510.8086,306.4922,78874440,0.77500004,0.09574468,518.8138,-163.74916,-0.044613004,0.005002022,0.034840584,0.0,3.355443E-6,0.0
524.0069,300.28638,78874456,0.75,0.12765957,572.20056,-250.26947,-0.044613004,0.005002022,0.034840584,0.0,3.355443E-6,0.0
538.4605,291.3341,78874473,0.6625,0.10638297,745.3672,-445.94983,-0.044613004,0.005002022,0.034840584,0.0,0.0,0.0
544.1197,286.18884,78874490,0.4125,0.08510638,661.3631,-517.4507,-0.044613004,0.005002022,0.034840584,0.0,0.0,0.0
544.30066,285.97437,78874491,0.2125,0.06382979,613.2946,-496.81207,-0.044613004,0.005002022,0.034840584,0.0,0.0,0.0
544.30066,285.97437,78874498,0.2125,0.06382979,613.2946,-496.81207,-0.044613004,0.005002022,0.034840584,0.0,0.0,0.0
362.85974,156.25293,78874902,0.85,0.07446808,0.0,0.0,-0.044613004,0.005002022,0.034840584,0.0,0.0,0.0
362.85974,156.25293,78874924,0.9375,0.09574468,0.038719222,0.017425964,-0.044613004,0.005002022,0.034840584,0.0,0.0,0.0
362.85974,156.25293,78874941,0.96250004,0.08510638,0.0027966641,9.020342E-4,-0.09169042,-0.06799817,0.011872292,0.0,-3.355443E-6,0.0
364.2346,182.32104,78874958,0.925,0.08510638,55.269104,1047.7339,-0.09169042,-0.06799817,0.011872292,0.0,-3.355443E-6,0.0
366.89816,210.82849,78874974,0.925,0.09574468,169.40825,2286.6177,-0.09169042,-0.06799817,0.011872292,0.0,-3.355443E-6,0.0
370.5229,238.57849,78874991,0.90000004,0.11702127,249.6531,2505.231,-0.09169042,-0.06799817,0.011872292,0.0,-3.355443E-6,0.0
374.7281,271.0155,78875008,0.9125,0.09574468,315.13977,2559.5596,-0.09169042,-0.06799817,0.011872292,0.0,3.6294656E-5,0.0
379.3631,304.0481,78875024,0.90000004,0.08510638,337.70282,2330.878,-0.09169042,-0.06799817,0.011872292,0.0,3.6294656E-5,0.0
383.181,339.83813,78875041,0.90000004,0.12765957,303.4653,2100.309,-0.09169042,-0.06799817,0.011872292,0.0,3.6294656E-5,0.0
387.19315,377.11,78875058,0.8875,0.07446808,270.55246,2338.2705,-0.09169042,-0.06799817,0.011872292,0.0,3.6294656E-5,0.0
392.1856,411.95813,78875075,0.90000004,0.08510638,257.45602,2263.5342,-0.09169042,-0.06799817,0.011872292,8.7176915E-5,-1.7435385E-5,0.0
398.04794,445.67493,78875091,0.8875,0.09574468,309.21512,2145.064,-0.09169042,-0.06799817,0.011872292,8.7176915E-5,-1.7435385E-5,0.0
405.27594,480.81726,78875108,0.85,0.06382979,420.74445,2045.5208,-0.09169042,-0.06799817,0.011872292,8.7176915E-5,-1.7435385E-5,0.0
411.85986,509.82373,78875125,0.85,0.12765957,471.1939,1854.0693,-0.09169042,-0.06799817,0.011872292,8.7176915E-5,-1.7435385E-5,0.0
418.21933,539.2826,78875141,0.825,0.08510638,454.8164,1703.16,-0.09169042,-0.06799817,0.011872292,1.4517852E-4,0.0,0.0
425.33627,571.50256,78875158,0.825,0.12765957,413.31848,1636.487,-0.09169042,-0.06799817,0.011872292,1.4517852E-4,0.0,0.0
430.27634,601.8721,78875175,0.8125,0.08510638,372.04352,1798.0789,-0.09169042,-0.06799817,0.011872292,1.4517852E-4,0.0,0.0
434.41412,633.135,78875192,0.8,0.07446808,283.68463,1909.4984,-0.09169042,-0.06799817,0.011872292,1.4517852E-4,0.0,0.0
436.45663,655.10315,78875208,0.7875,0.10638297,149.11504,1645.4368,-0.09169042,-0.06799817,0.011872292,-5.811797E-6,5.811797E-6,0.0
440.25543,681.49756,78875225,0.7,0.08510638,93.04572,1403.0956,-0.09169042,-0.06799817,0.011872292,-5.811797E-6,5.811797E-6,0.0
439.04077,694.00684,78875242,0.275,0.08510638,0.21544203,917.75195,-0.09169042,-0.06799817,0.011872292,-5.811797E-6,5.811797E-6,0.0
439.04077,694.00684,78875247,0.275,0.08510638,0.21544203,917.75195,-0.09169042,-0.06799817,0.011872292,-5.811797E-6,5.811797E-6,0.0
485.3199,673.3618,78876344,0.7875,0.12765957,0.0,0.0,-0.03788185,-0.040318966,0.09239769,0.0,0.0,0.0
485.3199,673.3618,78876361,0.825,0.12765957,-0.18218614,-0.27268177,-0.03788185,-0.040318966,0.09239769,0.0,0.0,0.0
485.3199,673.3618,78876378,0.8875,0.12765957,-0.04778458,-0.067855984,-0.03788185,-0.040318966,0.09239769,0.0,0.0,0.0
485.3199,673.3618,78876395,0.925,0.12765957,-0.007618913,-0.009091881,-0.03788185,-0.040318966,0.09239769,0.0,0.0,0.0
485.3199,673.3618,78876411,0.9125,0.10638297,-0.0026807955,-0.0050543007,-0.03788185,-0.040318966,0.09239769,6.0023962E-5,-3.0011981E-5,0.0
485.3199,673.3618,78876428,0.8875,0.08510638,-0.030173635,-0.040274344,-0.03788185,-0.040318966,0.09239769,6.0023962E-5,-3.0011981E-5,0.0
496.57172,652.83484,78876445,0.8625,0.08510638,324.56418,-587.10834,-0.03788185,-0.040318966,0.09239769,6.0023962E-5,-3.0011981E-5,0.0
513.0052,620.5813,78876462,0.85,0.10638297,898.6861,-1691.8308,-0.03788185,-0.040318966,0.09239769,6.0023962E-5,-3.0011981E-5,0.0
523.1428,593.95056,78876478,0.8625,0.07446808,1157.308,-2421.0164,-0.03788185,-0.040318966,0.09239769,-4.7453127E-6,4.7453127E-6,0.0
531.54834,568.9259,78876495,0.85,0.12765957,954.6893,-2369.2756,-0.03788185,-0.040318966,0.09239769,-4.7453127E-6,4.7453127E-6,0.0
537.9966,546.5054,78876512,0.85,0.08510638,509.5806,-1759.0698,-0.03788185,-0.040318966,0.09239769,-4.7453127E-6,4.7453127E-6,0.0
542.2748,531.28394,78876528,0.85,0.08510638,129.27332,-1035.87,-0.03788185,-0.040318966,0.09239769,-4.7453127E-6,4.7453127E-6,0.0
544.87274,521.10657,78876545,0.85,0.12765957,50.68115,-576.9395,-0.2143054,0.16774487,-0.038082123,4.7453127E-6,-4.7453127E-6,0.0
546.37585,514.8037,78876562,0.83750004,0.12765957,5.4515424,-225.78416,-0.2143054,0.16774487,-0.038082123,4.7453127E-6,-4.7453127E-6,0.0
546.79987,512.3468,78876578,0.875,0.12765957,-57.143337,72.00634,-0.2143054,0.16774487,-0.038082123,4.7453127E-6,-4.7453127E-6,0.0
546.79987,510.5056,78876595,0.90000004,0.12765957,-83.604454,186.73195,-0.2143054,0.16774487,-0.038082123,4.7453127E-6,-4.7453127E-6,0.0
546.79987,510.76575,78876612,0.9375,0.12765957,-76.882416,194.01772,-0.2143054,0.16774487,-0.038082123,-9.0035915E-5,4.5017958E-5,0.0
546.79987,515.49744,78876629,0.8875,0.10638297,-42.8882,266.43536,-0.2143054,0.16774487,-0.038082123,-9.0035915E-5,4.5017958E-5,0.0
547.5695,529.29895,78876645,0.825,0.07446808,5.0164557,636.9947,-0.2143054,0.16774487,-0.038082123,-9.0035915E-5,4.5017958E-5,0.0
548.92126,545.61365,78876662,0.83750004,0.08510638,63.22895,1115.9899,-0.2143054,0.16774487,-0.038082123,-9.0035915E-5,4.5017958E-5,0.0
552.69324,563.4352,78876679,0.825,0.10638297,166.73785,1424.9711,-0.2143054,0.16774487,-0.038082123,2.0205202E-4,-8.659372E-5,0.0
557.7371,579.5664,78876695,0.8125,0.06382979,308.22375,1387.5867,-0.2143054,0.16774487,-0.038082123,2.0205202E-4,-8.659372E-5,0.0
561.90234,586.6189,78876712,0.8,0.06382979,368.7185,902.30927,-0.2143054,0.16774487,-0.038082123,2.0205202E-4,-8.659372E-5,0.0
569.04913,594.0377,78876729,0.7875,0.07446808,422.64633,396.96027,-0.2143054,0.16774487,-0.038082123,2.0205202E-4,-8.659372E-5,0.0
577.34033,600.5381,78876746,0.8125,0.09574468,504.9869,163.64519,-0.2143054,0.16774487,-0.038082123,3.43764E-4,0.0,0.0
589.42114,601.39307,78876762,0.825,0.08510638,665.4575,3.1395912,-0.2143054,0.16774487,-0.038082123,3.43764E-4,0.0,0.0
602.926,595.4363,78876779,0.83750004,0.06382979,870.5973,-245.55415,-0.2143054,0.16774487,-0.038082123,3.43764E-4,0.0,0.0
616.3972,584.0713,78876796,0.85,0.09574468,971.4441,-677.91064,-0.2143054,0.16774487,-0.038082123,3.43764E-4,0.0,0.0
627.22754,569.776,78876812,0.83750004,0.11702127,888.0971,-1092.8882,-0.2143054,0.16774487,-0.038082123,9.63777E-5,3.855108E-5,0.0
637.1106,552.449,78876829,0.83750004,0.08510638,696.1689,-1291.7262,-0.2143054,0.16774487,-0.038082123,9.63777E-5,3.855108E-5,0.0
644.2262,537.52026,78876846,0.83750004,0.09574468,450.63858,-1256.6058,-0.2143054,0.16774487,-0.038082123,9.63777E-5,3.855108E-5,0.0
648.33417,527.40784,78876863,0.83750004,0.10638297,248.8926,-954.51117,-0.2143054,0.16774487,-0.038082123,9.63777E-5,3.855108E-5,0.0
649.2665,522.63477,78876879,0.83750004,0.12765957,24.313953,-479.57098,-0.2143054,0.16774487,-0.038082123,-0.0,0.0,0.0
649.76636,520.7882,78876896,0.83750004,0.12765957,-146.65347,31.156445,-0.2143054,0.16774487,-0.038082123,-0.0,0.0,0.0
650.1612,519.65076,78876913,0.90000004,0.12765957,-180.41714,241.0918,-0.2143054,0.16774487,-0.038082123,-0.0,0.0,0.0
650.2662,519.65076,78876929,0.925,0.11702127,-85.12838,193.85701,-0.2143054,0.16774487,-0.038082123,-0.0,0.0,0.0
651.24347,526.51965,78876946,0.8625,0.07446808,-10.7431555,286.70837,-0.2143054,0.16774487,-0.038082123,-2.3247187E-5,-2.3247187E-5,0.0
653.2499,539.9772,78876963,0.825,0.07446808,75.26698,655.3769,-0.2143054,0.16774487,-0.038082123,-2.3247187E-5,-2.3247187E-5,0.0
656.93695,564.62195,78876979,0.77500004,0.10638297,186.38153,1351.9573,-0.2143054,0.16774487,-0.038082123,-2.3247187E-5,-2.3247187E-5,0.0
660.6608,581.4835,78876996,0.7625,0.06382979,266.3292,1663.8053,-0.2143054,0.16774487,-0.038082123,-2.3247187E-5,-2.3247187E-5,0.0
665.8422,589.7285,78877013,0.7375,0.06382979,343.22644,1301.8885,-0.2143054,0.16774487,-0.038082123,2.3478453E-4,0.0,0.0
677.7173,600.7451,78877030,0.725,0.08510638,527.6791,710.9837,-0.2143054,0.16774487,-0.038082123,2.3478453E-4,0.0,0.0
706.3865,607.2272,78877046,0.7625,0.10638297,1204.315,287.22205,-0.2143054,0.16774487,-0.038082123,2.3478453E-4,0.0,0.0
732.22833,599.5217,78877063,0.71250004,0.06382979,1949.2612,-214.81302,-0.2143054,0.16774487,-0.038082123,2.3478453E-4,0.0,0.0
742.2362,595.1736,78877075,0.275,0.09574468,2010.5566,-504.8137,-0.37144423,0.21419573,-0.35046577,1.5724091E-4,7.8620455E-5,0.0
742.2362,595.1736,78877082,0.275,0.09574468,2010.5566,-504.8137,-0.37144423,0.21419573,-0.35046577,1.5724091E-4,7.8620455E-5,0.0
740.2369,626.2711,78877817,0.875,0.10638297,0.0,0.0,0.11084473,-0.10864329,0.07162666,-4.7453127E-6,4.7453127E-6,0.0
740.2369,626.2711,78877848,0.875,0.12765957,-0.04493956,-0.03640442,0.11084473,-0.10864329,0.07162666,-4.7453127E-6,4.7453127E-6,0.0
740.2369,626.2711,78877865,0.825,0.12765957,0.025945855,0.020983756,0.11084473,-0.10864329,0.07162666,-4.7453127E-6,4.7453127E-6,0.0
744.3005,590.8124,78877882,0.8125,0.09574468,213.47954,-1828.8827,0.11084473,-0.10864329,0.07162666,1.5852452E-4,-1.3210376E-4,0.0
745.302,561.05115,78877899,0.825,0.09574468,186.53293,-2406.014,0.11084473,-0.10864329,0.07162666,1.5852452E-4,-1.3210376E-4,0.0
745.0184,532.94556,78877915,0.83750004,0.11702127,116.80809,-2571.9614,0.11084473,-0.10864329,0.07162666,1.5852452E-4,-1.3210376E-4,0.0
742.16595,506.4552,78877932,0.825,0.08510638,-65.80451,-2386.054,0.11084473,-0.10864329,0.07162666,1.5852452E-4,-1.3210376E-4,0.0
738.0246,491.0952,78877949,0.825,0.07446808,-281.5733,-1537.9128,0.11084473,-0.10864329,0.07162666,0.0,0.0,0.0
734.3557,483.82214,78877965,0.825,0.08510638,-359.64658,-539.5631,0.11084473,-0.10864329,0.07162666,0.0,0.0,0.0
728.74066,478.33533,78877982,0.85,0.08510638,-376.69775,52.63377,0.11084473,-0.10864329,0.07162666,0.0,0.0,0.0
722.4525,474.69543,78877999,0.875,0.08510638,-389.62476,236.39519,0.11084473,-0.10864329,0.07162666,0.0,0.0,0.0
717.7331,474.93604,78878015,0.90000004,0.07446808,-394.36472,222.16663,0.11084473,-0.10864329,0.07162666,-0.0,0.0,0.0
714.62195,477.44482,78878032,0.8875,0.07446808,-300.41315,238.08786,0.11084473,-0.10864329,0.07162666,-0.0,0.0,0.0
713.24567,481.9807,78878049,0.875,0.07446808,-130.95892,374.60614,0.11084473,-0.10864329,0.07162666,-0.0,0.0,0.0
716.8859,485.61462,78878066,0.8625,0.06382979,115.257126,433.33954,0.11084473,-0.10864329,0.07162666,-0.0,0.0,0.0
738.4762,494.68347,78878082,0.83750004,0.08510638,751.05615,497.62274,0.11084473,-0.10864329,0.07162666,-1.342177E-5,0.0,0.0
765.37866,500.24805,78878099,0.825,0.09574468,1711.4146,511.55048,0.11084473,-0.10864329,0.07162666,-1.342177E-5,0.0,0.0
784.3323,503.90417,78878116,0.8125,0.12765957,2028.8423,405.0914,0.11084473,-0.10864329,0.07162666,-1.342177E-5,0.0,0.0
794.615,510.47412,78878132,0.825,0.11702127,1533.724,342.95004,0.11084473,-0.10864329,0.07162666,-1.342177E-5,0.0,0.0
801.1058,525.70935,78878149,0.825,0.08510638,599.7445,503.24307,-0.06332421,-0.34291482,-0.1106987,2.8649226E-4,0.0,0.0
801.53296,543.68274,78878166,0.77500004,0.09574468,-154.67102,964.4185,-0.06332421,-0.34291482,-0.1106987,2.8649226E-4,0.0,0.0
799.7573,567.5432,78878183,0.7375,0.10638297,-403.3512,1574.0365,-0.06332421,-0.34291482,-0.1106987,2.8649226E-4,0.0,0.0
797.4402,586.68713,78878199,0.7,0.07446808,-418.54242,1699.5208,-0.06332421,-0.34291482,-0.1106987,2.8649226E-4,0.0,0.0
797.8461,599.4099,78878216,0.6875,0.08510638,-299.11908,1263.5087,-0.06332421,-0.34291482,-0.1106987,7.091888E-4,2.659458E-4,0.0
799.4225,606.1996,78878233,0.7,0.12765957,-63.25771,551.7184,-0.06332421,-0.34291482,-0.1106987,7.091888E-4,2.659458E-4,0.0
820.0111,616.1533,78878250,0.7375,0.12765957,582.1243,167.19145,-0.06332421,-0.34291482,-0.1106987,7.091888E-4,2.659458E-4,0.0
857.4634,611.0663,78878266,0.77500004,0.12765957,1812.6259,-134.21138,-0.06332421,-0.34291482,-0.1106987,7.091888E-4,2.659458E-4,0.0
891.1729,590.553,78878283,0.7625,0.06382979,2802.822,-820.5067,-0.06332421,-0.34291482,-0.1106987,5.4208816E-5,7.227842E-5,0.0
931.3696,557.208,78878300,0.1875,0.08510638,3104.2922,-1993.095,-0.06332421,-0.34291482,-0.1106987,5.4208816E-5,7.227842E-5,0.0
931.3696,557.208,78878308,0.1875,0.08510638,3104.2922,-1993.095,-0.06332421,-0.34291482,-0.1106987,5.4208816E-5,7.227842E-5,0.0
881.69086,606.7241,78883172,0.65000004,0.08510638,0.0,0.0,0.045472145,-0.12494254,0.09543133,1.342177E-5,0.0,0.0
881.69086,606.7241,78883196,0.725,0.08510638,0.018471291,0.009788519,0.045472145,-0.12494254,0.09543133,1.342177E-5,0.0,0.0
881.69086,606.7241,78883212,0.77500004,0.08510638,0.00678974,0.008287664,0.045472145,-0.12494254,0.09543133,0.0,0.0,0.0
881.69086,606.7241,78883224,0.8125,0.08510638,0.04228002,0.02853369,0.045472145,-0.12494254,0.09543133,0.0,0.0,0.0
881.69086,606.7241,78883245,0.825,0.08510638,-0.024751347,-0.017252978,0.045472145,-0.12494254,0.09543133,0.0,0.0,0.0
881.69086,606.7241,78883263,0.83750004,0.08510638,0.059211146,0.041225415,0.045472145,-0.12494254,0.09543133,0.0,0.0,0.0
881.69086,606.7241,78883275,0.85,0.08510638,-0.073545516,-0.048233382,0.045472145,-0.12494254,0.09543133,3.355443E-6,0.0,0.0
881.69086,606.7241,78883292,0.8625,0.08510638,-0.050994914,-0.03400275,0.045472145,-0.12494254,0.09543133,3.355443E-6,0.0,0.0
881.69086,606.7241,78883313,0.875,0.08510638,0.01359564,0.007899843,0.045472145,-0.12494254,0.09543133,3.355443E-6,0.0,0.0
881.69086,606.7241,78883329,0.8625,0.08510638,0.036959533,0.023249244,0.045472145,-0.12494254,0.09543133,3.355443E-6,0.0,0.0
881.69086,606.7241,78883346,0.8625,0.07446808,-0.05278187,-0.0366052,0.045472145,-0.12494254,0.09543133,3.355443E-6,0.0,0.0
881.69086,606.7241,78883360,0.8625,0.06382979,-0.033993687,-0.023173474,0.045472145,-0.12494254,0.09543133,3.355443E-6,0.0,0.0
881.69086,606.7241,78883380,0.85,0.06382979,-0.03420428,-0.022485334,0.045472145,-0.12494254,0.09543133,3.355443E-6,0.0,0.0
891.2292,589.7688,78883396,0.83750004,0.10638297,303.7171,-539.80066,0.045472145,-0.12494254,0.09543133,3.355443E-6,0.0,0.0
902.70764,574.9497,78883413,0.8125,0.12765957,661.5094,-1014.41815,0.045472145,-0.12494254,0.09543133,4.7453127E-6,0.0,0.0
914.7122,560.1876,78883430,0.8125,0.09574468,942.3643,-1293.2417,0.045472145,-0.12494254,0.09543133,4.7453127E-6,0.0,0.0
926.7359,545.1786,78883446,0.825,0.06382979,1004.90045,-1258.2012,0.045472145,-0.12494254,0.09543133,4.7453127E-6,0.0,0.0
938.41327,529.1034,78883463,0.83750004,0.09574468,793.4518,-934.9942,0.045472145,-0.12494254,0.09543133,4.7453127E-6,0.0,0.0
951.23785,512.5842,78883480,0.8125,0.10638297,763.2281,-941.6043,0.06837773,-0.083954096,0.076345444,0.0,-0.0,0.0
965.3357,493.10217,78883496,0.83750004,0.08510638,826.94867,-1140.3898,0.06837773,-0.083954096,0.076345444,0.0,-0.0,0.0
978.2826,473.73413,78883513,0.825,0.12765957,868.5129,-1256.1306,0.06837773,-0.083954096,0.076345444,0.0,-0.0,0.0
989.23926,454.6416,78883530,0.8125,0.08510638,779.30414,-1254.3914,0.06837773,-0.083954096,0.076345444,0.0,-0.0,0.0
999.9148,435.021,78883547,0.8,0.06382979,634.08765,-1218.3118,0.06837773,-0.083954096,0.076345444,3.0011981E-5,0.0,0.0
1011.3635,409.443,78883563,0.8125,0.12765957,579.28766,-1345.8805,0.06837773,-0.083954096,0.076345444,3.0011981E-5,0.0,0.0
1016.9075,393.4452,78883580,0.8125,0.09574468,472.10406,-1319.8007,0.06837773,-0.083954096,0.076345444,3.0011981E-5,0.0,0.0
1020.6067,379.54443,78883597,0.8,0.08510638,265.8693,-1026.4883,0.06837773,-0.083954096,0.076345444,3.0011981E-5,0.0,0.0
1023.19226,364.67163,78883613,0.7875,0.12765957,44.355904,-740.44226,0.06837773,-0.083954096,0.076345444,0.0,0.0,0.0
1025.264,350.97766,78883630,0.7875,0.11702127,-54.24168,-634.7896,0.06837773,-0.083954096,0.076345444,0.0,0.0,0.0
1026.2428,336.1001,78883647,0.7875,0.08510638,-47.205513,-733.24286,0.06837773,-0.083954096,0.076345444,0.0,0.0,0.0
1026.6437,321.33826,78883664,0.7875,0.08510638,-16.775236,-875.68036,0.06837773,-0.083954096,0.076345444,0.0,0.0,0.0
1026.6437,309.62744,78883680,0.7875,0.12765957,-37.647057,-797.7922,0.06837773,-0.083954096,0.076345444,0.0,0.0,0.0
1025.9235,296.5603,78883697,0.7875,0.11702127,-66.15265,-741.3999,0.06837773,-0.083954096,0.076345444,0.0,0.0,0.0
1024.6237,284.9757,78883714,0.8125,0.08510638,-94.05712,-689.6653,0.06837773,-0.083954096,0.076345444,0.0,0.0,0.0
1023.3456,274.4314,78883730,0.825,0.08510638,-117.87853,-633.2982,0.06837773,-0.083954096,0.076345444,0.0,0.0,0.0
1022.3059,265.1908,78883747,0.8,0.09574468,-106.40164,-564.02203,0.06837773,-0.083954096,0.076345444,3.355443E-6,0.0,0.0
1020.7693,253.53076,78883764,0.8125,0.12765957,-95.57573,-534.31384,0.06837773,-0.083954096,0.076345444,3.355443E-6,0.0,0.0
1019.3168,242.3075,78883781,0.8,0.12765957,-82.914185,-627.0086,0.06837773,-0.083954096,0.076345444,3.355443E-6,0.0,0.0
1017.2351,233.86707,78883797,0.8,0.09574468,-106.57621,-630.45544,0.06837773,-0.083954096,0.076345444,3.355443E-6,0.0,0.0
1015.15234,227.34656,78883814,0.8,0.07446808,-138.0792,-495.71088,0.06837773,-0.083954096,0.076345444,0.0,0.0,0.0
1012.03894,220.91919,78883831,0.8,0.07446808,-172.90245,-319.37518,0.06837773,-0.083954096,0.076345444,0.0,0.0,0.0
1009.4999,215.38452,78883847,0.8,0.07446808,-191.47246,-228.54236,0.06837773,-0.083954096,0.076345444,0.0,0.0,0.0
1007.423,211.82556,78883864,0.8125,0.08510638,-167.93909,-190.58437,0.06837773,-0.083954096,0.076345444,0.0,0.0,0.0
1004.20386,208.14502,78883881,0.8,0.08510638,-164.32266,-164.2443,0.06837773,-0.083954096,0.076345444,3.355443E-6,0.0,0.0
1001.07874,204.44153,78883897,0.8125,0.10638297,-175.29602,-149.99156,0.06837773,-0.083954096,0.076345444,3.355443E-6,0.0,0.0
997.46436,199.86206,78883914,0.825,0.12765957,-218.09944,-207.05956,0.06837773,-0.083954096,0.076345444,3.355443E-6,0.0,0.0
994.07983,196.16943,78883931,0.825,0.12765957,-236.84712,-249.6125,0.06837773,-0.083954096,0.076345444,3.355443E-6,0.0,0.0
990.4215,192.47375,78883948,0.83750004,0.12765957,-227.61142,-242.55998,0.06837773,-0.083954096,0.076345444,0.0,4.7453127E-6,0.0
986.6046,188.76953,78883964,0.8125,0.12765957,-233.6196,-217.86931,0.06837773,-0.083954096,0.076345444,0.0,4.7453127E-6,0.0
982.59155,186.65466,78883981,0.8125,0.12765957,-237.91644,-164.14139,0.06837773,-0.083954096,0.076345444,0.0,4.7453127E-6,0.0
979.3854,184.81909,78883998,0.8125,0.12765957,-227.54108,-103.17616,0.06837773,-0.083954096,0.076345444,0.0,4.7453127E-6,0.0
976.26465,182.9701,78884014,0.8125,0.12765957,-194.70654,-64.41475,0.022702217,-0.019163132,-0.010924339,0.0,0.0,0.0
973.12683,181.11072,78884031,0.83750004,0.12765957,-171.85397,-64.28588,0.022702217,-0.019163132,-0.010924339,0.0,0.0,0.0
968.88794,181.13098,78884048,0.83750004,0.12765957,-197.09456,-36.97742,0.022702217,-0.019163132,-0.010924339,0.0,0.0,0.0
965.7731,181.13098,78884065,0.85,0.12765957,-211.89565,3.8679366,0.022702217,-0.019163132,-0.010924339,0.0,0.0,0.0
962.1997,181.13098,78884081,0.83750004,0.12765957,-229.52113,43.96423,0.022702217,-0.019163132,-0.010924339,-4.7453127E-6,4.7453127E-6,0.0
958.38464,181.13098,78884098,0.83750004,0.10638297,-226.14929,47.155922,0.022702217,-0.019163132,-0.010924339,-4.7453127E-6,4.7453127E-6,0.0
955.5444,181.13098,78884115,0.83750004,0.10638297,-204.07823,22.306055,0.022702217,-0.019163132,-0.010924339,-4.7453127E-6,4.7453127E-6,0.0
952.17596,181.57166,78884131,0.85,0.10638297,-191.60728,7.5052524,0.022702217,-0.019163132,-0.010924339,-4.7453127E-6,4.7453127E-6,0.0
949.1091,183.4054,78884148,0.85,0.10638297,-184.81657,68.78161,0.022702217,-0.019163132,-0.010924339,0.0,-0.0,0.0
946.1935,185.2633,78884165,0.85,0.10638297,-171.89006,132.78055,0.022702217,-0.019163132,-0.010924339,0.0,-0.0,0.0
943.44116,187.11035,78884182,0.8625,0.10638297,-162.72081,162.90204,0.022702217,-0.019163132,-0.010924339,0.0,-0.0,0.0
940.4803,188.94482,78884198,0.83750004,0.09574468,-154.72488,150.48137,0.022702217,-0.019163132,-0.010924339,0.0,-0.0,0.0
937.34406,191.59009,78884215,0.825,0.10638297,-168.42162,134.73581,0.022702217,-0.019163132,-0.010924339,-1.6438245E-5,8.219123E-6,0.0
933.76086,195.26978,78884232,0.825,0.08510638,-199.29956,185.67647,0.022702217,-0.019163132,-0.010924339,-1.6438245E-5,8.219123E-6,0.0
929.5913,198.97571,78884248,0.825,0.09574468,-239.14348,246.90271,0.022702217,-0.019163132,-0.010924339,-1.6438245E-5,8.219123E-6,0.0
925.38416,201.77454,78884265,0.825,0.09574468,-269.211,241.1949,0.022702217,-0.019163132,-0.010924339,-1.6438245E-5,8.219123E-6,0.0
920.7669,205.48596,78884282,0.83750004,0.08510638,-293.9195,227.12334,0.022702217,-0.019163132,-0.010924339,4.7453127E-6,-4.7453127E-6,0.0
916.61426,209.17676,78884299,0.83750004,0.08510638,-290.14972,214.25128,0.022702217,-0.019163132,-0.010924339,4.7453127E-6,-4.7453127E-6,0.0
912.45435,212.87415,78884315,0.8,0.08510638,-269.26886,222.8274,0.022702217,-0.019163132,-0.010924339,4.7453127E-6,-4.7453127E-6,0.0
908.59076,216.55835,78884332,0.825,0.08510638,-239.1894,236.22427,0.022702217,-0.019163132,-0.010924339,4.7453127E-6,-4.7453127E-6,0.0
904.40106,220.26343,78884349,0.825,0.09574468,-226.67891,222.58086,0.022702217,-0.019163132,-0.010924339,-4.2707805E-5,4.2707805E-5,0.0
900.9806,223.96045,78884365,0.83750004,0.09574468,-217.88474,222.05716,0.022702217,-0.019163132,-0.010924339,-4.2707805E-5,4.2707805E-5,0.0
897.6636,226.16162,78884382,0.83750004,0.10638297,-198.5082,184.11543,0.022702217,-0.019163132,-0.010924339,-4.2707805E-5,4.2707805E-5,0.0
894.1365,230.28784,78884399,0.8125,0.10638297,-186.2764,163.95056,0.022702217,-0.019163132,-0.010924339,-4.2707805E-5,4.2707805E-5,0.0
890.3352,235.19897,78884416,0.83750004,0.10638297,-205.41208,245.6544,0.022702217,-0.019163132,-0.010924339,4.2707805E-5,0.0,0.0
886.37836,240.39209,78884432,0.8,0.09574468,-225.5774,304.55725,0.022702217,-0.019163132,-0.010924339,4.2707805E-5,0.0,0.0
883.18054,246.00916,78884449,0.825,0.08510638,-223.61818,375.15424,0.022702217,-0.019163132,-0.010924339,4.2707805E-5,0.0,0.0
880.0646,250.65967,78884466,0.8125,0.08510638,-200.78549,354.1472,0.022702217,-0.019163132,-0.010924339,4.2707805E-5,0.0,0.0
877.5407,256.16895,78884482,0.825,0.07446808,-157.3481,323.6885,0.022702217,-0.019163132,-0.010924339,0.0,0.0,0.0
875.4342,261.7859,78884499,0.8125,0.07446808,-123.99298,335.918,0.022702217,-0.019163132,-0.010924339,0.0,0.0,0.0
872.26654,267.1869,78884516,0.8,0.08510638,-125.92609,326.23495,0.022702217,-0.019163132,-0.010924339,0.0,0.0,0.0
869.82916,271.84412,78884533,0.8,0.09574468,-139.71637,299.10828,0.022702217,-0.019163132,-0.010924339,0.0,0.0,0.0
867.4802,277.4718,78884549,0.7875,0.09574468,-153.93527,303.78363,0.06616163,-0.079330444,-0.02474022,0.0,0.0,0.0
865.178,282.02478,78884566,0.7875,0.12765957,-148.94066,304.0255,0.06616163,-0.079330444,-0.02474022,0.0,0.0,0.0
863.39606,286.68896,78884583,0.7875,0.12765957,-121.054344,288.9686,0.06616163,-0.079330444,-0.02474022,0.0,0.0,0.0
861.85205,291.64404,78884599,0.7875,0.12765957,-92.06689,284.04196,0.06616163,-0.079330444,-0.02474022,0.0,0.0,0.0
860.8119,296.9159,78884616,0.7875,0.11702127,-48.636177,264.09433,0.06616163,-0.079330444,-0.02474022,-1.5005995E-5,7.5029975E-6,0.0
859.76013,302.52454,78884633,0.7875,0.09574468,-37.04897,326.57074,0.06616163,-0.079330444,-0.02474022,-1.5005995E-5,7.5029975E-6,0.0
858.22174,308.91028,78884650,0.8125,0.08510638,-54.268303,370.05353,0.06616163,-0.079330444,-0.02474022,-1.5005995E-5,7.5029975E-6,0.0
857.69867,315.45667,78884666,0.825,0.08510638,-53.65543,402.1376,0.06616163,-0.079330444,-0.02474022,-1.5005995E-5,7.5029975E-6,0.0
857.69867,320.99878,78884683,0.825,0.08510638,-19.111492,398.1303,0.06616163,-0.079330444,-0.02474022,0.0,0.0,0.0
857.69867,325.58875,78884700,0.8125,0.09574468,16.546022,334.1572,0.06616163,-0.079330444,-0.02474022,0.0,0.0,0.0
858.34595,330.0354,78884716,0.8,0.11702127,49.892757,274.98737,0.06616163,-0.079330444,-0.02474022,0.0,0.0,0.0
858.1985,335.9132,78884733,0.7875,0.12765957,43.883118,262.98926,0.06616163,-0.079330444,-0.02474022,0.0,0.0,0.0
859.4044,340.75122,78884750,0.7875,0.12765957,49.00489,272.82446,0.06616163,-0.079330444,-0.02474022,0.0,0.0,0.0
860.45184,346.8589,78884766,0.8,0.12765957,72.82207,352.55017,0.06616163,-0.079330444,-0.02474022,0.0,0.0,0.0
861.4938,352.41504,78884783,0.8,0.11702127,83.477036,368.5049,0.06616163,-0.079330444,-0.02474022,0.0,0.0,0.0
862.0284,358.23145,78884800,0.8,0.09574468,66.77466,373.975,0.06616163,-0.079330444,-0.02474022,0.0,0.0,0.0
862.5539,364.28784,78884817,0.8,0.08510638,31.51189,358.7127,0.06616163,-0.079330444,-0.02474022,3.355443E-6,0.0,0.0
863.0959,369.13477,78884833,0.8125,0.08510638,15.350632,320.36502,0.06616163,-0.079330444,-0.02474022,3.355443E-6,0.0,0.0
863.64,372.84607,78884850,0.8125,0.08510638,17.306078,264.75647,0.06616163,-0.079330444,-0.02474022,3.355443E-6,0.0,0.0
864.68744,376.56995,78884867,0.8125,0.08510638,41.190052,188.6882,0.06616163,-0.079330444,-0.02474022,3.355443E-6,0.0,0.0
864.69635,380.35962,78884883,0.825,0.09574468,38.018612,166.23041,0.06616163,-0.079330444,-0.02474022,0.0,0.0,0.0
865.1962,383.00146,78884900,0.8,0.09574468,28.32164,156.16252,0.06616163,-0.079330444,-0.02474022,0.0,0.0,0.0
865.69604,385.90173,78884917,0.8125,0.11702127,22.124271,159.76277,0.06616163,-0.079330444,-0.02474022,0.0,0.0,0.0
866.19586,388.59644,78884933,0.8125,0.11702127,22.565165,149.02254,0.06616163,-0.079330444,-0.02474022,0.0,0.0,0.0
866.8993,390.29114,78884950,0.8125,0.11702127,29.970896,114.15451,0.06616163,-0.079330444,-0.02474022,1.5005995E-5,-7.5029975E-6,0.0
867.4242,392.1128,78884967,0.83750004,0.12765957,32.426617,91.83119,0.06616163,-0.079330444,-0.02474022,1.5005995E-5,-7.5029975E-6,0.0
867.8959,393.8396,78884984,0.825,0.12765957,36.781914,81.86884,0.06616163,-0.079330444,-0.02474022,1.5005995E-5,-7.5029975E-6,0.0
868.9734,396.24976,78885000,0.83750004,0.12765957,52.04248,96.55493,0.06616163,-0.079330444,-0.02474022,1.5005995E-5,-7.5029975E-6,0.0
870.00464,398.47656,78885017,0.83750004,0.12765957,67.43939,140.03185,0.06616163,-0.079330444,-0.02474022,0.0,0.0,0.0
870.1946,400.29773,78885034,0.83750004,0.12765957,50.207897,135.01604,0.06616163,-0.079330444,-0.02474022,0.0,0.0,0.0
870.6944,402.16003,78885051,0.825,0.12765957,26.296146,116.32007,0.06616163,-0.079330444,-0.02474022,0.0,0.0,0.0
870.6944,402.3683,78885064,0.83750004,0.12765957,8.257741,78.55757,0.06616163,-0.079330444,-0.02474022,0.0,0.0,0.0
871.1943,403.25684,78885084,0.83750004,0.11702127,-2.7691398,18.763514,0.068929434,-0.079464436,-0.019792557,0.0,0.0,0.0
872.2422,405.11963,78885101,0.83750004,0.11702127,32.15152,39.683044,0.068929434,-0.079464436,-0.019792557,0.0,0.0,0.0
872.1939,406.3667,78885112,0.83750004,0.10638297,35.931473,54.85181,0.068929434,-0.079464436,-0.019792557,0.0,0.0,0.0
872.1939,405.92236,78885134,0.8625,0.10638297,7.5041337,28.995665,0.068929434,-0.079464436,-0.019792557,0.0,0.0,0.0
872.9437,407.255,78885146,0.83750004,0.10638297,14.438953,37.770245,0.068929434,-0.079464436,-0.019792557,0.0,0.0,0.0
873.3985,408.0636,78885168,0.85,0.11702127,24.528368,27.457092,0.068929434,-0.079464436,-0.019792557,0.0,0.0,0.0
873.6934,409.91077,78885184,0.825,0.10638297,35.22538,78.97155,0.068929434,-0.079464436,-0.019792557,0.0,0.0,0.0
873.6934,410.36487,78885201,0.85,0.10638297,18.655863,102.07079,0.068929434,-0.079464436,-0.019792557,0.0,0.0,0.0
873.6934,410.36487,78885218,0.85,0.10638297,-10.614215,29.127714,0.068929434,-0.079464436,-0.019792557,0.0,0.0,0.0
873.6934,410.36487,78885234,0.8625,0.08510638,-12.451269,-10.822019,0.068929434,-0.079464436,-0.019792557,0.0,0.0,0.0
873.6934,410.36487,78885250,0.85,0.08510638,-8.665527,-39.57022,0.068929434,-0.079464436,-0.019792557,0.0,0.0,0.0
874.1933,411.25342,78885285,0.83750004,0.08510638,16.76213,29.79669,0.068929434,-0.079464436,-0.019792557,0.0,-0.0,0.0
874.1933,412.14185,78885301,0.8625,0.08510638,12.368222,50.702126,0.068929434,-0.079464436,-0.019792557,0.0,-0.0,0.0
874.1933,412.14185,78885313,0.85,0.08510638,5.710704,44.89285,0.068929434,-0.079464436,-0.019792557,0.0,-0.0,0.0
874.9094,412.52637,78885385,0.8625,0.08510638,59.74333,146.52736,0.068929434,-0.079464436,-0.019792557,0.0,0.0,0.0
875.19293,413.0304,78885401,0.875,0.08510638,-19.62924,17.288227,0.068929434,-0.079464436,-0.019792557,0.0,0.0,0.0
875.19293,413.0304,78885418,0.85,0.08510638,-27.453827,-18.876987,0.068929434,-0.079464436,-0.019792557,0.0,0.0,0.0
875.19293,413.61,78885435,0.85,0.08510638,-22.49182,-1.1785008,0.068929434,-0.079464436,-0.019792557,0.0,0.0,0.0
875.19293,413.91882,78885452,0.85,0.08510638,-17.238308,20.600706,0.068929434,-0.079464436,-0.019792557,0.0,0.0,0.0
875.19293,413.91882,78885468,0.8625,0.08510638,-15.118712,12.728108,0.068929434,-0.079464436,-0.019792557,0.0,0.0,0.0
875.19293,413.91882,78885485,0.875,0.08510638,0.027744137,8.709422,0.068929434,-0.079464436,-0.019792557,0.0,0.0,0.0
875.6928,413.91882,78885502,0.8625,0.08510638,14.875009,-10.026117,0.068929434,-0.079464436,-0.019792557,0.0,0.0,0.0
876.1926,414.80737,78885518,0.8625,0.08510638,33.590782,16.380344,0.068929434,-0.079464436,-0.019792557,0.0,0.0,0.0
876.1926,414.80737,78885530,0.85,0.08510638,31.654505,23.851757,0.068929434,-0.079464436,-0.019792557,0.0,0.0,0.0
876.1926,414.80737,78885550,0.8625,0.08510638,15.534411,23.403988,0.068929434,-0.079464436,-0.019792557,0.0,0.0,0.0
876.1926,414.80737,78885569,0.8625,0.08510638,-9.227043,-1.8779336,0.068929434,-0.079464436,-0.019792557,0.0,0.0,0.0
876.1926,416.14014,78885580,0.85,0.08510638,-17.504694,15.116891,0.068929434,-0.079464436,-0.019792557,0.0,0.0,0.0
876.1926,415.69592,78885602,0.875,0.08510638,-0.022808481,28.321491,0.068929434,-0.079464436,-0.019792557,0.0,0.0,0.0
876.1926,415.69592,78885619,0.8625,0.08510638,0.017091934,13.222189,0.02314353,4.284382E-4,-0.015833855,-3.355443E-6,0.0,0.0
876.9592,416.17004,78885635,0.85,0.08510638,22.807423,-6.271992,0.02314353,4.284382E-4,-0.015833855,-3.355443E-6,0.0,0.0
877.1923,416.58435,78885652,0.8625,0.08510638,37.702778,14.448142,0.02314353,4.284382E-4,-0.015833855,-3.355443E-6,0.0,0.0
877.1923,416.58435,78885669,0.85,0.08510638,27.476343,31.88586,0.02314353,4.284382E-4,-0.015833855,-3.355443E-6,0.0,0.0
877.1923,416.58435,78885686,0.83750004,0.07446808,2.4561303,7.606002,0.02314353,4.284382E-4,-0.015833855,1.342177E-5,0.0,0.0
878.15924,417.4148,78885702,0.83750004,0.07446808,9.104581,5.852631,0.02314353,4.284382E-4,-0.015833855,1.342177E-5,0.0,0.0
878.69275,418.36304,78885719,0.8625,0.07446808,37.05803,45.109875,0.02314353,4.284382E-4,-0.015833855,1.342177E-5,0.0,0.0
878.69183,419.3352,78885736,0.83750004,0.07446808,40.47421,78.6678,0.02314353,4.284382E-4,-0.015833855,1.342177E-5,0.0,0.0
878.69183,419.24988,78885752,0.83750004,0.07446808,13.627744,56.890255,0.02314353,4.284382E-4,-0.015833855,-4.7453127E-6,4.7453127E-6,0.0
878.69183,419.24988,78885769,0.83750004,0.07446808,-12.952292,10.831878,0.02314353,4.284382E-4,-0.015833855,-4.7453127E-6,4.7453127E-6,0.0
878.69183,419.24988,78885781,0.85,0.07446808,-21.350254,-13.103443,0.02314353,4.284382E-4,-0.015833855,-4.7453127E-6,4.7453127E-6,0.0
879.19165,420.13843,78885803,0.83750004,0.07446808,7.6893897,2.0277314,0.02314353,4.284382E-4,-0.015833855,-4.7453127E-6,4.7453127E-6,0.0
879.69147,421.02686,78885819,0.83750004,0.07446808,32.999798,49.080788,0.02314353,4.284382E-4,-0.015833855,0.0,0.0,0.0
879.69147,421.02686,78885836,0.83750004,0.07446808,29.047363,51.68088,0.02314353,4.284382E-4,-0.015833855,0.0,0.0,0.0
880.5168,422.4939,78885853,0.8125,0.06382979,30.008081,53.282288,0.02314353,4.284382E-4,-0.015833855,0.0,0.0,0.0
881.12366,423.57275,78885869,0.825,0.07446808,37.741314,67.01597,0.02314353,4.284382E-4,-0.015833855,0.0,0.0,0.0
881.191,423.69238,78885885,0.8125,0.06382979,31.161913,55.402176,0.02314353,4.284382E-4,-0.015833855,0.0,0.0,0.0
882.1329,425.36658,78885903,0.825,0.06382979,37.445244,66.56419,0.02314353,4.284382E-4,-0.015833855,0.0,0.0,0.0
882.1907,427.20984,78885920,0.825,0.07446808,24.566956,86.50619,0.02314353,4.284382E-4,-0.015833855,0.0,0.0,0.0
882.1907,428.1349,78885936,0.825,0.07446808,0.39635742,92.4551,0.02314353,4.284382E-4,-0.015833855,0.0,0.0,0.0
882.1907,428.1349,78885953,0.8125,0.06382979,-6.9017906,55.190105,0.02314353,4.284382E-4,-0.015833855,1.5005995E-5,-7.5029975E-6,0.0
882.1907,428.1349,78885964,0.825,0.06382979,-12.876909,14.080437,0.02314353,4.284382E-4,-0.015833855,1.5005995E-5,-7.5029975E-6,0.0
882.6905,429.02344,78885984,0.8125,0.06382979,-2.7026718,-24.698257,0.02314353,4.284382E-4,-0.015833855,1.5005995E-5,-7.5029975E-6,0.0
883.4403,431.68896,78886001,0.8125,0.06382979,35.360317,54.12669,0.02314353,4.284382E-4,-0.015833855,1.5005995E-5,-7.5029975E-6,0.0
884.1311,431.5841,78886020,0.825,0.07446808,48.0797,71.1433,0.02314353,4.284382E-4,-0.015833855,0.0,0.0,0.0
885.43024,433.89355,78886036,0.83750004,0.06382979,75.24227,103.34803,0.02314353,4.284382E-4,-0.015833855,0.0,0.0,0.0
886.48474,435.76794,78886053,0.8125,0.08510638,82.21111,124.50643,0.02314353,4.284382E-4,-0.015833855,0.0,0.0,0.0
887.5094,437.58936,78886070,0.8,0.08510638,77.13011,137.65356,0.02314353,4.284382E-4,-0.015833855,0.0,0.0,0.0
888.5354,439.4132,78886087,0.8,0.09574468,68.31675,140.31374,0.02314353,4.284382E-4,-0.015833855,0.0,0.0,0.0
889.98236,441.27966,78886103,0.8,0.09574468,63.177006,99.791115,0.02314353,4.284382E-4,-0.015833855,0.0,0.0,0.0
891.629,443.1355,78886120,0.7875,0.10638297,94.52979,109.202286,0.02314353,4.284382E-4,-0.015833855,0.0,0.0,0.0
894.1755,446.78345,78886137,0.8,0.12765957,133.12003,162.29839,0.02314353,4.284382E-4,-0.015833855,0.0,0.0,0.0
897.398,452.50183,78886153,0.7875,0.12765957,184.48413,274.46268,0.050514936,-0.015657187,0.051332474,0.0,0.0,0.0
899.46906,457.07178,78886170,0.7875,0.10638297,188.1621,352.46704,0.050514936,-0.015657187,0.051332474,0.0,0.0,0.0
900.4347,459.67676,78886187,0.77500004,0.10638297,129.05266,310.51984,0.050514936,-0.015657187,0.051332474,0.0,0.0,0.0
901.43445,461.45374,78886203,0.77500004,0.08510638,70.54808,195.95805,0.050514936,-0.015657187,0.051332474,0.0,0.0,0.0
903.00244,464.2411,78886220,0.7875,0.08510638,33.850502,89.46249,0.050514936,-0.015657187,0.051332474,0.0,0.0,0.0
904.6815,466.339,78886237,0.77500004,0.09574468,76.204506,87.38339,0.050514936,-0.015657187,0.051332474,0.0,0.0,0.0
907.22986,469.97876,78886254,0.7625,0.08510638,143.42844,169.6788,0.050514936,-0.015657187,0.051332474,0.0,0.0,0.0
909.3127,472.7926,78886270,0.77500004,0.08510638,158.24715,201.94147,0.050514936,-0.015657187,0.051332474,0.0,0.0,0.0
911.7418,475.59375,78886287,0.7625,0.08510638,149.29846,181.42302,0.050514936,-0.015657187,0.051332474,3.355443E-6,0.0,0.0
914.96106,478.58508,78886304,0.7875,0.08510638,175.6251,182.8866,0.050514936,-0.015657187,0.051332474,3.355443E-6,0.0,0.0
918.39325,480.4297,78886321,0.77500004,0.08510638,204.82973,150.1299,0.050514936,-0.015657187,0.051332474,3.355443E-6,0.0,0.0
921.58215,482.27698,78886337,0.7875,0.07446808,229.68715,101.84462,0.050514936,-0.015657187,0.051332474,3.355443E-6,0.0,0.0
924.7141,484.1272,78886354,0.77500004,0.07446808,212.0703,85.61884,0.050514936,-0.015657187,0.051332474,0.0,0.0,0.0
928.8757,484.1106,78886371,0.8,0.06382979,223.15988,31.545195,0.050514936,-0.015657187,0.051332474,0.0,0.0,0.0
932.8381,484.1106,78886387,0.7875,0.06382979,247.79428,-13.919177,0.050514936,-0.015657187,0.051332474,0.0,0.0,0.0
937.53925,484.1106,78886404,0.77500004,0.06382979,267.79718,-44.763325,0.050514936,-0.015657187,0.051332474,0.0,0.0,0.0
942.1155,484.1106,78886421,0.7875,0.06382979,295.81363,-48.295036,0.050514936,-0.015657187,0.051332474,0.0,0.0,0.0
946.90735,482.8556,78886438,0.77500004,0.06382979,298.8051,-49.747818,0.050514936,-0.015657187,0.051332474,0.0,0.0,0.0
952.354,479.7135,78886454,0.8,0.07446808,339.71786,-132.57494,0.050514936,-0.015657187,0.051332474,0.0,0.0,0.0
959.4595,475.47388,78886471,0.7875,0.09574468,396.17026,-262.03494,0.050514936,-0.015657187,0.051332474,0.0,0.0,0.0
968.39343,470.05408,78886488,0.8,0.11702127,502.96942,-380.74857,0.050514936,-0.015657187,0.051332474,0.0,0.0,0.0
980.4193,462.13342,78886504,0.7875,0.12765957,679.6454,-485.54166,0.050514936,-0.015657187,0.051332474,0.0,0.0,0.0
993.0514,452.4569,78886521,0.8125,0.09574468,824.299,-590.00494,0.050514936,-0.015657187,0.051332474,0.0,0.0,0.0
1007.2964,442.11255,78886538,0.8125,0.08510638,954.363,-707.759,0.050514936,-0.015657187,0.051332474,0.0,0.0,0.0
1024.8231,429.25842,78886555,0.825,0.08510638,1050.2212,-807.3889,0.050514936,-0.015657187,0.051332474,0.0,-3.613921E-5,0.0
1042.0253,417.2057,78886571,0.8,0.10638297,1134.2786,-841.11694,0.050514936,-0.015657187,0.051332474,0.0,-3.613921E-5,0.0
1060.3027,401.38977,78886588,0.8,0.10638297,1192.3015,-926.8545,0.050514936,-0.015657187,0.051332474,0.0,-3.613921E-5,0.0
1079.9703,385.953,78886605,0.8,0.08510638,1232.2146,-997.3998,0.050514936,-0.015657187,0.051332474,0.0,-3.613921E-5,0.0
1099.1205,372.1067,78886621,0.8,0.08510638,1232.6063,-985.2576,0.050514936,-0.015657187,0.051332474,-1.0610839E-5,0.0,0.0
1121.3302,358.7213,78886638,0.7625,0.12765957,1272.9061,-895.5958,0.050514936,-0.015657187,0.051332474,-1.0610839E-5,0.0,0.0
1145.0055,349.66223,78886655,0.77500004,0.12765957,1408.3666,-701.4436,0.050514936,-0.015657187,0.051332474,-1.0610839E-5,0.0,0.0
1162.5082,345.47095,78886671,0.8,0.10638297,1346.743,-333.30426,0.050514936,-0.015657187,0.051332474,-1.0610839E-5,0.0,0.0
1176.7164,345.11987,78886688,0.77500004,0.12765957,1050.313,21.317488,0.024411917,0.0034742355,-0.08693409,3.183252E-5,-1.0610839E-5,0.0
1185.321,347.5244,78886705,0.7875,0.12765957,571.9462,320.95483,0.024411917,0.0034742355,-0.08693409,3.183252E-5,-1.0610839E-5,0.0
1190.5138,349.69055,78886722,0.7875,0.12765957,138.35313,419.09366,0.024411917,0.0034742355,-0.08693409,3.183252E-5,-1.0610839E-5,0.0
1192.5061,351.5752,78886738,0.8,0.11702127,-84.68232,338.70782,0.024411917,0.0034742355,-0.08693409,3.183252E-5,-1.0610839E-5,0.0
1194.0298,357.5216,78886755,0.8125,0.09574468,-167.555,300.25143,0.024411917,0.0034742355,-0.08693409,0.0,0.0,0.0
1193.5967,364.9978,78886772,0.825,0.08510638,-183.31985,404.60214,0.024411917,0.0034742355,-0.08693409,0.0,0.0,0.0
1190.4802,369.6239,78886788,0.7625,0.08510638,-226.30666,469.7413,0.024411917,0.0034742355,-0.08693409,0.0,0.0,0.0
1179.9977,380.38025,78886805,0.7625,0.09574468,-468.11664,562.3852,0.024411917,0.0034742355,-0.08693409,0.0,0.0,0.0
1152.8479,407.6853,78886822,0.7875,0.09574468,-1226.1929,1138.4595,0.024411917,0.0034742355,-0.08693409,5.2520743E-4,-5.2520743E-5,0.0
1129.1512,428.54272,78886839,0.8,0.07446808,-1857.9612,1595.7517,0.024411917,0.0034742355,-0.08693409,5.2520743E-4,-5.2520743E-5,0.0
1103.1528,443.91382,78886855,0.8,0.10638297,-2109.057,1626.2158,0.024411917,0.0034742355,-0.08693409,5.2520743E-4,-5.2520743E-5,0.0
1075.5826,459.8723,78886872,0.83750004,0.10638297,-1936.467,1144.6239,0.024411917,0.0034742355,-0.08693409,5.2520743E-4,-5.2520743E-5,0.0
1050.1313,474.15442,78886889,0.825,0.07446808,-1647.3335,680.2153,0.024411917,0.0034742355,-0.08693409,-0.0,0.0,0.0
1025.3624,487.98242,78886905,0.8125,0.08510638,-1577.2482,692.03784,0.024411917,0.0034742355,-0.08693409,-0.0,0.0,0.0
1000.85266,499.7035,78886922,0.85,0.09574468,-1458.0208,684.6496,0.024411917,0.0034742355,-0.08693409,-0.0,0.0,0.0
976.0709,512.6738,78886939,0.8125,0.12765957,-1408.3647,667.2384,0.024411917,0.0034742355,-0.08693409,-0.0,0.0,0.0
955.2806,523.29675,78886956,0.83750004,0.08510638,-1329.8965,638.2381,0.024411917,0.0034742355,-0.08693409,6.150627E-5,-1.5376567E-5,0.0
940.1093,530.94214,78886972,0.825,0.07446808,-1110.9236,537.10675,0.024411917,0.0034742355,-0.08693409,6.150627E-5,-1.5376567E-5,0.0
928.11957,537.4541,78886989,0.825,0.08510638,-712.6457,373.8834,0.024411917,0.0034742355,-0.08693409,6.150627E-5,-1.5376567E-5,0.0
921.3735,541.15515,78887006,0.825,0.09574468,-319.43784,186.11311,0.024411917,0.0034742355,-0.08693409,6.150627E-5,-1.5376567E-5,0.0
917.41626,543.79614,78887022,0.825,0.09574468,-50.54938,61.421608,0.024411917,0.0034742355,-0.08693409,-1.342177E-5,0.0,0.0
916.05554,545.41736,78887039,0.8125,0.09574468,112.71515,9.944551,0.024411917,0.0034742355,-0.08693409,-1.342177E-5,0.0,0.0
915.17993,549.5829,78887056,0.77500004,0.11702127,168.85155,49.715725,0.024411917,0.0034742355,-0.08693409,-1.342177E-5,0.0,0.0
916.09503,553.26355,78887073,0.7625,0.12765957,189.66695,144.06944,0.024411917,0.0034742355,-0.08693409,-1.342177E-5,0.0,0.0
920.88965,559.5879,78887089,0.7625,0.12765957,253.43109,299.17618,0.024411917,0.0034742355,-0.08693409,1.5005995E-5,0.0,0.0
932.70483,570.69946,78887106,0.7625,0.08510638,568.0939,568.9862,0.024411917,0.0034742355,-0.08693409,1.5005995E-5,0.0,0.0
947.54016,580.17737,78887123,0.7875,0.06382979,986.34344,744.16815,0.024411917,0.0034742355,-0.08693409,1.5005995E-5,0.0,0.0
963.556,588.4617,78887139,0.7875,0.08510638,1215.6179,724.3858,0.024411917,0.0034742355,-0.08693409,1.5005995E-5,0.0,0.0
979.56494,593.84924,78887156,0.77500004,0.07446808,1258.0273,518.7003,0.024411917,0.0034742355,-0.08693409,-1.8981249E-5,0.0,0.0
992.36694,596.82324,78887173,0.7875,0.06382979,1041.4595,208.49828,0.024411917,0.0034742355,-0.08693409,-1.8981249E-5,0.0,0.0
1001.489,599.57996,78887190,0.8125,0.08510638,728.95605,43.209866,0.024411917,0.0034742355,-0.08693409,-1.8981249E-5,0.0,0.0
1006.7263,601.4269,78887206,0.8,0.08510638,359.4244,-1.9822882,0.024411917,0.0034742355,-0.08693409,-1.8981249E-5,0.0,0.0
1012.0415,603.3097,78887223,0.7875,0.08510638,120.41071,11.405233,-0.060470343,0.018779278,0.010453224,1.342177E-5,0.0,0.0
1015.55347,604.0586,78887240,0.8,0.09574468,55.52039,38.956932,-0.060470343,0.018779278,0.010453224,1.342177E-5,0.0,0.0
1018.7556,604.0586,78887256,0.825,0.09574468,60.486217,0.6150489,-0.060470343,0.018779278,0.010453224,1.342177E-5,0.0,0.0
1020.61316,604.0586,78887273,0.8125,0.09574468,74.0941,-37.558563,-0.060470343,0.018779278,0.010453224,1.342177E-5,0.0,0.0
1021.8618,604.0586,78887290,0.8125,0.09574468,49.682858,-49.15259,-0.060470343,0.018779278,0.010453224,0.0,0.0,0.0
1022.9026,604.0586,78887306,0.83750004,0.09574468,19.196808,-25.752295,-0.060470343,0.018779278,0.010453224,0.0,0.0,0.0
1023.94055,604.0586,78887323,0.825,0.09574468,18.262465,-0.008053575,-0.060470343,0.018779278,0.010453224,0.0,0.0,0.0
1024.9799,604.0586,78887340,0.83750004,0.09574468,31.975262,0.047206175,-0.060470343,0.018779278,0.010453224,0.0,0.0,0.0
1025.6439,604.0586,78887357,0.825,0.09574468,39.9491,0.024013456,-0.060470343,0.018779278,0.010453224,3.355443E-6,0.0,0.0
1026.3381,604.0586,78887373,0.825,0.09574468,30.335823,0.0043152436,-0.060470343,0.018779278,0.010453224,3.355443E-6,0.0,0.0
1028.2333,604.0586,78887423,0.8125,0.09574468,33.39099,-0.005308167,-0.060470343,0.018779278,0.010453224,0.0,0.0,0.0
1029.6471,604.0586,78887440,0.825,0.09574468,74.21843,0.029703408,-0.060470343,0.018779278,0.010453224,0.0,0.0,0.0
1030.7485,604.0586,78887457,0.825,0.09574468,88.10437,-0.026238589,-0.060470343,0.018779278,0.010453224,0.0,0.0,0.0
1032.4362,604.0586,78887474,0.825,0.08510638,86.24564,0.0025755565,-0.060470343,0.018779278,0.010453224,0.0,0.0,0.0
1033.2878,604.0586,78887490,0.8,0.08510638,72.685425,-0.044622693,-0.060470343,0.018779278,0.010453224,0.0,0.0,0.0
1035.0227,604.0586,78887507,0.8125,0.08510638,84.142395,0.046559524,-0.060470343,0.018779278,0.010453224,0.0,0.0,0.0
1037.1365,604.0586,78887524,0.825,0.08510638,115.78121,0.027570516,-0.060470343,0.018779278,0.010453224,0.0,0.0,0.0
1038.9034,604.0586,78887540,0.8,0.08510638,129.09044,0.04466344,-0.060470343,0.018779278,0.010453224,0.0,0.0,0.0
1040.7316,604.0586,78887557,0.8125,0.08510638,126.053604,0.042970702,-0.060470343,0.018779278,0.010453224,0.0,0.0,0.0
1042.896,604.0586,78887574,0.8,0.08510638,120.922676,-0.011543708,-0.060470343,0.018779278,0.010453224,0.0,0.0,0.0
1044.5398,604.0586,78887591,0.8125,0.08510638,117.064735,0.0036651464,-0.060470343,0.018779278,0.010453224,0.0,0.0,0.0
1046.5645,604.0586,78887607,0.8,0.08510638,114.82288,-0.008469694,-0.060470343,0.018779278,0.010453224,0.0,0.0,0.0
1048.1569,604.0586,78887624,0.8,0.08510638,102.92163,0.026229955,-0.060470343,0.018779278,0.010453224,0.0,0.0,0.0
1050.2988,604.0586,78887641,0.8,0.08510638,103.79748,-0.04274001,-0.060470343,0.018779278,0.010453224,0.0,0.0,0.0
1052.7811,604.0586,78887657,0.8,0.08510638,138.07544,8.603946E-4,-0.060470343,0.018779278,0.010453224,0.0,0.0,0.0
1054.871,604.0586,78887674,0.8,0.08510638,152.50162,-2.79336E-4,-0.060470343,0.018779278,0.010453224,0.0,0.0,0.0
1057.4825,604.0586,78887691,0.7875,0.08510638,160.90459,-0.016208755,-0.060470343,0.018779278,0.010453224,0.0,0.0,0.0
1061.2126,604.0586,78887707,0.7875,0.08510638,186.86568,0.008578424,-0.060470343,0.018779278,0.010453224,0.0,0.0,0.0
1064.0891,603.17004,78887724,0.7875,0.08510638,203.58551,-26.958803,-0.060470343,0.018779278,0.010453224,0.0,0.0,0.0
1068.2584,602.6688,78887741,0.77500004,0.08510638,247.46542,-43.087063,-0.060470343,0.018779278,0.010453224,0.0,0.0,0.0
1073.225,600.8257,78887758,0.77500004,0.08510638,287.88568,-89.30785,0.10362375,-0.04897666,0.056362152,0.0,0.0,0.0
1079.9904,598.97986,78887774,0.7875,0.08510638,367.3587,-131.29782,0.10362375,-0.04897666,0.056362152,0.0,0.0,0.0
1090.0662,596.2499,78887791,0.7625,0.07446808,545.1844,-172.82233,0.10362375,-0.04897666,0.056362152,0.0,0.0,0.0
1111.8563,591.19434,78887808,0.77500004,0.06382979,958.6728,-242.83372,0.10362375,-0.04897666,0.056362152,0.0,0.0,0.0
1143.3958,582.90845,78887824,0.7625,0.09574468,1729.7225,-424.18634,0.10362375,-0.04897666,0.056362152,0.0,0.0,0.0
1177.2982,570.22095,78887841,0.75,0.12765957,2392.0623,-717.37506,0.10362375,-0.04897666,0.056362152,0.0,0.0,0.0
1213.4451,556.2207,78887858,0.77500004,0.08510638,2675.6616,-959.1426,0.10362375,-0.04897666,0.056362152,0.0,0.0,0.0
1247.3809,540.71436,78887875,0.7625,0.07446808,2543.6953,-1093.3126,0.10362375,-0.04897666,0.056362152,0.0,0.0,0.0
1270.089,529.85535,78887891,0.7625,0.08510638,1940.724,-988.2446,0.10362375,-0.04897666,0.056362152,0.0,0.0,0.0
1286.3654,521.5425,78887908,0.7375,0.12765957,1209.2963,-705.9718,0.10362375,-0.04897666,0.056362152,0.0,0.0,0.0
1296.3162,515.5564,78887925,0.75,0.12765957,504.1666,-383.88196,0.10362375,-0.04897666,0.056362152,0.0,0.0,0.0
1300.2872,511.71582,78887941,0.75,0.12765957,-77.23053,-97.73214,0.10362375,-0.04897666,0.056362152,-2.510983E-5,1.2554915E-5,0.0
1300.2642,507.95654,78887958,0.77500004,0.11702127,-330.89847,-36.5865,0.10362375,-0.04897666,0.056362152,-1.3210376E-4,2.6420752E-5,0.0
1296.4272,503.09924,78887975,0.8,0.09574468,-471.40018,-110.45215,0.10362375,-0.04897666,0.056362152,-1.3210376E-4,2.6420752E-5,0.0
1259.4938,490.83716,78887991,0.8,0.07446808,-1293.6364,-403.37933,0.10362375,-0.04897666,0.056362152,-1.3210376E-4,2.6420752E-5,0.0
1197.4275,482.8612,78888008,0.8,0.07446808,-3271.9883,-698.93286,0.10362375,-0.04897666,0.056362152,-1.3210376E-4,2.6420752E-5,0.0
1136.569,479.81506,78888025,0.825,0.07446808,-4864.2485,-590.1874,0.10362375,-0.04897666,0.056362152,0.0,-0.0,0.0
1065.0394,478.81494,78888042,0.825,0.08510638,-5551.8774,-209.24377,0.10362375,-0.04897666,0.056362152,0.0,-0.0,0.0
989.0022,476.95996,78888058,0.825,0.09574468,-5329.4536,94.75957,0.10362375,-0.04897666,0.056362152,0.0,-0.0,0.0
911.41174,477.00256,78888075,0.85,0.08510638,-4957.823,170.01471,0.10362375,-0.04897666,0.056362152,8.273712E-5,8.273712E-5,0.0
834.109,478.96375,78888092,0.8125,0.06382979,-4995.795,124.15399,0.10362375,-0.04897666,0.056362152,8.273712E-5,8.273712E-5,0.0
759.55304,483.0769,78888108,0.825,0.08510638,-4881.005,211.52283,0.10362375,-0.04897666,0.056362152,8.273712E-5,8.273712E-5,0.0
667.1984,490.65625,78888125,0.825,0.06382979,-5107.942,425.00592,0.10362375,-0.04897666,0.056362152,8.273712E-5,8.273712E-5,0.0
573.86456,502.01404,78888142,0.75,0.09574468,-5559.9307,689.1513,0.10362375,-0.04897666,0.056362152,3.675695E-4,-1.4702781E-4,0.0
486.03168,515.34644,78888159,0.8,0.10638297,-5793.1177,882.7028,0.10362375,-0.04897666,0.056362152,3.675695E-4,-1.4702781E-4,0.0
412.6246,535.0331,78888175,0.65000004,0.08510638,-5135.6323,1162.25,0.10362375,-0.04897666,0.056362152,3.675695E-4,-1.4702781E-4,0.0
394.3495,540.0863,78888179,0.4125,0.08510638,-5060.914,1237.8518,0.10362375,-0.04897666,0.056362152,3.675695E-4,-1.4702781E-4,0.0
394.3495,540.0863,78888186,0.4125,0.08510638,-5060.914,1237.8518,0.10362375,-0.04897666,0.056362152,3.675695E-4,-1.4702781E-4,0.0
