x,y,timestamp,pressure,fingerarea,velocityx,velocityy,accelx,accely,accelz,gyrox,gyroy,gyroz
282.88577,179.354,100619273,0.8,0.09574468,0.0,0.0,-0.012833513,-0.0012118071,-0.021503448,0.0,0.0,0.0
293.8023,176.19507,100619301,0.8125,0.09574468,3154.387,-912.84344,-0.012833513,-0.0012118071,-0.021503448,0.0,0.0,0.0
325.4243,164.39648,100619317,0.85,0.07446808,2699.2043,-989.97687,-0.012833513,-0.0012118071,-0.021503448,0.0,0.0,0.0
373.7002,146.37146,100619334,0.875,0.09574468,3412.5154,-1320.0181,-0.012833513,-0.0012118071,-0.021503448,0.0,0.0,0.0
428.76773,128.16675,100619351,0.83750004,0.12765957,4144.749,-1481.7579,0.005733192,-0.008969447,0.014797211,0.0,0.0,0.0
488.41583,112.05701,100619368,0.825,0.09574468,4550.6245,-1462.1492,0.005733192,-0.008969447,0.014797211,0.0,0.0,0.0
547.5276,102.38513,100619384,0.7875,0.08510638,4191.349,-930.6693,0.005733192,-0.008969447,0.014797211,0.0,0.0,0.0
596.4477,96.7074,100619401,0.7375,0.08510638,3704.8372,-454.21072,0.005733192,-0.008969447,0.014797211,0.0,0.0,0.0
631.68805,92.1521,100619418,0.7,0.11702127,2527.0718,-42.893,0.005733192,-0.008969447,0.014797211,0.0,0.0,0.0
661.2334,92.28064,100619434,0.6875,0.09574468,1741.6843,146.64795,0.005733192,-0.008969447,0.014797211,0.0,0.0,0.0
671.487,93.16919,100619451,0.425,0.08510638,697.77203,234.9879,0.005733192,-0.008969447,0.014797211,0.0,0.0,0.0
671.487,93.16919,100619457,0.425,0.08510638,697.77203,234.9879,0.005733192,-0.008969447,0.014797211,0.0,0.0,0.0
326.87146,303.7445,100619658,0.8125,0.10638297,0.0,0.0,0.005733192,-0.008969447,0.014797211,0.0,0.0,0.0
326.87146,303.7445,100619685,0.8625,0.10638297,-0.01387962,-0.012147732,0.005733192,-0.008969447,0.014797211,0.0,0.0,0.0
368.90726,277.97595,100619702,0.85,0.08510638,2954.7976,-1832.5828,0.005733192,-0.008969447,0.014797211,0.0,0.0,0.0
417.74368,258.59766,100619718,0.85,0.08510638,3828.6987,-1815.895,0.005733192,-0.008969447,0.014797211,0.0,0.0,0.0
476.29108,239.62097,100619735,0.8,0.12765957,4461.0586,-1657.5892,0.005733192,-0.008969447,0.014797211,0.0,0.0,0.0
537.2325,220.55127,100619752,0.7625,0.09574468,4778.3564,-1528.6184,0.005733192,-0.008969447,0.014797211,0.0,0.0,0.0
592.329,201.20569,100619769,0.725,0.08510638,4244.885,-1158.2402,0.005733192,-0.008969447,0.014797211,0.0,0.0,0.0
638.86237,185.7157,100619785,0.71250004,0.12765957,3484.4834,-1064.7667,0.005733192,-0.008969447,0.014797211,0.0,0.0,0.0
671.01447,177.72974,100619802,0.7,0.09574468,2418.588,-760.5183,0.005733192,-0.008969447,0.014797211,0.0,0.0,0.0
681.7559,176.68848,100619811,0.5,0.11702127,1807.5426,-498.02386,0.005733192,-0.008969447,0.014797211,0.0,0.0,0.0
681.7559,176.68848,100619818,0.5,0.11702127,1807.5426,-498.02386,0.005733192,-0.008969447,0.014797211,0.0,0.0,0.0
471.3244,142.92542,100619987,0.825,0.10638297,0.0,0.0,0.004586555,-0.007175559,-0.0041627884,0.0,0.0,0.0
459.37213,160.6305,100620019,0.825,0.06382979,-1279.5383,1895.4225,0.004586555,-0.007175559,-0.0041627884,0.0,0.0,0.0
437.81363,211.94922,100620036,0.8125,0.08510638,-1802.0657,3968.7983,0.004586555,-0.007175559,-0.0041627884,0.0,0.0,0.0
423.7992,263.58716,100620053,0.7875,0.08510638,-1409.2374,4226.164,0.004586555,-0.007175559,-0.0041627884,0.0,0.0,0.0
414.15118,323.34326,100620069,0.77500004,0.07446808,-999.79877,4450.86,0.004586555,-0.007175559,-0.0041627884,0.0,0.0,0.0
406.40894,382.25818,100620086,0.71250004,0.06382979,-687.8225,4482.165,0.004586555,-0.007175559,-0.0041627884,0.0,0.0,0.0
400.09402,424.60645,100620103,0.7,0.06382979,-198.03293,3678.5273,0.004586555,-0.007175559,-0.0041627884,0.0,0.0,0.0
394.13882,468.5409,100620120,0.7,0.08510638,-230.63182,2973.598,0.004586555,-0.007175559,-0.0041627884,0.0,0.0,0.0
391.07596,502.35425,100620136,0.71250004,0.09574468,-186.17151,2162.81,0.004586555,-0.007175559,-0.0041627884,0.0,0.0,0.0
391.65936,525.8202,100620153,0.71250004,0.06382979,-10.151359,1410.3342,0.004586555,-0.007175559,-0.0041627884,0.0,0.0,0.0
393.20126,536.3645,100620170,0.75,0.06382979,195.59111,507.6046,0.004586555,-0.007175559,-0.0041627884,0.0,0.0,0.0
396.64468,538.9894,100620186,0.77500004,0.06382979,316.27542,-320.68594,0.004586555,-0.007175559,-0.0041627884,0.0,0.0,0.0
408.64816,531.3135,100620203,0.8,0.07446808,550.62964,-880.81323,0.004586555,-0.007175559,-0.0041627884,0.0,0.0,0.0
433.49435,501.18762,100620220,0.83750004,0.10638297,1146.6798,-1670.7644,0.004586555,-0.007175559,-0.0041627884,0.0,0.0,0.0
467.20795,457.8501,100620237,0.8625,0.09574468,2077.2913,-2813.4758,0.004586555,-0.007175559,-0.0041627884,0.0,0.0,0.0
509.04407,407.8745,100620253,0.8625,0.10638297,2842.3403,-3740.2358,0.004586555,-0.007175559,-0.0041627884,0.0,0.0,0.0
546.11285,365.68445,100620270,0.85,0.10638297,3049.3774,-3824.9846,0.004586555,-0.007175559,-0.0041627884,0.0,0.0,0.0
576.3148,333.10657,100620287,0.83750004,0.08510638,2592.9138,-2984.151,0.004586555,-0.007175559,-0.0041627884,0.0,0.0,0.0
591.65784,317.7091,100620303,0.8,0.08510638,1594.4824,-1587.905,0.004586555,-0.007175559,-0.0041627884,0.0,0.0,0.0
595.50323,316.96265,100620320,0.8,0.08510638,424.4085,-185.53737,0.004586555,-0.007175559,-0.0041627884,0.0,0.0,0.0
589.0744,338.00916,100620337,0.77500004,0.11702127,-668.73663,1268.5184,0.004586555,-0.007175559,-0.0041627884,0.0,0.0,0.0
567.69855,379.25867,100620353,0.75,0.06382979,-1559.0435,2852.6074,0.004586555,-0.007175559,-0.0041627884,0.0,0.0,0.0
536.56146,438.00854,100620370,0.7375,0.08510638,-2382.5713,4329.7563,0.004586555,-0.007175559,-0.0041627884,0.0,0.0,0.0
511.92383,483.30444,100620387,0.725,0.06382979,-2538.3286,4533.1816,0.004586555,-0.007175559,-0.0041627884,0.0,0.0,0.0
496.4787,523.8103,100620404,0.71250004,0.10638297,-1951.1187,3679.385,0.004586555,-0.007175559,-0.0041627884,0.0,0.0,0.0
492.89642,537.8882,100620420,0.6875,0.07446808,-750.17596,1883.4097,0.003669247,-0.005740447,-0.019330025,0.0,0.0,0.0
496.36273,541.87976,100620437,0.65000004,0.06382979,367.92776,117.571236,0.003669247,-0.005740447,-0.019330025,0.0,0.0,0.0
514.85626,531.28174,100620454,0.65000004,0.11702127,1230.5188,-1103.6754,0.003669247,-0.005740447,-0.019330025,0.0,0.0,0.0
548.91595,491.0111,100620470,0.65000004,0.08510638,2173.642,-2482.041,0.003669247,-0.005740447,-0.019330025,0.0,0.0,0.0
588.5749,414.94177,100620487,0.6875,0.09574468,2936.8826,-4387.9487,0.003669247,-0.005740447,-0.019330025,0.0,0.0,0.0
612.7096,359.19666,100620504,0.77500004,0.09574468,2834.3647,-5308.3784,0.003669247,-0.005740447,-0.019330025,0.0,0.0,0.0
622.43164,329.01782,100620521,0.8,0.06382979,1799.6267,-4567.036,0.003669247,-0.005740447,-0.019330025,0.0,0.0,0.0
626.5196,317.9757,100620537,0.8,0.10638297,158.44778,-1669.7529,0.003669247,-0.005740447,-0.019330025,0.0,0.0,0.0
627.0631,317.72632,100620554,0.83750004,0.08510638,-597.65717,658.68823,0.003669247,-0.005740447,-0.019330025,0.0,0.0,0.0
621.15967,350.86914,100620571,0.8,0.10638297,-772.1796,2185.5217,0.003669247,-0.005740447,-0.019330025,0.0,0.0,0.0
611.77795,405.6322,100620587,0.71250004,0.09574468,-850.238,3659.983,0.003669247,-0.005740447,-0.019330025,0.0,0.0,0.0
607.5855,453.44214,100620604,0.6625,0.08510638,-786.77435,4539.4507,0.003669247,-0.005740447,-0.019330025,0.0,0.0,0.0
606.2805,483.23047,100620621,0.625,0.07446808,-460.76593,4037.6797,0.003669247,-0.005740447,-0.019330025,0.0,0.0,0.0
607.2636,500.0006,100620638,0.6125,0.10638297,-38.287846,2235.1772,0.003669247,-0.005740447,-0.019330025,0.0,0.0,0.0
611.8914,506.3733,100620654,0.6375,0.10638297,365.5882,202.51416,0.003669247,-0.005740447,-0.019330025,0.0,0.0,0.0
626.44196,499.45496,100620671,0.65000004,0.08510638,737.58307,-885.09985,0.003669247,-0.005740447,-0.019330025,0.0,0.0,0.0
659.8048,459.69104,100620688,0.675,0.08510638,1581.7096,-2084.7358,0.003669247,-0.005740447,-0.019330025,0.0,0.0,0.0
695.23645,404.72583,100620704,0.7,0.09574468,2464.6687,-3575.6685,0.003669247,-0.005740447,-0.019330025,0.0,0.0,0.0
736.90344,319.3258,100620721,0.75,0.06382979,3074.1228,-5436.051,0.003669247,-0.005740447,-0.019330025,0.0,0.0,0.0
755.2108,273.74304,100620738,0.8,0.08510638,2422.1553,-5451.774,0.003669247,-0.005740447,-0.019330025,0.0,0.0,0.0
767.3921,240.22339,100620755,0.825,0.10638297,1125.4403,-3617.203,0.003669247,-0.005740447,-0.019330025,0.0,0.0,0.0
770.7269,227.44995,100620771,0.8,0.06382979,7.5237927,-1160.099,0.003669247,-0.005740447,-0.019330025,0.0,0.0,0.0
767.5222,226.51782,100620788,0.8,0.07446808,-686.8217,759.9629,0.003669247,-0.005740447,-0.019330025,0.0,0.0,0.0
740.0437,250.375,100620805,0.7625,0.10638297,-1407.8398,1839.8461,0.003669247,-0.005740447,-0.019330025,0.0,0.0,0.0
700.4762,295.53723,100620821,0.725,0.12765957,-2482.8477,2998.1357,0.003669247,-0.005740447,-0.019330025,0.0,0.0,0.0
667.2917,336.9867,100620838,0.71250004,0.08510638,-3118.481,3779.0896,0.003669247,-0.005740447,-0.019330025,0.0,0.0,0.0
641.1494,376.81445,100620855,0.725,0.08510638,-2689.1304,3604.414,0.003669247,-0.005740447,-0.019330025,0.0,0.0,0.0
633.58417,397.77026,100620871,0.725,0.12765957,-1420.8569,2571.7156,0.003669247,-0.005740447,-0.019330025,0.0,0.0,0.0
638.90295,406.5652,100620888,0.7,0.09574468,158.9472,983.7748,0.003669247,-0.005740447,-0.019330025,0.0,0.0,0.0
678.2545,412.3861,100620905,0.675,0.10638297,1939.6082,-61.18482,0.003669247,-0.005740447,-0.019330025,0.0,0.0,0.0
733.77325,394.65063,100620922,0.6375,0.09574468,3691.9043,-1048.6783,0.003669247,-0.005740447,-0.019330025,0.0,0.0,0.0
781.32837,383.5918,100620938,0.6,0.06382979,4546.4844,-1568.5637,0.003669247,-0.005740447,-0.019330025,0.0,0.0,0.0
818.0445,377.06714,100620955,0.6125,0.07446808,3890.4749,-1307.0251,0.002935402,0.0034076422,0.032535553,0.0,0.0,0.0
829.97174,377.49744,100620972,0.6,0.06382979,1875.4808,-598.6653,0.002935402,0.0034076422,0.032535553,0.0,0.0,0.0
834.4993,395.02563,100620988,0.625,0.08510638,-16.598194,517.09937,0.002935402,0.0034076422,0.032535553,0.0,0.0,0.0
827.4638,433.8075,100621005,0.6375,0.06382979,-1089.8497,2065.7166,0.002935402,0.0034076422,0.032535553,0.0,0.0,0.0
809.57074,479.80737,100621022,0.625,0.08510638,-1726.4603,3379.678,0.002935402,0.0034076422,0.032535553,0.0,0.0,0.0
801.0165,513.3994,100621039,0.6125,0.12765957,-1586.6173,3531.7139,0.002935402,0.0034076422,0.032535553,0.0,0.0,0.0
802.7239,526.77185,100621055,0.55,0.08510638,-794.892,2239.3018,0.002935402,0.0034076422,0.032535553,0.0,0.0,0.0
823.02435,518.20557,100621072,0.575,0.10638297,518.32574,137.29947,0.002935402,0.0034076422,0.032535553,0.0,0.0,0.0
862.1284,468.2556,100621089,0.575,0.12765957,2206.9668,-2405.0852,0.002935402,0.0034076422,0.032535553,0.0,0.0,0.0
912.20825,386.09473,100621105,0.58750004,0.08510638,3490.2776,-5119.6606,0.002935402,0.0034076422,0.032535553,0.0,0.0,0.0
978.3341,259.20886,100621122,0.65000004,0.09574468,4517.433,-7998.3857,0.002935402,0.0034076422,0.032535553,0.0,0.0,0.0
1025.967,160.00977,100621139,0.71250004,0.10638297,4514.0635,-9125.354,0.002935402,0.0034076422,0.032535553,0.0,0.0,0.0
1061.982,89.073,100621156,0.75,0.09574468,3186.7756,-7202.992,0.002935402,0.0034076422,0.032535553,0.0,0.0,0.0
1085.5079,38.33606,100621172,0.7375,0.11702127,1806.2346,-4239.658,0.002935402,0.0034076422,0.032535553,0.0,0.0,0.0
1090.6228,18.030396,100621189,0.75,0.08510638,172.56487,-924.6413,0.002935402,0.0034076422,0.032535553,0.0,0.0,0.0
1081.4347,13.203857,100621206,0.725,0.08510638,-933.86426,965.8058,0.002935402,0.0034076422,0.032535553,0.0,0.0,0.0
1033.0925,37.27832,100621222,0.7,0.12765957,-2568.0444,2155.6326,0.002935402,0.0034076422,0.032535553,0.0,0.0,0.0
974.29675,87.33765,100621239,0.71250004,0.12765957,-4298.8926,3534.9727,0.002935402,0.0034076422,0.032535553,0.0,0.0,0.0
914.75977,153.51062,100621256,0.725,0.12765957,-5182.6567,4841.3677,0.002935402,0.0034076422,0.032535553,0.0,0.0,0.0
865.7609,221.90991,100621273,0.7375,0.08510638,-4866.35,5759.3936,0.002935402,0.0034076422,0.032535553,0.0,0.0,0.0
811.90497,315.2378,100621289,0.6875,0.09574468,-3616.5269,6043.3096,0.002935402,0.0034076422,0.032535553,0.0,0.0,0.0
784.3284,383.82166,100621306,0.675,0.06382979,-2266.8982,5510.9507,0.002935402,0.0034076422,0.032535553,0.0,0.0,0.0
774.036,430.5818,100621323,0.625,0.06382979,-987.2712,4223.4746,0.002935402,0.0034076422,0.032535553,0.0,0.0,0.0
774.5883,447.672,100621339,0.625,0.10638297,238.82275,2232.8547,0.002935402,0.0034076422,0.032535553,0.0,0.0,0.0
793.2624,452.71838,100621356,0.6375,0.12765957,1396.0638,145.5081,0.002935402,0.0034076422,0.032535553,0.0,0.0,0.0
840.62634,429.52722,100621373,0.65000004,0.06382979,2854.9102,-1834.2158,0.002935402,0.0034076422,0.032535553,0.0,0.0,0.0
904.576,377.07178,100621390,0.675,0.06382979,4371.1807,-3636.028,0.002935402,0.0034076422,0.032535553,0.0,0.0,0.0
965.615,328.6433,100621406,0.6875,0.08510638,5175.252,-4648.7456,0.002935402,0.0034076422,0.032535553,0.0,0.0,0.0
1017.47424,293.90466,100621423,0.71250004,0.12765957,4642.8784,-4181.5957,0.002935402,0.0034076422,0.032535553,0.0,0.0,0.0
1051.4968,287.37964,100621440,0.6875,0.08510638,3128.1802,-2199.4912,0.002935402,0.0034076422,0.032535553,0.0,0.0,0.0
1067.5364,314.53442,100621456,0.65000004,0.10638297,1350.8823,728.8715,0.002935402,0.0034076422,0.032535553,0.0,0.0,0.0
1060.5,371.07092,100621473,0.625,0.12765957,-363.54834,3699.7505,0.002935402,0.0034076422,0.032535553,0.0,0.0,0.0
1036.9978,416.76135,100621490,0.58750004,0.08510638,-1934.3654,4964.6333,0.0023483261,0.034726113,-0.021970749,0.0,0.0,0.0
1004.74146,465.73657,100621506,0.6375,0.06382979,-2893.0715,4621.9253,0.0023483261,0.034726113,-0.021970749,0.0,0.0,0.0
979.3491,490.7135,100621523,0.675,0.09574468,-2941.7961,3040.2068,0.0023483261,0.034726113,-0.021970749,0.0,0.0,0.0
973.23047,496.32263,100621540,0.7,0.12765957,-1848.9047,936.79553,0.0023483261,0.034726113,-0.021970749,0.0,0.0,0.0
982.4938,493.1189,100621557,0.71250004,0.07446808,-206.44936,-567.76337,0.0023483261,0.034726113,-0.021970749,0.0,0.0,0.0
1034.9639,456.95508,100621573,0.7,0.12765957,2115.748,-1986.839,0.0023483261,0.034726113,-0.021970749,0.0,0.0,0.0
1109.5781,408.75085,100621590,0.6875,0.10638297,4955.347,-3572.3875,0.0023483261,0.034726113,-0.021970749,0.0,0.0,0.0
1178.0714,375.12476,100621607,0.65000004,0.06382979,6100.3706,-3830.5168,0.0023483261,0.034726113,-0.021970749,0.0,0.0,0.0
1233.3219,359.50305,100621623,0.6375,0.09574468,5627.8696,-2768.9941,0.0023483261,0.034726113,-0.021970749,0.0,0.0,0.0
1267.2214,361.72815,100621640,0.55,0.09574468,3365.9614,-503.87323,0.0023483261,0.034726113,-0.021970749,0.0,0.0,0.0
1283.0703,370.00916,100621657,0.5,0.07446808,1090.6758,1231.6356,0.0023483261,0.034726113,-0.021970749,0.0,0.0,0.0
1287.0063,384.1786,100621674,0.58750004,0.08510638,-417.44626,1784.174,0.0023483261,0.034726113,-0.021970749,0.0,0.0,0.0
1285.4951,405.66138,100621690,0.65000004,0.08510638,-1070.0961,1800.1079,0.0023483261,0.034726113,-0.021970749,0.0,0.0,0.0
1282.9171,416.20483,100621707,0.6625,0.06382979,-1074.8025,1471.3076,0.0023483261,0.034726113,-0.021970749,0.0,0.0,0.0
1283.1737,420.5421,100621724,0.65000004,0.07446808,-675.34985,799.8187,0.0023483261,0.034726113,-0.021970749,0.0,0.0,0.0
1304.9503,412.7992,100621740,0.6375,0.12765957,260.7195,-79.06291,0.0023483261,0.034726113,-0.021970749,0.0,0.0,0.0
1338.4652,384.80505,100621757,0.58750004,0.07446808,1647.1515,-1395.8611,0.0023483261,0.034726113,-0.021970749,0.0,0.0,0.0
1374.6936,348.5785,100621774,0.5625,0.08510638,2789.0835,-2579.0342,0.0023483261,0.034726113,-0.021970749,0.0,0.0,0.0
1382.907,332.25952,100621791,0.55,0.06382979,2302.5754,-2515.824,0.0023483261,0.034726113,-0.021970749,0.0,0.0,0.0
1368.5945,320.45044,100621807,0.5125,0.08510638,333.28427,-1474.9075,0.0023483261,0.034726113,-0.021970749,0.0,0.0,0.0
1304.3884,320.61267,100621824,0.52500004,0.07446808,-2956.0383,-116.25422,0.0023483261,0.034726113,-0.021970749,0.0,0.0,0.0
1197.1648,336.05908,100621841,0.5375,0.06382979,-6467.5,1043.883,0.0023483261,0.034726113,-0.021970749,0.0,0.0,0.0
1077.3966,363.55115,100621857,0.6125,0.10638297,-8856.11,1814.5505,0.0023483261,0.034726113,-0.021970749,0.0,0.0,0.0
954.1442,384.7566,100621874,0.5625,0.06382979,-9709.681,2261.5066,0.0023483261,0.034726113,-0.021970749,0.0,0.0,0.0
846.6391,401.69128,100621891,0.6125,0.09574468,-9093.067,2031.7753,0.0023483261,0.034726113,-0.021970749,0.0,0.0,0.0
725.76495,419.77563,100621908,0.5625,0.08510638,-7733.479,1332.1887,0.0023483261,0.034726113,-0.021970749,0.0,0.0,0.0
624.5721,416.1577,100621924,0.5625,0.09574468,-6776.29,375.91974,0.0023483261,0.034726113,-0.021970749,0.0,0.0,0.0
505.59888,402.07434,100621941,0.58750004,0.10638297,-6493.55,-728.83234,0.0023483261,0.034726113,-0.021970749,0.0,0.0,0.0
418.80258,387.427,100621958,0.6,0.09574468,-5851.999,-1451.0233,0.0023483261,0.034726113,-0.021970749,0.0,0.0,0.0
316.93857,374.74548,100621974,0.5625,0.07446808,-5647.2236,-1653.2894,0.0023483261,0.034726113,-0.021970749,0.0,0.0,0.0
247.89716,368.60522,100621988,0.375,0.08510638,-5232.7363,-1379.8136,0.0023483261,0.034726113,-0.021970749,0.0,0.0,0.0
247.89716,368.60522,100621994,0.375,0.08510638,-5232.7363,-1379.8136,0.0023483261,0.034726113,-0.021970749,0.0,0.0,0.0
