x,y,timestamp,pressure,fingerarea,velocityx,velocityy,accelx,accely,accelz,gyrox,gyroy,gyroz
320.8734,288.6399,80891770,0.7,0.11702127,0.0,0.0,-0.0024645086,0.012419179,-0.015086174,0.0,0.0,0.0
320.8734,288.6399,80891800,0.7375,0.11702127,-0.006875673,-0.0061398707,-0.0024645086,0.012419179,-0.015086174,0.0,0.0,0.0
320.8734,288.6399,80891814,0.75,0.09574468,0.0075948895,0.007657972,-0.0024645086,0.012419179,-0.015086174,0.0,0.0,0.0
320.8734,288.6399,80891846,0.7625,0.09574468,0.0034221965,0.0043754275,-0.0024645086,0.012419179,-0.015086174,0.0,0.0,0.0
320.8734,288.6399,80891866,0.77500004,0.08510638,0.0024424067,0.0028773905,-0.0024645086,0.012419179,-0.015086174,0.0,0.0,0.0
284.04782,278.6803,80891883,0.77500004,0.07446808,-1220.468,-333.47318,-0.0024645086,0.012419179,-0.015086174,0.0,0.0,0.0
266.24976,274.96924,80891900,0.8,0.08510638,-1756.8114,-443.2884,-0.0024645086,0.012419179,-0.015086174,0.0,0.0,0.0
247.08887,274.42383,80891917,0.8125,0.06382979,-1720.3696,-269.45093,-0.0024645086,0.012419179,-0.015086174,0.0,0.0,0.0
227.07889,275.6261,80891933,0.8125,0.08510638,-1617.0801,-73.30777,-0.0024645086,0.012419179,-0.015086174,0.0,0.0,0.0
211.82169,280.04187,80891950,0.8125,0.09574468,-876.4661,350.6011,-0.0024645086,0.012419179,-0.015086174,0.0,0.0,0.0
197.89642,287.7644,80891967,0.8125,0.12765957,-930.58966,492.4521,-0.0024645086,0.012419179,-0.015086174,0.0,0.0,0.0
184.51358,299.2766,80891983,0.825,0.08510638,-712.2522,744.5127,-0.0024645086,0.012419179,-0.015086174,0.0,0.0,0.0
170.12274,324.04126,80892000,0.8125,0.08510638,-675.4412,1225.3418,-0.0024645086,0.012419179,-0.015086174,0.0,0.0,0.0
161.56294,345.33862,80892017,0.8125,0.12765957,-623.59265,1650.1638,-0.0024645086,0.012419179,-0.015086174,0.0,0.0,0.0
156.17784,369.9336,80892034,0.8125,0.09574468,-387.4321,1776.5281,-0.0024645086,0.012419179,-0.015086174,0.0,0.0,0.0
153.4476,389.77185,80892051,0.825,0.11702127,-92.34658,1644.0266,-0.0024645086,0.012419179,-0.015086174,0.0,0.0,0.0
153.42792,410.0775,80892068,0.8125,0.09574468,136.47063,1285.2592,-0.0024645086,0.012419179,-0.015086174,0.0,0.0,0.0
154.50493,436.14197,80892084,0.8125,0.09574468,229.41281,1308.1014,-0.0024645086,0.012419179,-0.015086174,0.0,0.0,0.0
157.24068,453.28186,80892101,0.825,0.12765957,271.2112,1253.2728,-0.0024645086,0.012419179,-0.015086174,0.0,0.0,0.0
163.91731,471.5265,80892118,0.825,0.08510638,394.31613,1138.5739,-0.0024645086,0.012419179,-0.015086174,0.0,0.0,0.0
172.07332,485.2683,80892134,0.825,0.08510638,536.19824,928.222,-0.0024645086,0.012419179,-0.015086174,0.0,0.0,0.0
188.27286,501.94824,80892151,0.8125,0.12765957,889.5954,748.5104,0.014028393,-0.0060646534,0.003931999,0.0,0.0,0.0
203.90381,514.9413,80892168,0.8,0.11702127,1143.1722,787.8042,0.014028393,-0.0060646534,0.003931999,0.0,0.0,0.0
225.70987,525.95325,80892185,0.8125,0.08510638,1373.7291,684.3545,0.014028393,-0.0060646534,0.003931999,0.0,0.0,0.0
244.90073,533.03467,80892201,0.7875,0.07446808,1476.7755,492.8707,0.014028393,-0.0060646534,0.003931999,0.0,0.0,0.0
264.7985,534.7554,80892218,0.7875,0.07446808,1351.316,121.45456,0.014028393,-0.0060646534,0.003931999,0.0,0.0,0.0
286.77603,530.74146,80892235,0.7875,0.08510638,1331.6785,-252.42743,0.014028393,-0.0060646534,0.003931999,0.0,0.0,0.0
305.35724,523.45166,80892251,0.77500004,0.09574468,1248.4536,-616.02435,0.014028393,-0.0060646534,0.003931999,0.0,0.0,0.0
320.962,514.2705,80892268,0.7875,0.12765957,1051.1118,-812.6732,0.014028393,-0.0060646534,0.003931999,0.0,0.0,0.0
335.5116,504.99524,80892285,0.77500004,0.08510638,876.8453,-828.6644,0.014028393,-0.0060646534,0.003931999,0.0,0.0,0.0
346.60175,493.8999,80892302,0.7625,0.07446808,630.12537,-788.1513,0.014028393,-0.0060646534,0.003931999,0.0,0.0,0.0
354.2175,482.80835,80892318,0.77500004,0.08510638,428.4032,-750.56305,0.014028393,-0.0060646534,0.003931999,0.0,0.0,0.0
360.8629,471.6671,80892335,0.7625,0.12765957,281.80786,-733.56976,0.014028393,-0.0060646534,0.003931999,0.0,0.0,0.0
367.68936,459.19458,80892352,0.7625,0.08510638,200.76198,-743.9678,0.014028393,-0.0060646534,0.003931999,0.0,0.0,0.0
377.23874,440.3512,80892368,0.7625,0.07446808,335.98398,-907.4211,0.014028393,-0.0060646534,0.003931999,0.0,0.0,0.0
386.83243,420.94458,80892385,0.77500004,0.09574468,574.86554,-1246.1014,0.014028393,-0.0060646534,0.003931999,0.0,0.0,0.0
391.79645,405.55334,80892402,0.77500004,0.10638297,540.9729,-1288.672,0.014028393,-0.0060646534,0.003931999,0.0,0.0,0.0
393.71426,391.8546,80892418,0.77500004,0.08510638,275.79642,-1044.5306,0.014028393,-0.0060646534,0.003931999,0.0,0.0,0.0
394.3495,379.44153,80892435,0.75,0.06382979,-44.153187,-721.9884,0.014028393,-0.0060646534,0.003931999,0.0,0.0,0.0
392.47787,369.17285,80892452,0.7625,0.08510638,-255.9578,-506.2588,0.014028393,-0.0060646534,0.003931999,0.0,0.0,0.0
389.91312,361.64453,80892469,0.77500004,0.12765957,-281.66962,-445.61835,0.014028393,-0.0060646534,0.003931999,0.0,0.0,0.0
387.28522,356.08728,80892485,0.7625,0.12765957,-273.1792,-293.89386,0.014028393,-0.0060646534,0.003931999,0.0,0.0,0.0
383.0505,349.51636,80892502,0.77500004,0.11702127,-290.2279,-214.36554,0.014028393,-0.0060646534,0.003931999,0.0,0.0,0.0
378.45068,344.07727,80892519,0.7625,0.09574468,-318.53455,-225.5704,0.014028393,-0.0060646534,0.003931999,0.0,0.0,0.0
372.58185,338.4585,80892535,0.7875,0.07446808,-363.91202,-269.77145,0.014028393,-0.0060646534,0.003931999,0.0,0.0,0.0
367.01495,333.05432,80892552,0.77500004,0.07446808,-397.08746,-308.51895,0.014028393,-0.0060646534,0.003931999,0.0,0.0,0.0
361.2851,327.4762,80892569,0.77500004,0.07446808,-394.97806,-322.85733,0.014028393,-0.0060646534,0.003931999,0.0,0.0,0.0
355.8081,322.3711,80892586,0.7875,0.06382979,-352.62808,-316.12595,0.014028393,-0.0060646534,0.003931999,0.0,0.0,0.0
349.08337,318.68274,80892602,0.77500004,0.06382979,-372.23773,-265.5674,0.014028393,-0.0060646534,0.003931999,0.0,0.0,0.0
343.52167,316.47473,80892619,0.8,0.06382979,-382.9376,-162.62418,0.014028393,-0.0060646534,0.003931999,0.0,0.0,0.0
338.49396,316.18347,80892636,0.7875,0.07446808,-338.87216,-24.520578,0.014028393,-0.0060646534,0.003931999,0.0,0.0,0.0
332.92322,316.90796,80892652,0.8,0.07446808,-300.77975,95.00278,0.014028393,-0.0060646534,0.003931999,0.0,0.0,0.0
328.11707,318.7616,80892669,0.8,0.08510638,-274.5654,178.20105,0.014028393,-0.0060646534,0.003931999,0.0,0.0,0.0
324.93073,320.5912,80892686,0.8,0.08510638,-238.0524,212.44566,0.019222714,0.011148274,-0.044854164,0.0,0.0,0.0
321.2297,325.32373,80892703,0.8,0.09574468,-193.96088,250.66054,0.019222714,0.011148274,-0.044854164,0.0,0.0,0.0
318.16138,330.77783,80892719,0.8,0.11702127,-153.28665,350.29584,0.019222714,0.011148274,-0.044854164,0.0,0.0,0.0
315.76505,336.31702,80892736,0.8,0.12765957,-131.23817,419.91525,0.019222714,0.011148274,-0.044854164,0.0,0.0,0.0
314.72745,341.85046,80892753,0.8,0.12765957,-87.88901,434.7643,0.019222714,0.011148274,-0.044854164,0.0,0.0,0.0
314.37552,346.52405,80892769,0.8,0.11702127,-18.448904,370.17194,0.019222714,0.011148274,-0.044854164,0.0,0.0,0.0
315.34552,351.20032,80892786,0.8125,0.11702127,71.81505,280.7567,0.019222714,0.011148274,-0.044854164,0.0,0.0,0.0
317.7042,355.37207,80892803,0.8125,0.09574468,159.51442,244.7809,0.019222714,0.011148274,-0.044854164,0.0,0.0,0.0
322.0756,359.6206,80892820,0.8125,0.08510638,253.38911,220.5477,0.019222714,0.011148274,-0.044854164,0.0,0.0,0.0
330.9096,365.16113,80892836,0.8125,0.06382979,461.8319,266.11102,0.019222714,0.011148274,-0.044854164,0.0,0.0,0.0
341.7717,369.99304,80892853,0.77500004,0.06382979,706.96844,314.71692,0.019222714,0.011148274,-0.044854164,0.0,0.0,0.0
351.61887,372.9154,80892870,0.7875,0.07446808,815.3124,277.89865,0.019222714,0.011148274,-0.044854164,0.0,0.0,0.0
360.5812,373.93628,80892886,0.77500004,0.08510638,763.09845,147.92252,0.019222714,0.011148274,-0.044854164,0.0,0.0,0.0
371.97842,373.93628,80892903,0.77500004,0.07446808,664.20374,-35.886055,0.019222714,0.011148274,-0.044854164,0.0,0.0,0.0
386.01923,372.963,80892920,0.77500004,0.06382979,733.6639,-133.50061,0.019222714,0.011148274,-0.044854164,0.0,0.0,0.0
399.00412,370.06616,80892937,0.77500004,0.08510638,846.4444,-204.3583,0.019222714,0.011148274,-0.044854164,0.0,0.0,0.0
411.30716,366.35547,80892953,0.75,0.09574468,880.1334,-272.8593,0.019222714,0.011148274,-0.044854164,0.0,0.0,0.0
423.07526,361.3025,80892970,0.7625,0.10638297,786.62836,-337.47333,0.019222714,0.011148274,-0.044854164,0.0,0.0,0.0
436.99954,355.55542,80892987,0.7625,0.10638297,740.2177,-404.0897,0.019222714,0.011148274,-0.044854164,0.0,0.0,0.0
452.36407,348.1526,80893003,0.75,0.10638297,855.5718,-464.98615,0.019222714,0.011148274,-0.044854164,0.0,0.0,0.0
466.24915,340.34888,80893020,0.75,0.08510638,937.66583,-521.745,0.019222714,0.011148274,-0.044854164,0.0,0.0,0.0
480.81927,329.63953,80893037,0.75,0.07446808,939.0656,-619.73517,0.019222714,0.011148274,-0.044854164,0.0,0.0,0.0
495.60278,317.13086,80893053,0.7625,0.08510638,868.45233,-745.52234,0.019222714,0.011148274,-0.044854164,0.0,0.0,0.0
509.68,304.84167,80893070,0.7375,0.10638297,859.59344,-852.4016,0.019222714,0.011148274,-0.044854164,0.0,0.0,0.0
521.2035,292.8778,80893087,0.7625,0.10638297,785.3344,-849.5076,0.019222714,0.011148274,-0.044854164,0.0,0.0,0.0
530.6582,279.96375,80893104,0.7375,0.08510638,625.5798,-803.27386,0.019222714,0.011148274,-0.044854164,0.0,0.0,0.0
539.995,266.12732,80893120,0.75,0.10638297,479.80026,-811.64594,0.019222714,0.011148274,-0.044854164,0.0,0.0,0.0
547.7917,253.22302,80893137,0.7625,0.12765957,393.0094,-824.3349,0.019222714,0.011148274,-0.044854164,0.0,0.0,0.0
553.82056,241.32239,80893154,0.75,0.08510638,344.8899,-798.4881,0.019222714,0.011148274,-0.044854164,0.0,0.0,0.0
560.34985,224.47412,80893170,0.75,0.06382979,318.9794,-861.31116,0.019222714,0.011148274,-0.044854164,0.0,0.0,0.0
562.7946,212.43042,80893187,0.7625,0.08510638,201.67159,-850.05457,0.019222714,0.011148274,-0.044854164,0.0,0.0,0.0
562.7946,202.31665,80893204,0.7625,0.09574468,3.91249,-729.399,0.019222714,0.011148274,-0.044854164,0.0,0.0,0.0
561.28467,193.07922,80893221,0.7625,0.12765957,-179.08423,-539.2302,0.015378172,0.01691863,0.028116226,0.0,0.0,0.0
558.7576,184.15564,80893237,0.7625,0.08510638,-279.12476,-402.46756,0.015378172,0.01691863,0.028116226,0.0,0.0,0.0
554.7105,176.53442,80893254,0.7625,0.07446808,-309.0958,-398.19403,0.015378172,0.01691863,0.028116226,0.0,0.0,0.0
550.68054,169.37073,80893271,0.75,0.07446808,-340.29593,-400.31876,0.015378172,0.01691863,0.028116226,0.0,0.0,0.0
546.7429,163.1023,80893287,0.75,0.08510638,-315.24225,-342.71872,0.015378172,0.01691863,0.028116226,0.0,0.0,0.0
542.006,158.21167,80893304,0.7625,0.08510638,-304.33676,-294.28906,0.015378172,0.01691863,0.028116226,0.0,0.0,0.0
537.3109,154.48303,80893321,0.75,0.09574468,-298.5043,-212.21436,0.015378172,0.01691863,0.028116226,0.0,0.0,0.0
532.5973,152.62537,80893338,0.7625,0.08510638,-297.347,-109.033554,0.015378172,0.01691863,0.028116226,0.0,0.0,0.0
528.4653,151.81042,80893354,0.77500004,0.08510638,-286.15103,-13.875945,0.015378172,0.01691863,0.028116226,0.0,0.0,0.0
524.4463,152.02417,80893371,0.8,0.07446808,-245.70663,73.96591,0.015378172,0.01691863,0.028116226,0.0,0.0,0.0
521.19415,154.13293,80893388,0.77500004,0.06382979,-209.91077,145.8024,0.015378172,0.01691863,0.028116226,0.0,0.0,0.0
517.5186,158.19531,80893404,0.77500004,0.08510638,-191.84402,254.1743,0.015378172,0.01691863,0.028116226,0.0,0.0,0.0
512.6148,165.0614,80893421,0.8,0.09574468,-228.2507,415.89798,0.015378172,0.01691863,0.028116226,0.0,0.0,0.0
507.15045,172.93054,80893438,0.77500004,0.12765957,-305.0617,554.6664,0.015378172,0.01691863,0.028116226,0.0,0.0,0.0
499.34875,185.51404,80893455,0.77500004,0.10638297,-412.707,711.5335,0.015378172,0.01691863,0.028116226,0.0,0.0,0.0
489.95557,202.5946,80893471,0.77500004,0.09574468,-577.2859,1007.5636,0.015378172,0.01691863,0.028116226,0.0,0.0,0.0
484.08063,218.12744,80893488,0.77500004,0.09574468,-553.85657,1160.8734,0.015378172,0.01691863,0.028116226,0.0,0.0,0.0
478.78333,230.79211,80893505,0.77500004,0.12765957,-432.10693,1116.784,0.015378172,0.01691863,0.028116226,0.0,0.0,0.0
473.43683,244.78174,80893521,0.7875,0.10638297,-287.66104,909.8761,0.015378172,0.01691863,0.028116226,0.0,0.0,0.0
469.26727,259.5249,80893538,0.77500004,0.07446808,-196.63403,784.30426,0.015378172,0.01691863,0.028116226,0.0,0.0,0.0
465.59125,274.37085,80893555,0.8,0.10638297,-189.93756,841.1311,0.015378172,0.01691863,0.028116226,0.0,0.0,0.0
463.12952,285.25073,80893572,0.8,0.12765957,-155.94667,804.67206,0.015378172,0.01691863,0.028116226,0.0,0.0,0.0
461.05237,297.46094,80893588,0.8,0.10638297,-99.208664,724.5994,0.015378172,0.01691863,0.028116226,0.0,0.0,0.0
458.47125,310.72705,80893605,0.77500004,0.06382979,-85.38861,665.6843,0.015378172,0.01691863,0.028116226,0.0,0.0,0.0
458.11462,325.57397,80893622,0.7875,0.08510638,-45.860348,786.1408,0.015378172,0.01691863,0.028116226,0.0,0.0,0.0
457.32898,335.74182,80893638,0.8,0.12765957,-16.633898,813.86395,0.015378172,0.01691863,0.028116226,0.0,0.0,0.0
457.32898,346.83167,80893655,0.7875,0.12765957,18.048704,682.0814,0.015378172,0.01691863,0.028116226,0.0,0.0,0.0
457.32898,357.93884,80893672,0.7875,0.08510638,41.548866,573.2174,0.015378172,0.01691863,0.028116226,0.0,0.0,0.0
457.64844,368.4585,80893689,0.8,0.07446808,29.944448,544.39087,0.015378172,0.01691863,0.028116226,0.0,0.0,0.0
458.20013,379.67358,80893705,0.8,0.08510638,46.415844,627.07135,0.015378172,0.01691863,0.028116226,0.0,0.0,0.0
458.7729,388.6454,80893722,0.8125,0.10638297,47.74303,625.37445,0.015378172,0.01691863,0.028116226,0.0,0.0,0.0
459.8136,397.79602,80893739,0.7875,0.12765957,62.952824,544.3509,0.015378172,0.01691863,0.028116226,0.0,0.0,0.0
459.8282,407.80457,80893755,0.7875,0.08510638,46.24277,533.55096,-0.02769746,0.0135349035,0.022492409,0.0,0.0,0.0
460.88483,418.96912,80893772,0.77500004,0.07446808,41.18467,584.56415,-0.02769746,0.0135349035,0.022492409,0.0,0.0,0.0
462.4411,430.23718,80893789,0.77500004,0.08510638,69.42809,668.27313,-0.02769746,0.0135349035,0.022492409,0.0,0.0,0.0
463.4967,439.115,80893805,0.7875,0.10638297,83.69542,672.77527,-0.02769746,0.0135349035,0.022492409,0.0,0.0,0.0
464.52985,445.5719,80893822,0.77500004,0.12765957,86.70209,497.81378,-0.02769746,0.0135349035,0.022492409,0.0,0.0,0.0
466.54492,453.68066,80893839,0.77500004,0.12765957,95.78945,377.2816,-0.02769746,0.0135349035,0.022492409,0.0,0.0,0.0
468.114,461.10083,80893856,0.77500004,0.08510638,99.32765,364.88428,-0.02769746,0.0135349035,0.022492409,0.0,0.0,0.0
470.73456,468.14697,80893872,0.7625,0.08510638,143.94704,397.32086,-0.02769746,0.0135349035,0.022492409,0.0,0.0,0.0
473.82245,477.2953,80893889,0.77500004,0.08510638,186.1062,483.32086,-0.02769746,0.0135349035,0.022492409,0.0,0.0,0.0
476.9698,485.05176,80893906,0.77500004,0.08510638,214.74025,495.97144,-0.02769746,0.0135349035,0.022492409,0.0,0.0,0.0
479.6502,490.0254,80893922,0.7625,0.09574468,217.32782,436.13647,-0.02769746,0.0135349035,0.022492409,0.0,0.0,0.0
482.638,493.7218,80893939,0.77500004,0.10638297,181.742,273.47623,-0.02769746,0.0135349035,0.022492409,0.0,0.0,0.0
486.726,497.01648,80893956,0.77500004,0.10638297,187.97365,104.29773,-0.02769746,0.0135349035,0.022492409,0.0,0.0,0.0
492.91663,501.0509,80893973,0.77500004,0.10638297,306.8965,102.209526,-0.02769746,0.0135349035,0.022492409,0.0,0.0,0.0
498.81744,504.8435,80893989,0.7625,0.10638297,404.49057,172.60612,-0.02769746,0.0135349035,0.022492409,0.0,0.0,0.0
502.81415,506.32324,80894004,0.77500004,0.10638297,382.48282,161.7182,-0.02769746,0.0135349035,0.022492409,0.0,0.0,0.0
508.1313,508.39124,80894023,0.77500004,0.10638297,331.94925,111.606026,-0.02769746,0.0135349035,0.022492409,0.0,0.0,0.0
513.0693,510.2141,80894039,0.77500004,0.12765957,289.24277,64.952194,-0.02769746,0.0135349035,0.022492409,0.0,0.0,0.0
517.2454,510.76575,80894056,0.7625,0.12765957,271.3846,37.694656,-0.02769746,0.0135349035,0.022492409,0.0,0.0,0.0
521.11346,510.76575,80894073,0.77500004,0.12765957,255.18097,4.693738,-0.02769746,0.0135349035,0.022492409,0.0,0.0,0.0
524.2563,510.76575,80894090,0.75,0.12765957,169.90517,-51.22123,-0.02769746,0.0135349035,0.022492409,0.0,0.0,0.0
527.5245,510.2245,80894106,0.7625,0.12765957,145.83632,-59.102753,-0.02769746,0.0135349035,0.022492409,0.0,0.0,0.0
530.7214,508.44592,80894123,0.75,0.12765957,153.8745,-90.352325,-0.02769746,0.0135349035,0.022492409,0.0,0.0,0.0
534.8058,506.54443,80894140,0.7625,0.11702127,188.60703,-126.64003,-0.02769746,0.0135349035,0.022492409,0.0,0.0,0.0
538.45544,503.96606,80894156,0.75,0.10638297,224.46893,-169.4707,-0.02769746,0.0135349035,0.022492409,0.0,0.0,0.0
542.84143,500.95642,80894173,0.7625,0.08510638,255.0043,-199.69849,-0.02769746,0.0135349035,0.022492409,0.0,0.0,0.0
545.469,497.2384,80894190,0.7375,0.06382979,230.05836,-236.1637,-0.02769746,0.0135349035,0.022492409,0.0,0.0,0.0
549.6652,492.50732,80894206,0.7375,0.06382979,226.50331,-290.6115,-0.02769746,0.0135349035,0.022492409,0.0,0.0,0.0
553.87146,485.75623,80894223,0.75,0.06382979,235.9364,-381.9035,-0.02769746,0.0135349035,0.022492409,0.0,0.0,0.0
558.62756,478.1903,80894240,0.7375,0.08510638,271.73358,-475.05902,-0.02769746,0.0135349035,0.022492409,0.0,0.0,0.0
563.3345,470.71204,80894257,0.7375,0.12765957,300.47742,-534.5856,-0.02769746,0.0135349035,0.022492409,0.0,0.0,0.0
568.3014,462.77136,80894273,0.75,0.12765957,317.96118,-557.118,-0.02769746,0.0135349035,0.022492409,0.0,0.0,0.0
573.86914,451.47668,80894290,0.75,0.08510638,320.7237,-582.54266,0.04984203,-0.04517208,-0.030005455,0.0,0.0,0.0
580.42523,436.79797,80894307,0.7375,0.08510638,371.597,-781.8607,0.04984203,-0.04517208,-0.030005455,0.0,0.0,0.0
585.70264,422.84473,80894323,0.7375,0.09574468,396.04974,-992.2569,0.04984203,-0.04517208,-0.030005455,0.0,0.0,0.0
589.71893,413.31726,80894340,0.7375,0.12765957,310.37134,-894.7083,0.04984203,-0.04517208,-0.030005455,0.0,0.0,0.0
592.0333,407.48206,80894357,0.7375,0.10638297,183.60071,-545.3317,0.04984203,-0.04517208,-0.030005455,0.0,0.0,0.0
596.25116,397.99817,80894374,0.7375,0.08510638,110.36794,-297.19437,0.04984203,-0.04517208,-0.030005455,0.0,0.0,0.0
601.47986,387.80066,80894390,0.7375,0.06382979,209.42513,-403.20932,0.04984203,-0.04517208,-0.030005455,0.0,0.0,0.0
606.12445,378.65613,80894407,0.75,0.08510638,304.3872,-566.11304,0.04984203,-0.04517208,-0.030005455,0.0,0.0,0.0
610.8004,368.3817,80894424,0.7375,0.10638297,335.2548,-656.5524,0.04984203,-0.04517208,-0.030005455,0.0,0.0,0.0
616.36273,357.79126,80894440,0.75,0.10638297,336.3105,-656.692,0.04984203,-0.04517208,-0.030005455,0.0,0.0,0.0
620.9282,348.7871,80894457,0.75,0.08510638,303.02896,-597.3531,0.04984203,-0.04517208,-0.030005455,0.0,0.0,0.0
626.53754,340.07874,80894474,0.7375,0.07446808,321.669,-554.91815,0.04984203,-0.04517208,-0.030005455,0.0,0.0,0.0
631.3648,331.12378,80894491,0.725,0.08510638,330.922,-522.15393,0.04984203,-0.04517208,-0.030005455,0.0,0.0,0.0
636.4925,322.0088,80894507,0.7375,0.09574468,320.95837,-522.3878,0.04984203,-0.04517208,-0.030005455,0.0,0.0,0.0
641.805,314.6599,80894524,0.725,0.11702127,298.9554,-478.17096,0.04984203,-0.04517208,-0.030005455,0.0,0.0,0.0
648.7824,307.40942,80894541,0.725,0.12765957,338.0528,-412.42584,0.04984203,-0.04517208,-0.030005455,0.0,0.0,0.0
658.10846,300.37158,80894557,0.725,0.10638297,458.19482,-355.8205,0.04984203,-0.04517208,-0.030005455,0.0,0.0,0.0
669.8971,295.0205,80894574,0.7375,0.10638297,693.7232,-334.5144,0.04984203,-0.04517208,-0.030005455,0.0,0.0,0.0
679.70013,291.33044,80894591,0.7375,0.10638297,783.76416,-257.165,0.04984203,-0.04517208,-0.030005455,0.0,0.0,0.0
688.0898,289.45386,80894608,0.725,0.11702127,678.71436,-119.86043,0.04984203,-0.04517208,-0.030005455,0.0,0.0,0.0
695.2183,288.6399,80894624,0.725,0.11702127,501.4389,1.4067377,0.04984203,-0.04517208,-0.030005455,0.0,0.0,0.0
703.65576,288.6399,80894641,0.725,0.12765957,394.15002,78.4403,0.04984203,-0.04517208,-0.030005455,0.0,0.0,0.0
713.6738,290.75952,80894658,0.725,0.10638297,459.1676,142.09186,0.04984203,-0.04517208,-0.030005455,0.0,0.0,0.0
722.99036,292.4403,80894674,0.725,0.10638297,560.12885,188.57155,0.04984203,-0.04517208,-0.030005455,0.0,0.0,0.0
732.6607,295.28613,80894691,0.7,0.12765957,653.607,216.11444,0.04984203,-0.04517208,-0.030005455,0.0,0.0,0.0
739.7071,298.52515,80894708,0.71250004,0.10638297,557.1609,225.34537,0.04984203,-0.04517208,-0.030005455,0.0,0.0,0.0
745.87915,302.1676,80894725,0.71250004,0.09574468,384.5597,242.49141,0.04984203,-0.04517208,-0.030005455,0.0,0.0,0.0
753.06586,306.4098,80894741,0.71250004,0.08510638,298.98685,266.10568,0.04984203,-0.04517208,-0.030005455,0.0,0.0,0.0
760.2478,311.88123,80894758,0.725,0.07446808,326.58752,313.1145,0.04984203,-0.04517208,-0.030005455,0.0,0.0,0.0
768.0538,319.87732,80894775,0.725,0.08510638,423.41653,412.66754,0.04984203,-0.04517208,-0.030005455,0.0,0.0,0.0
776.03143,326.698,80894791,0.725,0.08510638,501.8682,516.60114,0.04984203,-0.04517208,-0.030005455,0.0,0.0,0.0
782.34753,333.2124,80894808,0.71250004,0.09574468,464.7813,498.8166,0.04984203,-0.04517208,-0.030005455,0.0,0.0,0.0
788.48315,339.55066,80894825,0.725,0.12765957,389.40283,429.1673,-1.2637489E-4,0.011862338,-0.024003983,0.0,0.0,0.0
792.6322,345.16516,80894841,0.71250004,0.10638297,284.52115,351.68256,-1.2637489E-4,0.011862338,-0.024003983,0.0,0.0,0.0
795.0332,348.72803,80894858,0.71250004,0.10638297,153.9895,251.50339,-1.2637489E-4,0.011862338,-0.024003983,0.0,0.0,0.0
797.5944,352.3922,80894875,0.725,0.09574468,81.33718,195.26276,-1.2637489E-4,0.011862338,-0.024003983,0.0,0.0,0.0
799.6367,355.65015,80894892,0.725,0.09574468,45.438076,144.29666,-1.2637489E-4,0.011862338,-0.024003983,0.0,0.0,0.0
800.97076,357.5055,80894908,0.725,0.09574468,46.69745,105.06815,-1.2637489E-4,0.011862338,-0.024003983,0.0,0.0,0.0
802.0087,360.239,80894925,0.75,0.09574468,44.974945,109.84054,-1.2637489E-4,0.011862338,-0.024003983,0.0,0.0,0.0
802.2167,360.60864,80894942,0.725,0.09574468,8.844459,57.20338,-1.2637489E-4,0.011862338,-0.024003983,0.0,0.0,0.0
802.2167,360.60864,80894958,0.7375,0.09574468,-26.678461,-15.923501,-1.2637489E-4,0.011862338,-0.024003983,0.0,0.0,0.0
802.2167,360.60864,80894975,0.7375,0.09574468,-39.096256,-54.548542,-1.2637489E-4,0.011862338,-0.024003983,0.0,0.0,0.0
802.2167,360.60864,80894992,0.75,0.09574468,-30.020823,-69.839386,-1.2637489E-4,0.011862338,-0.024003983,0.0,0.0,0.0
802.2167,359.74353,80895009,0.7375,0.11702127,-13.52044,-50.94814,-1.2637489E-4,0.011862338,-0.024003983,0.0,0.0,0.0
801.68896,357.89355,80895025,0.7375,0.10638297,-13.486488,-84.97336,-1.2637489E-4,0.011862338,-0.024003983,0.0,0.0,0.0
800.6427,356.0338,80895042,0.7375,0.12765957,-49.378304,-138.92798,-1.2637489E-4,0.011862338,-0.024003983,0.0,0.0,0.0
799.5959,354.17297,80895059,0.7375,0.12765957,-78.84604,-159.63162,-1.2637489E-4,0.011862338,-0.024003983,0.0,0.0,0.0
798.53827,351.40442,80895075,0.725,0.12765957,-89.496574,-174.4955,-1.2637489E-4,0.011862338,-0.024003983,0.0,0.0,0.0
795.8932,347.59106,80895092,0.7375,0.09574468,-125.57399,-203.66629,-1.2637489E-4,0.011862338,-0.024003983,0.0,0.0,0.0
793.5522,343.82507,80895109,0.725,0.08510638,-158.98648,-255.41393,-1.2637489E-4,0.011862338,-0.024003983,0.0,0.0,0.0
790.1475,339.63147,80895126,0.7375,0.08510638,-209.8517,-278.49326,-1.2637489E-4,0.011862338,-0.024003983,0.0,0.0,0.0
786.5574,335.58447,80895142,0.725,0.06382979,-243.74866,-278.7954,-1.2637489E-4,0.011862338,-0.024003983,0.0,0.0,0.0
782.4108,331.89905,80895159,0.725,0.06382979,-261.4452,-251.75667,-1.2637489E-4,0.011862338,-0.024003983,0.0,0.0,0.0
777.93616,327.35132,80895176,0.7375,0.07446808,-281.84064,-247.84186,-1.2637489E-4,0.011862338,-0.024003983,0.0,0.0,0.0
774.2666,323.7721,80895192,0.7375,0.07446808,-266.08606,-232.06004,-1.2637489E-4,0.011862338,-0.024003983,0.0,0.0,0.0
769.422,319.91052,80895209,0.7375,0.08510638,-269.72476,-222.83542,-1.2637489E-4,0.011862338,-0.024003983,0.0,0.0,0.0
764.73395,316.18713,80895226,0.725,0.08510638,-286.7674,-229.88716,-1.2637489E-4,0.011862338,-0.024003983,0.0,0.0,0.0
761.04926,312.46887,80895243,0.7375,0.09574468,-268.94843,-218.73196,-1.2637489E-4,0.011862338,-0.024003983,0.0,0.0,0.0
756.96606,309.80676,80895259,0.7375,0.11702127,-254.7432,-194.67888,-1.2637489E-4,0.011862338,-0.024003983,0.0,0.0,0.0
752.6926,306.81848,80895276,0.725,0.10638297,-237.68596,-159.5631,-1.2637489E-4,0.011862338,-0.024003983,0.0,0.0,0.0
748.8268,305.34058,80895293,0.7375,0.10638297,-226.66855,-108.44417,-1.2637489E-4,0.011862338,-0.024003983,0.0,0.0,0.0
743.3357,303.38904,80895309,0.7375,0.10638297,-268.67783,-80.74565,-1.2637489E-4,0.011862338,-0.024003983,0.0,0.0,0.0
737.5519,301.54602,80895326,0.7375,0.10638297,-344.6192,-84.11799,-1.2637489E-4,0.011862338,-0.024003983,0.0,0.0,0.0
732.07245,299.69678,80895343,0.75,0.10638297,-379.30777,-96.67916,-1.2637489E-4,0.011862338,-0.024003983,0.0,0.0,0.0
726.258,298.77478,80895360,0.7375,0.10638297,-378.23398,-75.19512,0.0078989,-0.0065101236,0.012797356,0.0,0.0,0.0
721.0654,298.41345,80895376,0.7375,0.12765957,-336.83832,-35.649647,0.0078989,-0.0065101236,0.012797356,0.0,0.0,0.0
715.91364,298.41345,80895393,0.7375,0.12765957,-302.1344,16.948225,0.0078989,-0.0065101236,0.012797356,0.0,0.0,0.0
710.699,298.41345,80895410,0.75,0.12765957,-298.52686,40.970543,0.0078989,-0.0065101236,0.012797356,0.0,0.0,0.0
705.4597,298.41345,80895426,0.7375,0.12765957,-292.85745,34.064297,0.0078989,-0.0065101236,0.012797356,0.0,0.0,0.0
701.19794,298.41345,80895443,0.7375,0.11702127,-288.0091,12.996278,0.0078989,-0.0065101236,0.012797356,0.0,0.0,0.0
697.0069,300.29883,80895460,0.75,0.10638297,-257.69016,52.7817,0.0078989,-0.0065101236,0.012797356,0.0,0.0,0.0
691.7702,302.13892,80895476,0.75,0.08510638,-261.33087,116.97291,0.0078989,-0.0065101236,0.012797356,0.0,0.0,0.0
687.1709,304.15906,80895493,0.75,0.08510638,-274.82272,158.01093,0.0078989,-0.0065101236,0.012797356,0.0,0.0,0.0
682.2687,307.7312,80895510,0.75,0.08510638,-295.2254,209.43504,0.0078989,-0.0065101236,0.012797356,0.0,0.0,0.0
677.165,311.62903,80895527,0.75,0.06382979,-309.4773,252.4591,0.0078989,-0.0065101236,0.012797356,0.0,0.0,0.0
671.9774,315.77307,80895543,0.75,0.06382979,-304.1339,283.24365,0.0078989,-0.0065101236,0.012797356,0.0,0.0,0.0
666.57324,321.23706,80895560,0.7625,0.08510638,-320.72107,331.0278,0.0078989,-0.0065101236,0.012797356,0.0,0.0,0.0
661.1507,326.78723,80895577,0.725,0.08510638,-336.8447,359.5389,0.0078989,-0.0065101236,0.012797356,0.0,0.0,0.0
655.51953,332.26,80895593,0.7375,0.11702127,-340.52777,373.76865,0.0078989,-0.0065101236,0.012797356,0.0,0.0,0.0
650.2957,338.53174,80895610,0.7375,0.12765957,-329.96408,378.82004,0.0078989,-0.0065101236,0.012797356,0.0,0.0,0.0
644.2667,347.41028,80895627,0.7375,0.10638297,-325.48535,432.49115,0.0078989,-0.0065101236,0.012797356,0.0,0.0,0.0
637.8106,358.7599,80895644,0.725,0.08510638,-370.093,625.9502,0.0078989,-0.0065101236,0.012797356,0.0,0.0,0.0
632.8262,368.48938,80895660,0.7375,0.07446808,-376.91626,750.2222,0.0078989,-0.0065101236,0.012797356,0.0,0.0,0.0
627.9032,380.05664,80895677,0.7375,0.08510638,-323.75488,776.4925,0.0078989,-0.0065101236,0.012797356,0.0,0.0,0.0
624.45966,391.235,80895694,0.725,0.10638297,-237.90923,735.4843,0.0078989,-0.0065101236,0.012797356,0.0,0.0,0.0
620.7215,405.2268,80895710,0.7375,0.09574468,-171.62115,764.4971,0.0078989,-0.0065101236,0.012797356,0.0,0.0,0.0
617.89874,420.15942,80895727,0.725,0.06382979,-153.39215,891.76355,0.0078989,-0.0065101236,0.012797356,0.0,0.0,0.0
617.2769,434.04724,80895744,0.725,0.08510638,-84.418175,948.9238,0.0078989,-0.0065101236,0.012797356,0.0,0.0,0.0
617.5163,445.79248,80895761,0.725,0.10638297,24.086645,861.2687,0.0078989,-0.0065101236,0.012797356,0.0,0.0,0.0
619.06396,456.7008,80895777,0.7375,0.09574468,135.49393,666.398,0.0078989,-0.0065101236,0.012797356,0.0,0.0,0.0
622.2929,468.18018,80895794,0.75,0.08510638,236.6881,577.4483,0.0078989,-0.0065101236,0.012797356,0.0,0.0,0.0
626.21533,479.95593,80895811,0.7375,0.07446808,293.43317,605.5461,0.0078989,-0.0065101236,0.012797356,0.0,0.0,0.0
630.34924,490.97864,80895827,0.75,0.08510638,320.26093,647.97437,0.0078989,-0.0065101236,0.012797356,0.0,0.0,0.0
633.70685,497.32324,80895844,0.7625,0.10638297,313.24786,583.2763,0.0078989,-0.0065101236,0.012797356,0.0,0.0,0.0
638.2966,503.6953,80895861,0.75,0.12765957,267.46167,356.46518,0.0078989,-0.0065101236,0.012797356,0.0,0.0,0.0
643.49164,511.08313,80895878,0.7625,0.09574468,288.75067,280.85046,0.0078989,-0.0065101236,0.012797356,0.0,0.0,0.0
650.35095,518.3933,80895894,0.75,0.08510638,369.10815,315.09924,-0.01768088,-0.021208107,0.010237694,0.0,0.0,0.0
658.1342,525.86584,80895911,0.75,0.06382979,477.5435,415.87497,-0.01768088,-0.021208107,0.010237694,0.0,0.0,0.0
666.4537,533.5939,80895928,0.75,0.06382979,543.34656,483.86743,-0.01768088,-0.021208107,0.010237694,0.0,0.0,0.0
674.39453,539.39966,80895944,0.75,0.07446808,557.2444,426.11786,-0.01768088,-0.021208107,0.010237694,0.0,0.0,0.0
681.472,543.62305,80895961,0.7375,0.08510638,508.2791,316.90283,-0.01768088,-0.021208107,0.010237694,0.0,0.0,0.0
687.1853,545.926,80895978,0.7375,0.09574468,410.13892,160.86856,-0.01768088,-0.021208107,0.010237694,0.0,0.0,0.0
692.37744,547.77185,80895995,0.7375,0.09574468,295.57703,25.277227,-0.01768088,-0.021208107,0.010237694,0.0,0.0,0.0
697.56476,548.0829,80896011,0.7375,0.08510638,222.94308,-49.85517,-0.01768088,-0.021208107,0.010237694,0.0,0.0,0.0
704.6591,547.3689,80896028,0.7375,0.08510638,299.51074,-89.23463,-0.01768088,-0.021208107,0.010237694,0.0,0.0,0.0
711.8363,544.73694,80896045,0.725,0.06382979,411.03326,-157.38884,-0.01768088,-0.021208107,0.010237694,0.0,0.0,0.0
720.58594,541.037,80896061,0.725,0.06382979,516.4736,-262.3463,-0.01768088,-0.021208107,0.010237694,0.0,0.0,0.0
728.92053,537.3408,80896078,0.725,0.06382979,565.6097,-316.67868,-0.01768088,-0.021208107,0.010237694,0.0,0.0,0.0
738.2915,530.7637,80896095,0.71250004,0.09574468,583.64496,-381.0253,-0.01768088,-0.021208107,0.010237694,0.0,0.0,0.0
749.9093,522.2551,80896111,0.71250004,0.12765957,660.0319,-494.19733,-0.01768088,-0.021208107,0.010237694,0.0,0.0,0.0
766.2171,510.88428,80896128,0.725,0.09574468,847.4747,-668.76636,-0.01768088,-0.021208107,0.010237694,0.0,0.0,0.0
782.2884,497.56177,80896145,0.725,0.07446808,1044.2529,-857.675,-0.01768088,-0.021208107,0.010237694,0.0,0.0,0.0
793.6129,484.0697,80896162,0.725,0.08510638,1027.1243,-964.80853,-0.01768088,-0.021208107,0.010237694,0.0,0.0,0.0
803.02313,472.93237,80896178,0.71250004,0.11702127,752.6973,-896.25916,-0.01768088,-0.021208107,0.010237694,0.0,0.0,0.0
810.0018,464.22278,80896195,0.725,0.12765957,410.7496,-673.4582,-0.01768088,-0.021208107,0.010237694,0.0,0.0,0.0
814.56305,456.8329,80896212,0.725,0.10638297,166.98982,-424.10098,-0.01768088,-0.021208107,0.010237694,0.0,0.0,0.0
818.57117,447.72534,80896228,0.71250004,0.08510638,70.98323,-310.23935,-0.01768088,-0.021208107,0.010237694,0.0,0.0,0.0
822.0385,436.00574,80896245,0.725,0.06382979,62.788128,-498.46786,-0.01768088,-0.021208107,0.010237694,0.0,0.0,0.0
823.661,427.59253,80896262,0.725,0.08510638,69.06415,-639.2109,-0.01768088,-0.021208107,0.010237694,0.0,0.0,0.0
823.7097,420.19275,80896279,0.71250004,0.10638297,0.8635109,-583.6021,-0.01768088,-0.021208107,0.010237694,0.0,0.0,0.0
823.7097,413.739,80896295,0.725,0.12765957,-68.2594,-409.02438,-0.01768088,-0.021208107,0.010237694,0.0,0.0,0.0
823.136,407.17407,80896312,0.725,0.12765957,-108.716095,-283.5235,-0.01768088,-0.021208107,0.010237694,0.0,0.0,0.0
822.71,400.63794,80896329,0.71250004,0.08510638,-91.15775,-308.27277,-0.01768088,-0.021208107,0.010237694,0.0,0.0,0.0
821.53033,393.09204,80896345,0.725,0.07446808,-77.88889,-383.4625,-0.01768088,-0.021208107,0.010237694,0.0,0.0,0.0
820.4985,384.8662,80896362,0.71250004,0.07446808,-78.520454,-468.96478,-0.01768088,-0.021208107,0.010237694,0.0,0.0,0.0
818.7479,378.03198,80896379,0.7375,0.07446808,-97.31612,-504.30725,-0.01768088,-0.021208107,0.010237694,0.0,0.0,0.0
816.93964,371.5963,80896396,0.7375,0.08510638,-124.7205,-436.35367,-0.01768088,-0.021208107,0.010237694,0.0,0.0,0.0
815.5965,366.07507,80896412,0.725,0.11702127,-119.51766,-338.746,-0.01768088,-0.021208107,0.010237694,0.0,0.0,0.0
813.8788,361.49304,80896429,0.7375,0.11702127,-109.74289,-247.7844,-0.014144704,-9.664744E-4,0.024189949,0.0,0.0,0.0
812.82855,357.46448,80896446,0.725,0.12765957,-80.26459,-210.56746,-0.014144704,-9.664744E-4,0.024189949,0.0,0.0,0.0
811.7912,353.7765,80896462,0.725,0.12765957,-55.220272,-179.13597,-0.014144704,-9.664744E-4,0.024189949,0.0,0.0,0.0
810.7488,351.78552,80896479,0.725,0.12765957,-50.478794,-128.08723,-0.014144704,-9.664744E-4,0.024189949,0.0,0.0,0.0
809.7103,349.9397,80896496,0.725,0.12765957,-47.174652,-77.34803,-0.014144704,-9.664744E-4,0.024189949,0.0,0.0,0.0
808.1269,348.09167,80896512,0.7375,0.12765957,-70.34625,-53.917675,-0.014144704,-9.664744E-4,0.024189949,0.0,0.0,0.0
807.12823,346.23816,80896529,0.7375,0.12765957,-80.577156,-64.12598,-0.014144704,-9.664744E-4,0.024189949,0.0,0.0,0.0
806.0732,346.39258,80896546,0.75,0.12765957,-74.4962,-34.029804,-0.014144704,-9.664744E-4,0.024189949,0.0,0.0,0.0
804.5391,346.39258,80896563,0.75,0.12765957,-80.18186,8.124407,-0.014144704,-9.664744E-4,0.024189949,0.0,0.0,0.0
803.5207,346.39258,80896579,0.75,0.12765957,-72.558205,46.96666,-0.014144704,-9.664744E-4,0.024189949,0.0,0.0,0.0
802.4942,346.78784,80896596,0.75,0.12765957,-64.62546,48.47883,-0.014144704,-9.664744E-4,0.024189949,0.0,0.0,0.0
801.445,348.65295,80896613,0.75,0.12765957,-58.54861,75.62408,-0.014144704,-9.664744E-4,0.024189949,0.0,0.0,0.0
801.21704,351.36145,80896629,0.7625,0.11702127,-32.059658,157.08948,-0.014144704,-9.664744E-4,0.024189949,0.0,0.0,0.0
800.71716,354.55493,80896646,0.77500004,0.11702127,-17.392859,226.4114,-0.014144704,-9.664744E-4,0.024189949,0.0,0.0,0.0
800.71716,358.27832,80896663,0.75,0.08510638,5.5329847,266.15976,-0.014144704,-9.664744E-4,0.024189949,0.0,0.0,0.0
800.3731,363.94373,80896680,0.75,0.08510638,10.975789,300.76385,-0.014144704,-9.664744E-4,0.024189949,0.0,0.0,0.0
800.21735,368.60522,80896695,0.725,0.07446808,2.0719535,363.3037,-0.014144704,-9.664744E-4,0.024189949,0.0,0.0,0.0
799.7175,378.8651,80896713,0.75,0.08510638,-21.549557,530.09235,-0.014144704,-9.664744E-4,0.024189949,0.0,0.0,0.0
799.7175,385.77954,80896730,0.725,0.10638297,-16.022337,548.62195,-0.014144704,-9.664744E-4,0.024189949,0.0,0.0,0.0
799.7175,392.39746,80896746,0.7375,0.12765957,-3.8336475,474.54144,-0.014144704,-9.664744E-4,0.024189949,0.0,0.0,0.0
799.1787,400.04883,80896763,0.7375,0.10638297,-5.181915,423.33743,-0.014144704,-9.664744E-4,0.024189949,0.0,0.0,0.0
798.218,408.93738,80896780,0.7375,0.08510638,-38.469128,472.71393,-0.014144704,-9.664744E-4,0.024189949,0.0,0.0,0.0
798.218,418.50574,80896797,0.7375,0.07446808,-42.23537,579.9661,-0.014144704,-9.664744E-4,0.024189949,0.0,0.0,0.0
798.218,428.172,80896813,0.7375,0.07446808,-24.773376,635.33685,-0.014144704,-9.664744E-4,0.024189949,0.0,0.0,0.0
798.218,437.31055,80896830,0.725,0.08510638,12.496316,620.4728,-0.014144704,-9.664744E-4,0.024189949,0.0,0.0,0.0
799.0501,444.71387,80896847,0.725,0.12765957,44.434464,517.4961,-0.014144704,-9.664744E-4,0.024189949,0.0,0.0,0.0
800.0856,453.61902,80896863,0.725,0.12765957,66.0791,453.59293,-0.014144704,-9.664744E-4,0.024189949,0.0,0.0,0.0
801.07043,463.88843,80896880,0.725,0.08510638,82.52325,502.8887,-0.014144704,-9.664744E-4,0.024189949,0.0,0.0,0.0
802.1657,476.3683,80896897,0.725,0.08510638,90.409645,654.2299,-0.014144704,-9.664744E-4,0.024189949,0.0,0.0,0.0
803.2082,486.70325,80896914,0.725,0.08510638,77.9343,782.3605,-0.014144704,-9.664744E-4,0.024189949,0.0,0.0,0.0
805.2611,494.93408,80896930,0.7375,0.11702127,93.070854,664.52875,-0.014144704,-9.664744E-4,0.024189949,0.0,0.0,0.0
808.3745,502.2594,80896947,0.725,0.12765957,156.7059,478.14423,-0.014144704,-9.664744E-4,0.024189949,0.0,0.0,0.0
811.17596,506.27295,80896964,0.725,0.12765957,202.7204,255.28615,-0.011315763,-7.7317655E-4,0.0033521652,0.0,0.0,0.0
815.94305,512.871,80896980,0.7375,0.08510638,273.3416,205.56299,-0.011315763,-7.7317655E-4,0.0033521652,0.0,0.0,0.0
824.28925,520.9972,80896997,0.7375,0.08510638,420.31006,325.03958,-0.011315763,-7.7317655E-4,0.0033521652,0.0,0.0,0.0
834.2644,527.57153,80897014,0.725,0.06382979,623.2435,454.84628,-0.011315763,-7.7317655E-4,0.0033521652,0.0,0.0,0.0
841.81915,530.79114,80897031,0.725,0.07446808,677.0561,365.1839,-0.011315763,-7.7317655E-4,0.0033521652,0.0,0.0,0.0
849.04895,531.2013,80897047,0.725,0.08510638,558.6222,89.3458,-0.011315763,-7.7317655E-4,0.0033521652,0.0,0.0,0.0
853.43024,529.76624,80897064,0.7375,0.09574468,347.5589,-162.80682,-0.011315763,-7.7317655E-4,0.0033521652,0.0,0.0,0.0
858.0512,527.57434,80897081,0.725,0.09574468,195.39285,-264.39743,-0.011315763,-7.7317655E-4,0.0033521652,0.0,0.0,0.0
863.6215,523.8417,80897097,0.71250004,0.10638297,195.5131,-304.58,-0.011315763,-7.7317655E-4,0.0033521652,0.0,0.0,0.0
869.4711,519.00073,80897114,0.71250004,0.12765957,280.64795,-350.2966,-0.011315763,-7.7317655E-4,0.0033521652,0.0,0.0,0.0
876.7063,511.64014,80897131,0.7,0.09574468,398.33737,-439.99957,-0.011315763,-7.7317655E-4,0.0033521652,0.0,0.0,0.0
886.10626,501.38684,80897147,0.6875,0.06382979,533.9094,-598.0141,-0.011315763,-7.7317655E-4,0.0033521652,0.0,0.0,0.0
898.5055,486.60474,80897164,0.7,0.08510638,706.131,-854.9312,-0.011315763,-7.7317655E-4,0.0033521652,0.0,0.0,0.0
911.4507,470.031,80897181,0.71250004,0.12765957,861.2371,-1104.6458,-0.011315763,-7.7317655E-4,0.0033521652,0.0,0.0,0.0
923.1325,455.44434,80897198,0.7,0.08510638,898.5409,-1168.2509,-0.011315763,-7.7317655E-4,0.0033521652,0.0,0.0,0.0
934.8935,440.37048,80897214,0.7,0.06382979,812.6616,-1079.8948,-0.011315763,-7.7317655E-4,0.0033521652,0.0,0.0,0.0
944.2909,426.9812,80897231,0.71250004,0.08510638,634.721,-865.38727,-0.011315763,-7.7317655E-4,0.0033521652,0.0,0.0,0.0
953.1198,414.08362,80897248,0.71250004,0.12765957,515.7049,-756.0385,-0.011315763,-7.7317655E-4,0.0033521652,0.0,0.0,0.0
959.8518,402.92554,80897264,0.71250004,0.09574468,396.25674,-671.2045,-0.011315763,-7.7317655E-4,0.0033521652,0.0,0.0,0.0
968.9624,381.50623,80897281,0.71250004,0.08510638,389.8194,-885.1471,-0.011315763,-7.7317655E-4,0.0033521652,0.0,0.0,0.0
973.74585,367.23035,80897298,0.7,0.09574468,344.12076,-1065.5737,-0.011315763,-7.7317655E-4,0.0033521652,0.0,0.0,0.0
976.5321,354.29565,80897315,0.71250004,0.12765957,228.98212,-1028.0806,-0.011315763,-7.7317655E-4,0.0033521652,0.0,0.0,0.0
978.6057,342.28333,80897331,0.71250004,0.09574468,63.11265,-804.2011,-0.011315763,-7.7317655E-4,0.0033521652,0.0,0.0,0.0
981.66003,325.94287,80897348,0.71250004,0.07446808,19.617342,-721.9765,-0.011315763,-7.7317655E-4,0.0033521652,0.0,0.0,0.0
984.25806,311.91406,80897365,0.7,0.12765957,65.98264,-789.8818,-0.011315763,-7.7317655E-4,0.0033521652,0.0,0.0,0.0
986.15686,296.5547,80897381,0.71250004,0.10638297,119.298615,-943.29333,-0.011315763,-7.7317655E-4,0.0033521652,0.0,0.0,0.0
987.2716,283.37866,80897398,0.7,0.07446808,91.46067,-913.1294,-0.011315763,-7.7317655E-4,0.0033521652,0.0,0.0,0.0
986.48425,268.72424,80897415,0.71250004,0.07446808,-2.882123,-863.66437,-0.011315763,-7.7317655E-4,0.0033521652,0.0,0.0,0.0
985.44495,257.56958,80897432,0.71250004,0.10638297,-95.28531,-746.3578,-0.011315763,-7.7317655E-4,0.0033521652,0.0,0.0,0.0
983.905,245.52515,80897448,0.71250004,0.12765957,-148.6398,-658.83514,-0.011315763,-7.7317655E-4,0.0033521652,0.0,0.0,0.0
982.8667,233.4851,80897465,0.725,0.09574468,-139.3898,-627.7695,-0.011315763,-7.7317655E-4,0.0033521652,0.0,0.0,0.0
981.99927,222.62866,80897482,0.71250004,0.07446808,-89.311356,-639.26935,-0.011315763,-7.7317655E-4,0.0033521652,0.0,0.0,0.0
979.48193,214.26501,80897498,0.7,0.08510638,-95.52613,-593.4966,-0.00905261,-6.185472E-4,0.018681526,0.0,0.0,0.0
976.42456,207.3678,80897515,0.71250004,0.09574468,-157.52612,-436.79242,-0.00905261,-6.185472E-4,0.018681526,0.0,0.0,0.0
973.3058,201.82397,80897532,0.725,0.11702127,-221.92229,-274.5454,-0.00905261,-6.185472E-4,0.018681526,0.0,0.0,0.0
970.68726,197.16907,80897549,0.7,0.12765957,-235.68309,-176.38223,-0.00905261,-6.185472E-4,0.018681526,0.0,0.0,0.0
967.8423,193.78271,80897565,0.725,0.12765957,-193.10052,-145.86298,-0.00905261,-6.185472E-4,0.018681526,0.0,0.0,0.0
962.7527,190.07874,80897582,0.71250004,0.12765957,-218.79918,-132.83632,-0.00905261,-6.185472E-4,0.018681526,0.0,0.0,0.0
958.01074,187.30457,80897599,0.725,0.10638297,-294.3104,-133.55908,-0.00905261,-6.185472E-4,0.018681526,0.0,0.0,0.0
952.9945,186.46204,80897615,0.7375,0.10638297,-346.03796,-76.47199,-0.00905261,-6.185472E-4,0.018681526,0.0,0.0,0.0
949.0247,187.43604,80897632,0.725,0.12765957,-320.65707,32.12525,-0.00905261,-6.185472E-4,0.018681526,0.0,0.0,0.0
945.4981,189.52551,80897649,0.75,0.10638297,-217.52774,187.3041,-0.00905261,-6.185472E-4,0.018681526,0.0,0.0,0.0
942.3782,192.73242,80897665,0.7375,0.08510638,-167.19287,265.34964,-0.00905261,-6.185472E-4,0.018681526,0.0,0.0,0.0
937.97644,200.66943,80897682,0.7375,0.07446808,-177.05939,400.65973,-0.00905261,-6.185472E-4,0.018681526,0.0,0.0,0.0
934.69403,210.10706,80897699,0.725,0.07446808,-218.33167,610.7931,-0.00905261,-6.185472E-4,0.018681526,0.0,0.0,0.0
930.73114,219.46619,80897716,0.71250004,0.08510638,-233.75467,721.1491,-0.00905261,-6.185472E-4,0.018681526,0.0,0.0,0.0
928.067,229.49658,80897732,0.725,0.12765957,-202.42075,731.89526,-0.00905261,-6.185472E-4,0.018681526,0.0,0.0,0.0
925.7997,240.89246,80897749,0.7,0.11702127,-141.1248,693.20764,-0.00905261,-6.185472E-4,0.018681526,0.0,0.0,0.0
925.1767,254.8794,80897766,0.7,0.08510638,-63.003983,789.0979,-0.00905261,-6.185472E-4,0.018681526,0.0,0.0,0.0
925.1767,267.74207,80897782,0.7,0.08510638,17.801947,892.11096,-0.00905261,-6.185472E-4,0.018681526,0.0,0.0,0.0
924.0994,278.80566,80897799,0.6875,0.12765957,35.64415,831.3117,-0.00905261,-6.185472E-4,0.018681526,0.0,0.0,0.0
924.6689,290.30396,80897816,0.675,0.12765957,38.936974,730.9292,-0.00905261,-6.185472E-4,0.018681526,0.0,0.0,0.0
925.158,306.59558,80897833,0.6875,0.08510638,36.97606,763.1852,-0.00905261,-6.185472E-4,0.018681526,0.0,0.0,0.0
927.3786,321.3695,80897849,0.675,0.07446808,95.43375,901.6937,-0.00905261,-6.185472E-4,0.018681526,0.0,0.0,0.0
928.67554,333.8225,80897866,0.6875,0.10638297,154.64981,941.61194,-0.00905261,-6.185472E-4,0.018681526,0.0,0.0,0.0
930.2324,350.84985,80897883,0.7,0.10638297,131.71059,924.0402,-0.00905261,-6.185472E-4,0.018681526,0.0,0.0,0.0
931.9943,366.0448,80897899,0.675,0.07446808,116.01535,919.03815,-0.00905261,-6.185472E-4,0.018681526,0.0,0.0,0.0
933.02686,378.32385,80897916,0.675,0.07446808,81.11,882.68,-0.00905261,-6.185472E-4,0.018681526,0.0,0.0,0.0
934.00885,390.25012,80897933,0.6875,0.10638297,64.594376,744.1933,-0.00905261,-6.185472E-4,0.018681526,0.0,0.0,0.0
936.0417,405.8766,80897950,0.6875,0.10638297,71.22204,714.719,-0.00905261,-6.185472E-4,0.018681526,0.0,0.0,0.0
937.15063,419.8629,80897966,0.6875,0.06382979,78.56296,806.33514,-0.00905261,-6.185472E-4,0.018681526,0.0,0.0,0.0
938.18823,430.94104,80897983,0.6875,0.06382979,81.938095,824.7633,-0.00905261,-6.185472E-4,0.018681526,0.0,0.0,0.0
940.3236,442.00232,80898000,0.675,0.10638297,92.12392,706.2757,-0.00905261,-6.185472E-4,0.018681526,0.0,0.0,0.0
942.3541,456.09106,80898016,0.6875,0.09574468,114.121895,651.93994,-0.00905261,-6.185472E-4,0.018681526,0.0,0.0,0.0
944.54517,469.67163,80898033,0.6625,0.06382979,141.70093,748.6822,-0.04724209,0.023505166,0.030945778,0.0,0.0,0.0
946.33606,481.44067,80898050,0.675,0.06382979,155.09882,809.12396,-0.04724209,0.023505166,0.030945778,0.0,0.0,0.0
947.88104,490.94653,80898067,0.675,0.08510638,117.45837,718.9761,-0.04724209,0.023505166,0.030945778,0.0,0.0,0.0
949.9062,500.85974,80898083,0.6625,0.10638297,89.796364,509.8722,-0.04724209,0.023505166,0.030945778,0.0,0.0,0.0
950.41626,512.5193,80898100,0.6875,0.09574468,62.678627,528.0766,-0.04724209,0.023505166,0.030945778,0.0,0.0,0.0
951.25336,523.13904,80898117,0.6625,0.08510638,30.548779,632.45105,-0.04724209,0.023505166,0.030945778,0.0,0.0,0.0
951.668,532.032,80898133,0.6625,0.06382979,17.988901,618.79944,-0.04724209,0.023505166,0.030945778,0.0,0.0,0.0
952.1679,539.322,80898150,0.6625,0.06382979,0.28970253,498.34454,-0.04724209,0.023505166,0.030945778,0.0,0.0,0.0
952.6677,545.1543,80898167,0.6875,0.08510638,14.115506,328.9465,-0.04724209,0.023505166,0.030945778,0.0,0.0,0.0
953.16754,548.9308,80898184,0.7,0.08510638,26.68912,195.70857,-0.04724209,0.023505166,0.030945778,0.0,0.0,0.0
953.6674,550.80225,80898200,0.7,0.09574468,27.53416,78.51323,-0.04724209,0.023505166,0.030945778,0.0,0.0,0.0
953.6674,551.63684,80898217,0.75,0.10638297,17.261002,-20.793833,-0.04724209,0.023505166,0.030945778,0.0,0.0,0.0
953.6674,551.63684,80898234,0.7625,0.10638297,-4.954438,-78.963806,-0.04724209,0.023505166,0.030945778,0.0,0.0,0.0
953.6674,551.63684,80898245,0.7625,0.08510638,-11.719331,-111.44003,-0.04724209,0.023505166,0.030945778,0.0,0.0,0.0
953.6674,549.219,80898267,0.7625,0.07446808,-13.263891,-136.13814,-0.04724209,0.023505166,0.030945778,0.0,0.0,0.0
953.6674,543.819,80898284,0.75,0.07446808,-0.052840676,-260.6264,-0.04724209,0.023505166,0.030945778,0.0,0.0,0.0
954.43286,535.47644,80898300,0.725,0.08510638,19.963234,-476.987,-0.04724209,0.023505166,0.030945778,0.0,0.0,0.0
954.66705,523.3262,80898317,0.71250004,0.10638297,40.380707,-775.3474,-0.04724209,0.023505166,0.030945778,0.0,0.0,0.0
954.66705,508.3058,80898334,0.71250004,0.10638297,27.192497,-992.3625,-0.04724209,0.023505166,0.030945778,0.0,0.0,0.0
954.66705,489.5359,80898351,0.71250004,0.07446808,4.00607,-1230.7585,-0.04724209,0.023505166,0.030945778,0.0,0.0,0.0
956.01135,473.66418,80898367,0.71250004,0.10638297,15.55248,-1277.5786,-0.04724209,0.023505166,0.030945778,0.0,0.0,0.0
957.6288,459.76428,80898384,0.725,0.12765957,80.35979,-1097.5524,-0.04724209,0.023505166,0.030945778,0.0,0.0,0.0
960.172,446.7655,80898401,0.725,0.07446808,157.2901,-832.5392,-0.04724209,0.023505166,0.030945778,0.0,0.0,0.0
964.8307,433.021,80898417,0.7,0.08510638,257.49283,-714.8883,-0.04724209,0.023505166,0.030945778,0.0,0.0,0.0
968.32056,424.16003,80898434,0.71250004,0.11702127,302.14746,-605.4853,-0.04724209,0.023505166,0.030945778,0.0,0.0,0.0
974.9579,413.5929,80898451,0.71250004,0.12765957,361.51358,-528.8207,-0.04724209,0.023505166,0.030945778,0.0,0.0,0.0
984.91113,402.2755,80898468,0.71250004,0.10638297,514.6345,-517.91077,-0.04724209,0.023505166,0.030945778,0.0,0.0,0.0
995.09436,394.42468,80898484,0.71250004,0.08510638,672.45215,-493.55347,-0.04724209,0.023505166,0.030945778,0.0,0.0,0.0
1006.04333,386.8766,80898501,0.71250004,0.07446808,802.98553,-504.49234,-0.04724209,0.023505166,0.030945778,0.0,0.0,0.0
1016.16907,382.71375,80898518,0.7,0.08510638,763.22485,-323.8595,-0.04724209,0.023505166,0.030945778,0.0,0.0,0.0
1026.1998,381.0443,80898534,0.71250004,0.07446808,653.36536,-81.66864,-0.04724209,0.023505166,0.030945778,0.0,0.0,0.0
1034.1255,381.67493,80898551,0.71250004,0.08510638,532.67194,108.15513,-0.021793671,-0.005195871,0.024756432,0.0,0.0,0.0
1042.8145,384.41528,80898568,0.71250004,0.08510638,462.33932,277.91385,-0.021793671,-0.005195871,0.024756432,0.0,0.0,0.0
1047.9263,387.29187,80898585,0.71250004,0.09574468,340.3001,311.7213,-0.021793671,-0.005195871,0.024756432,0.0,0.0,0.0
1054.1803,392.11047,80898601,0.7,0.10638297,271.85812,336.3083,-0.021793671,-0.005195871,0.024756432,0.0,0.0,0.0
1059.1752,397.9707,80898618,0.7,0.09574468,255.04132,397.34677,-0.021793671,-0.005195871,0.024756432,0.0,0.0,0.0
1063.9612,407.63098,80898635,0.71250004,0.08510638,240.76227,519.28925,-0.021793671,-0.005195871,0.024756432,0.0,0.0,0.0
1067.5293,419.6018,80898651,0.7,0.07446808,216.9258,732.3794,-0.021793671,-0.005195871,0.024756432,0.0,0.0,0.0
1071.0726,434.41614,80898668,0.71250004,0.08510638,196.15779,960.77795,-0.021793671,-0.005195871,0.024756432,0.0,0.0,0.0
1073.0067,448.5929,80898685,0.71250004,0.12765957,131.22891,1048.354,-0.021793671,-0.005195871,0.024756432,0.0,0.0,0.0
1073.8359,465.8064,80898702,0.7,0.08510638,55.950245,1083.3086,-0.021793671,-0.005195871,0.024756432,0.0,0.0,0.0
1074.1282,485.8899,80898718,0.71250004,0.07446808,-21.970064,1188.1567,-0.021793671,-0.005195871,0.024756432,0.0,0.0,0.0
1074.917,502.43665,80898735,0.71250004,0.12765957,-42.6242,1251.6799,-0.021793671,-0.005195871,0.024756432,0.0,0.0,0.0
1076.293,517.8644,80898752,0.71250004,0.08510638,12.282995,1114.9285,-0.021793671,-0.005195871,0.024756432,0.0,0.0,0.0
1078.7391,535.35425,80898768,0.7,0.08510638,99.92438,945.3343,-0.021793671,-0.005195871,0.024756432,0.0,0.0,0.0
1081.8553,547.1221,80898785,0.71250004,0.09574468,194.42538,765.47516,-0.021793671,-0.005195871,0.024756432,0.0,0.0,0.0
1084.4749,555.635,80898802,0.71250004,0.12765957,228.85619,605.099,-0.021793671,-0.005195871,0.024756432,0.0,0.0,0.0
1088.566,563.0853,80898819,0.7,0.12765957,243.96652,381.7825,-0.021793671,-0.005195871,0.024756432,0.0,0.0,0.0
1091.7068,566.84143,80898835,0.725,0.08510638,236.37488,130.61191,-0.021793671,-0.005195871,0.024756432,0.0,0.0,0.0
1096.9609,571.4258,80898852,0.7375,0.08510638,274.29694,77.32413,-0.021793671,-0.005195871,0.024756432,0.0,0.0,0.0
1104.4384,576.04285,80898869,0.71250004,0.08510638,389.26974,136.9542,-0.021793671,-0.005195871,0.024756432,0.0,0.0,0.0
1110.6632,577.7135,80898885,0.725,0.08510638,456.4727,105.93543,-0.021793671,-0.005195871,0.024756432,0.0,0.0,0.0
1117.8942,578.292,80898902,0.7,0.08510638,489.6646,45.09493,-0.021793671,-0.005195871,0.024756432,0.0,0.0,0.0
1125.4045,577.8937,80898919,0.7,0.09574468,482.04138,-72.40687,-0.021793671,-0.005195871,0.024756432,0.0,0.0,0.0
1134.4962,574.6836,80898935,0.6875,0.11702127,517.3463,-198.65591,-0.021793671,-0.005195871,0.024756432,0.0,0.0,0.0
1145.6469,569.08594,80898952,0.6875,0.10638297,634.53406,-336.73862,-0.021793671,-0.005195871,0.024756432,0.0,0.0,0.0
1158.2416,559.5083,80898969,0.6875,0.08510638,770.7947,-563.7695,-0.021793671,-0.005195871,0.024756432,0.0,0.0,0.0
1171.6311,544.55457,80898986,0.6875,0.07446808,873.8814,-870.8554,-0.021793671,-0.005195871,0.024756432,0.0,0.0,0.0
1186.7329,525.7975,80899002,0.6875,0.11702127,943.62915,-1195.3396,-0.021793671,-0.005195871,0.024756432,0.0,0.0,0.0
1207.0303,500.8263,80899019,0.6375,0.08510638,1137.5187,-1589.1687,-0.021793671,-0.005195871,0.024756432,0.0,0.0,0.0
1223.0797,488.5531,80899028,0.25,0.08510638,1319.1106,-1718.6969,-0.021793671,-0.005195871,0.024756432,0.0,0.0,0.0
1223.0797,488.5531,80899036,0.25,0.08510638,1319.1106,-1718.6969,-0.021793671,-0.005195871,0.024756432,0.0,0.0,0.0
