x,y,timestamp,pressure,fingerarea,velocityx,velocityy,accelx,accely,accelz,gyrox,gyroy,gyroz
507.81256,268.20435,17368618,0.875,0.06382979,0.0,0.0,0.00920929,0.017862797,-0.0135707855,0.0,0.0,0.0
507.81256,268.20435,17368641,0.9125,0.08510638,-0.1327588,-0.07178569,0.00920929,0.017862797,-0.0135707855,0.0,0.0,0.0
507.81256,268.20435,17368658,0.9375,0.08510638,0.033836883,0.019039398,0.00920929,0.017862797,-0.0135707855,0.0,0.0,0.0
507.81256,268.20435,17368674,0.95,0.08510638,-0.014474299,-0.009026692,0.00920929,0.017862797,-0.0135707855,0.0,0.0,0.0
507.81256,268.20435,17368691,0.9375,0.08510638,0.022026652,0.013039503,0.00920929,0.017862797,-0.0135707855,0.0,0.0,0.0
507.81256,268.20435,17368708,0.925,0.09574468,0.04123428,0.022730956,0.00920929,0.017862797,-0.0135707855,0.0,0.0,0.0
483.93024,266.42737,17368724,0.9375,0.09574468,-763.7968,-62.08823,0.00920929,0.017862797,-0.0135707855,0.0,0.0,0.0
471.6678,267.8064,17368741,0.9375,0.08510638,-1134.7588,-28.51926,0.00920929,0.017862797,-0.0135707855,0.0,0.0,0.0
457.8424,273.02075,17368758,0.95,0.08510638,-1261.7535,152.72656,-0.008632578,-0.0017097592,-0.010856628,0.0,0.0,0.0
443.27158,282.0868,17368775,0.90000004,0.10638297,-1050.8572,497.84628,-0.008632578,-0.0017097592,-0.010856628,0.0,0.0,0.0
427.7501,295.8379,17368791,0.9125,0.11702127,-756.8922,900.0492,-0.008632578,-0.0017097592,-0.010856628,0.0,0.0,0.0
413.16412,311.71472,17368808,0.925,0.08510638,-960.87164,1116.1891,-0.008632578,-0.0017097592,-0.010856628,0.0,0.0,0.0
401.9602,327.21777,17368825,0.925,0.09574468,-839.1591,1212.0659,-0.008632578,-0.0017097592,-0.010856628,0.0,0.0,0.0
389.48737,350.36865,17368841,0.925,0.12765957,-694.7965,1346.5914,-0.008632578,-0.0017097592,-0.010856628,0.0,0.0,0.0
382.78033,370.4895,17368858,0.925,0.08510638,-498.26028,1411.9645,-0.008632578,-0.0017097592,-0.010856628,0.0,0.0,0.0
379.94128,387.45557,17368875,0.925,0.10638297,-217.77373,1322.89,-0.008632578,-0.0017097592,-0.010856628,0.0,0.0,0.0
380.34225,404.05127,17368892,0.925,0.12765957,74.056274,1099.9905,-0.008632578,-0.0017097592,-0.010856628,0.0,0.0,0.0
384.04227,422.656,17368908,0.9375,0.08510638,348.62866,964.77014,-0.008632578,-0.0017097592,-0.010856628,0.0,0.0,0.0
390.90042,437.1084,17368925,0.95,0.09574468,557.82495,891.3595,-0.008632578,-0.0017097592,-0.010856628,0.0,0.0,0.0
397.9419,446.312,17368942,0.925,0.12765957,619.0236,714.40875,-0.008632578,-0.0017097592,-0.010856628,0.0,0.0,0.0
409.26392,457.5387,17368958,0.9375,0.11702127,734.04877,547.924,-0.008632578,-0.0017097592,-0.010856628,0.0,0.0,0.0
423.1722,465.52002,17368975,0.9375,0.10638297,884.6991,388.38925,-0.008632578,-0.0017097592,-0.010856628,0.0,0.0,0.0
439.64673,469.7588,17368992,0.9375,0.08510638,1068.9657,276.23737,-0.008632578,-0.0017097592,-0.010856628,0.0,0.0,0.0
454.3241,470.57886,17369009,0.9375,0.10638297,1123.4369,87.43556,-0.008632578,-0.0017097592,-0.010856628,0.0,0.0,0.0
469.95984,467.04102,17369025,0.925,0.11702127,1065.9641,-270.86703,-0.008632578,-0.0017097592,-0.010856628,0.0,0.0,0.0
482.1131,461.83716,17369042,0.925,0.12765957,866.19867,-504.41055,-0.008632578,-0.0017097592,-0.010856628,0.0,0.0,0.0
494.53656,455.41052,17369059,0.925,0.10638297,692.2538,-598.7028,-0.008632578,-0.0017097592,-0.010856628,0.0,0.0,0.0
507.6728,446.68408,17369075,0.90000004,0.08510638,643.03345,-622.6561,-0.008632578,-0.0017097592,-0.010856628,0.0,0.0,0.0
519.412,435.65417,17369092,0.90000004,0.07446808,679.2748,-684.299,-0.008632578,-0.0017097592,-0.010856628,0.0,0.0,0.0
532.69073,419.38977,17369109,0.875,0.11702127,755.41766,-909.0258,-0.008632578,-0.0017097592,-0.010856628,0.0,0.0,0.0
546.41943,398.68665,17369126,0.875,0.06382979,807.9369,-1241.043,-0.008632578,-0.0017097592,-0.010856628,0.0,0.0,0.0
559.80963,376.5769,17369142,0.8625,0.10638297,835.50323,-1514.8853,-0.008632578,-0.0017097592,-0.010856628,0.0,0.0,0.0
570.66675,356.11743,17369159,0.85,0.08510638,758.3288,-1539.5154,-0.008632578,-0.0017097592,-0.010856628,0.0,0.0,0.0
582.4384,326.10474,17369176,0.85,0.08510638,712.55865,-1732.5477,-0.008632578,-0.0017097592,-0.010856628,0.0,0.0,0.0
586.20575,308.39282,17369192,0.83750004,0.12765957,431.96127,-1537.992,-0.008632578,-0.0017097592,-0.010856628,0.0,0.0,0.0
586.78687,294.87134,17369209,0.85,0.11702127,31.527653,-1058.7609,-0.008632578,-0.0017097592,-0.010856628,0.0,0.0,0.0
584.93567,283.83557,17369226,0.85,0.08510638,-268.9274,-570.9088,-0.008632578,-0.0017097592,-0.010856628,0.0,0.0,0.0
581.36774,275.45288,17369243,0.8625,0.07446808,-459.7818,-207.9384,-0.008632578,-0.0017097592,-0.010856628,0.0,0.0,0.0
574.00555,268.27502,17369259,0.8875,0.08510638,-489.98102,-245.78024,-0.008632578,-0.0017097592,-0.010856628,0.0,0.0,0.0
562.9714,263.2218,17369276,0.9125,0.08510638,-676.13385,-197.7269,-0.008632578,-0.0017097592,-0.010856628,0.0,0.0,0.0
551.4136,261.98486,17369293,0.9125,0.08510638,-859.9262,-88.14213,0.00909394,-0.01736781,0.007314682,0.0,0.0,0.0
542.1338,263.688,17369309,0.9125,0.09574468,-863.2695,126.66712,0.00909394,-0.01736781,0.007314682,0.0,0.0,0.0
534.1416,268.328,17369326,0.9375,0.08510638,-652.408,347.65115,0.00909394,-0.01736781,0.007314682,0.0,0.0,0.0
528.99725,272.9757,17369343,0.9375,0.10638297,-375.43616,477.9466,0.00909394,-0.01736781,0.007314682,0.0,0.0,0.0
523.0412,281.81067,17369359,0.90000004,0.12765957,-218.82297,562.2096,0.00909394,-0.01736781,0.007314682,0.0,0.0,0.0
518.6658,296.25696,17369376,0.8875,0.10638297,-186.87802,786.1983,0.00909394,-0.01736781,0.007314682,0.0,0.0,0.0
517.80927,312.3661,17369393,0.8625,0.07446808,-113.644646,1053.6818,0.00909394,-0.01736781,0.007314682,0.0,0.0,0.0
518.74365,327.38574,17369410,0.875,0.08510638,32.358936,1216.4408,0.00909394,-0.01736781,0.007314682,0.0,0.0,0.0
521.83453,338.46692,17369426,0.8625,0.12765957,249.36566,1017.04,0.00909394,-0.01736781,0.007314682,0.0,0.0,0.0
525.6876,347.5913,17369443,0.8875,0.11702127,384.38116,641.36804,0.00909394,-0.01736781,0.007314682,0.0,0.0,0.0
530.06854,352.55872,17369460,0.925,0.11702127,370.25165,282.4906,0.00909394,-0.01736781,0.007314682,0.0,0.0,0.0
540.62384,356.55774,17369476,0.95,0.10638297,498.77725,61.76958,0.00909394,-0.01736781,0.007314682,0.0,0.0,0.0
557.6741,356.3756,17369493,0.9375,0.09574468,853.3676,-68.03887,0.00909394,-0.01736781,0.007314682,0.0,0.0,0.0
574.39233,352.04297,17369510,0.8875,0.12765957,1211.277,-273.86874,0.00909394,-0.01736781,0.007314682,0.0,0.0,0.0
590.75006,345.5199,17369527,0.875,0.12765957,1357.9188,-494.80475,0.00909394,-0.01736781,0.007314682,0.0,0.0,0.0
609.14716,332.4159,17369543,0.85,0.06382979,1227.4501,-785.3293,0.00909394,-0.01736781,0.007314682,0.0,0.0,0.0
627.7214,312.7417,17369560,0.85,0.11702127,1160.658,-1179.2603,0.00909394,-0.01736781,0.007314682,0.0,0.0,0.0
645.3931,291.45312,17369577,0.85,0.08510638,1131.6208,-1505.9768,0.00909394,-0.01736781,0.007314682,0.0,0.0,0.0
665.80176,264.59875,17369593,0.8625,0.08510638,1192.7942,-1783.7517,0.00909394,-0.01736781,0.007314682,0.0,0.0,0.0
684.68195,239.67566,17369610,0.83750004,0.09574468,1207.8943,-1859.3212,0.00909394,-0.01736781,0.007314682,0.0,0.0,0.0
700.7746,217.45386,17369627,0.83750004,0.08510638,1071.281,-1592.2197,0.00909394,-0.01736781,0.007314682,0.0,0.0,0.0
712.47736,198.97522,17369644,0.83750004,0.10638297,890.36005,-1353.4308,0.00909394,-0.01736781,0.007314682,0.0,0.0,0.0
719.6968,186.02869,17369660,0.83750004,0.08510638,502.20547,-912.19324,0.00909394,-0.01736781,0.007314682,0.0,0.0,0.0
724.39777,172.30444,17369677,0.83750004,0.06382979,148.52052,-593.8993,0.00909394,-0.01736781,0.007314682,0.0,0.0,0.0
724.74194,164.2865,17369694,0.85,0.06382979,-119.2298,-372.59647,0.00909394,-0.01736781,0.007314682,0.0,0.0,0.0
722.429,158.36108,17369710,0.8625,0.08510638,-327.64316,-204.28363,0.00909394,-0.01736781,0.007314682,0.0,0.0,0.0
717.47565,153.72449,17369727,0.875,0.08510638,-434.01523,-140.59348,0.00909394,-0.01736781,0.007314682,0.0,0.0,0.0
709.1769,150.90808,17369744,0.9125,0.09574468,-588.65717,-46.089355,0.00909394,-0.01736781,0.007314682,0.0,0.0,0.0
700.33795,151.90198,17369761,0.90000004,0.08510638,-696.1533,84.34984,0.00909394,-0.01736781,0.007314682,0.0,0.0,0.0
692.52045,154.80115,17369777,0.90000004,0.08510638,-677.663,217.6146,0.00909394,-0.01736781,0.007314682,0.0,0.0,0.0
683.11676,163.59656,17369794,0.9125,0.08510638,-635.94293,491.99258,0.00909394,-0.01736781,0.007314682,0.0,0.0,0.0
672.6508,175.03955,17369811,0.875,0.10638297,-618.29126,770.0682,0.00909394,-0.01736781,0.007314682,0.0,0.0,0.0
658.26263,202.9906,17369827,0.8625,0.08510638,-741.48615,1332.2971,-0.008724846,-0.013894245,-0.026147842,0.0,0.0,0.0
648.59766,228.42615,17369844,0.8625,0.12765957,-824.6587,1934.9846,-0.008724846,-0.013894245,-0.026147842,0.0,0.0,0.0
640.00714,259.094,17369861,0.875,0.09574468,-675.1531,2209.5637,-0.008724846,-0.013894245,-0.026147842,0.0,0.0,0.0
631.10846,287.53577,17369878,0.875,0.12765957,-496.1855,2183.557,-0.008724846,-0.013894245,-0.026147842,0.0,0.0,0.0
622.3879,319.73145,17369894,0.875,0.06382979,-402.8533,1972.7715,-0.008724846,-0.013894245,-0.026147842,0.0,0.0,0.0
615.40283,347.8717,17369911,0.8875,0.10638297,-401.91754,1840.4434,-0.008724846,-0.013894245,-0.026147842,0.0,0.0,0.0
609.1175,377.90393,17369928,0.8875,0.07446808,-399.45142,1812.0055,-0.008724846,-0.013894245,-0.026147842,0.0,0.0,0.0
604.8351,406.33032,17369944,0.8625,0.12765957,-283.49512,1734.8435,-0.008724846,-0.013894245,-0.026147842,0.0,0.0,0.0
602.257,430.48462,17369961,0.875,0.08510638,-136.16324,1571.3573,-0.008724846,-0.013894245,-0.026147842,0.0,0.0,0.0
602.84534,446.8108,17369978,0.875,0.12765957,26.458586,1183.1626,-0.008724846,-0.013894245,-0.026147842,0.0,0.0,0.0
604.9731,463.26367,17369994,0.8875,0.08510638,193.1972,841.8288,-0.008724846,-0.013894245,-0.026147842,0.0,0.0,0.0
608.2908,474.81042,17370011,0.8875,0.06382979,309.53156,535.22815,-0.008724846,-0.013894245,-0.026147842,0.0,0.0,0.0
611.1306,481.18152,17370028,0.90000004,0.08510638,332.68073,306.84476,-0.008724846,-0.013894245,-0.026147842,0.0,0.0,0.0
617.071,488.81445,17370045,0.925,0.08510638,351.19247,189.97072,-0.008724846,-0.013894245,-0.026147842,0.0,0.0,0.0
623.5632,494.35754,17370061,0.925,0.10638297,403.89914,135.95467,-0.008724846,-0.013894245,-0.026147842,0.0,0.0,0.0
631.66675,497.9701,17370078,0.90000004,0.11702127,511.51416,141.56787,-0.008724846,-0.013894245,-0.026147842,0.0,0.0,0.0
641.9814,499.2152,17370095,0.90000004,0.11702127,635.5215,81.459206,-0.008724846,-0.013894245,-0.026147842,0.0,0.0,0.0
654.83356,497.0121,17370111,0.9125,0.08510638,786.8152,-99.85449,-0.008724846,-0.013894245,-0.026147842,0.0,0.0,0.0
668.6717,489.6388,17370128,0.8875,0.08510638,907.0102,-399.0335,-0.008724846,-0.013894245,-0.026147842,0.0,0.0,0.0
681.37164,480.0476,17370145,0.8875,0.08510638,965.4521,-697.7046,-0.008724846,-0.013894245,-0.026147842,0.0,0.0,0.0
692.68835,469.94617,17370162,0.875,0.11702127,839.5905,-856.5569,-0.008724846,-0.013894245,-0.026147842,0.0,0.0,0.0
706.13885,458.912,17370178,0.875,0.10638297,738.96625,-847.0195,-0.008724846,-0.013894245,-0.026147842,0.0,0.0,0.0
720.3164,446.72864,17370195,0.875,0.08510638,766.23395,-802.1886,-0.008724846,-0.013894245,-0.026147842,0.0,0.0,0.0
737.0041,433.86987,17370212,0.875,0.08510638,917.51495,-798.36566,-0.008724846,-0.013894245,-0.026147842,0.0,0.0,0.0
751.66754,422.37024,17370228,0.85,0.11702127,1021.3738,-805.2187,-0.008724846,-0.013894245,-0.026147842,0.0,0.0,0.0
767.32605,413.08704,17370245,0.8625,0.10638297,1001.3936,-692.39966,-0.008724846,-0.013894245,-0.026147842,0.0,0.0,0.0
783.4188,405.16882,17370262,0.8625,0.12765957,965.53143,-488.09573,-0.008724846,-0.013894245,-0.026147842,0.0,0.0,0.0
797.7198,399.1554,17370279,0.85,0.11702127,919.6158,-317.13928,-0.008724846,-0.013894245,-0.026147842,0.0,0.0,0.0
810.7051,392.7351,17370295,0.8625,0.08510638,838.2449,-257.96466,-0.008724846,-0.013894245,-0.026147842,0.0,0.0,0.0
824.1437,387.2224,17370312,0.8625,0.08510638,745.4035,-261.40808,-0.008724846,-0.013894245,-0.026147842,0.0,0.0,0.0
837.03815,381.72803,17370329,0.85,0.08510638,690.4981,-269.42026,-0.008724846,-0.013894245,-0.026147842,0.0,0.0,0.0
845.58014,378.53674,17370345,0.8625,0.08510638,618.8672,-246.22359,0.00902012,0.020884603,0.027082443,0.0,0.0,0.0
852.4546,377.49023,17370362,0.8625,0.09574468,448.2437,-118.64838,0.00902012,0.020884603,0.027082443,0.0,0.0,0.0
857.7109,377.49023,17370379,0.875,0.09574468,250.22522,43.28302,0.00902012,0.020884603,0.027082443,0.0,0.0,0.0
860.2754,377.49023,17370396,0.875,0.09574468,83.349625,116.96569,0.00902012,0.020884603,0.027082443,0.0,0.0,0.0
861.778,377.49023,17370412,0.90000004,0.09574468,-8.66253,105.70842,0.00902012,0.020884603,0.027082443,0.0,0.0,0.0
862.1972,377.49023,17370429,0.90000004,0.09574468,-61.44629,45.7518,0.00902012,0.020884603,0.027082443,0.0,0.0,0.0
862.1972,377.49023,17370439,0.925,0.09574468,-105.0875,23.921598,0.00902012,0.020884603,0.027082443,0.0,0.0,0.0
862.00195,377.49023,17370462,0.90000004,0.09574468,-88.330284,0.028910138,0.00902012,0.020884603,0.027082443,0.0,0.0,0.0
859.75934,377.90723,17370479,0.90000004,0.09574468,-106.304306,6.7206235,0.00902012,0.020884603,0.027082443,0.0,0.0,0.0
851.10425,380.2505,17370496,0.875,0.08510638,-333.98917,79.2469,0.00902012,0.020884603,0.027082443,0.0,0.0,0.0
836.77466,381.93274,17370513,0.875,0.08510638,-802.0718,160.688,0.00902012,0.020884603,0.027082443,0.0,0.0,0.0
823.4575,383.42737,17370529,0.875,0.09574468,-1097.5592,155.53961,0.00902012,0.020884603,0.027082443,0.0,0.0,0.0
811.5686,385.21216,17370546,0.8875,0.09574468,-1055.3318,116.31189,0.00902012,0.020884603,0.027082443,0.0,0.0,0.0
799.1417,387.87854,17370563,0.90000004,0.08510638,-883.34326,112.79497,0.00902012,0.020884603,0.027082443,0.0,0.0,0.0
787.5492,391.58984,17370579,0.90000004,0.09574468,-687.169,178.91989,0.00902012,0.020884603,0.027082443,0.0,0.0,0.0
775.5513,397.1217,17370596,0.875,0.12765957,-679.2093,316.16626,0.00902012,0.020884603,0.027082443,0.0,0.0,0.0
766.33014,403.52222,17370613,0.8625,0.11702127,-636.32806,418.22455,0.00902012,0.020884603,0.027082443,0.0,0.0,0.0
758.5888,411.01697,17370630,0.8875,0.09574468,-503.3839,499.26825,0.00902012,0.020884603,0.027082443,0.0,0.0,0.0
750.9625,419.27466,17370646,0.90000004,0.08510638,-387.37573,545.4116,0.00902012,0.020884603,0.027082443,0.0,0.0,0.0
744.54645,428.47083,17370663,0.8875,0.08510638,-308.323,564.86633,0.00902012,0.020884603,0.027082443,0.0,0.0,0.0
737.6797,440.67712,17370680,0.90000004,0.09574468,-326.2279,703.394,0.00902012,0.020884603,0.027082443,0.0,0.0,0.0
733.48846,450.34973,17370696,0.90000004,0.10638297,-304.44455,734.40576,0.00902012,0.020884603,0.027082443,0.0,0.0,0.0
731.1595,459.51807,17370713,0.9125,0.09574468,-166.00371,666.301,0.00902012,0.020884603,0.027082443,0.0,0.0,0.0
730.2401,468.37537,17370730,0.90000004,0.08510638,-17.495773,535.78687,0.00902012,0.020884603,0.027082443,0.0,0.0,0.0
730.2401,476.49353,17370746,0.8875,0.06382979,95.934296,431.46143,0.00902012,0.020884603,0.027082443,0.0,0.0,0.0
731.1411,485.1859,17370763,0.9125,0.08510638,126.599686,484.84116,0.00902012,0.020884603,0.027082443,0.0,0.0,0.0
733.4439,491.58252,17370780,0.95,0.08510638,160.23279,414.01395,0.00902012,0.020884603,0.027082443,0.0,0.0,0.0
736.18665,494.71167,17370797,0.95,0.10638297,209.75827,282.93787,0.00902012,0.020884603,0.027082443,0.0,0.0,0.0
742.93726,500.25696,17370813,0.9125,0.12765957,342.86462,189.69397,0.00902012,0.020884603,0.027082443,0.0,0.0,0.0
754.0367,505.792,17370830,0.925,0.12765957,593.8779,216.43744,0.00902012,0.020884603,0.027082443,0.0,0.0,0.0
766.0584,509.35242,17370847,0.9125,0.10638297,822.8617,247.18152,0.00902012,0.020884603,0.027082443,0.0,0.0,0.0
776.7053,512.29395,17370863,0.90000004,0.10638297,887.6668,211.91093,0.00902012,0.020884603,0.027082443,0.0,0.0,0.0
787.49963,513.8362,17370880,0.90000004,0.12765957,827.1136,118.91702,-0.008783914,0.016707674,0.037665367,0.0,0.0,0.0
796.29236,514.3197,17370897,0.875,0.12765957,623.2141,-1.9572198,-0.008783914,0.016707674,0.037665367,0.0,0.0,0.0
804.3118,515.20825,17370914,0.8875,0.12765957,490.38367,-14.488388,-0.008783914,0.016707674,0.037665367,0.0,0.0,0.0
812.3017,514.6781,17370930,0.8875,0.12765957,426.30103,-34.38223,-0.008783914,0.016707674,0.037665367,0.0,0.0,0.0
820.38574,512.83704,17370947,0.8875,0.10638297,395.90308,-103.33206,-0.008783914,0.016707674,0.037665367,0.0,0.0,0.0
828.6692,510.99646,17370964,0.875,0.10638297,438.00552,-159.3351,-0.008783914,0.016707674,0.037665367,0.0,0.0,0.0
836.9328,508.44348,17370980,0.875,0.12765957,477.13043,-198.02615,-0.008783914,0.016707674,0.037665367,0.0,0.0,0.0
843.4579,505.58008,17370997,0.8625,0.10638297,461.64075,-210.60709,-0.008783914,0.016707674,0.037665367,0.0,0.0,0.0
850.2306,500.96594,17371014,0.8625,0.09574468,400.65692,-249.06693,-0.008783914,0.016707674,0.037665367,0.0,0.0,0.0
858.0522,494.4585,17371031,0.83750004,0.08510638,392.06882,-362.8586,-0.008783914,0.016707674,0.037665367,0.0,0.0,0.0
865.3844,486.01172,17371047,0.85,0.08510638,414.00912,-509.59753,-0.008783914,0.016707674,0.037665367,0.0,0.0,0.0
871.436,478.7893,17371064,0.85,0.10638297,415.2888,-574.02246,-0.008783914,0.016707674,0.037665367,0.0,0.0,0.0
878.37286,469.28418,17371081,0.85,0.10638297,406.23526,-611.5495,-0.008783914,0.016707674,0.037665367,0.0,0.0,0.0
884.3608,460.511,17371097,0.83750004,0.09574468,367.5548,-604.6294,-0.008783914,0.016707674,0.037665367,0.0,0.0,0.0
889.4753,453.39148,17371114,0.8625,0.08510638,331.1753,-519.17535,-0.008783914,0.016707674,0.037665367,0.0,0.0,0.0
893.50824,445.73608,17371131,0.8625,0.07446808,266.81177,-462.1873,-0.008783914,0.016707674,0.037665367,0.0,0.0,0.0
897.12006,436.03003,17371148,0.85,0.07446808,182.82426,-466.1862,-0.008783914,0.016707674,0.037665367,0.0,0.0,0.0
899.35156,429.91248,17371164,0.8625,0.08510638,105.792336,-456.5881,-0.008783914,0.016707674,0.037665367,0.0,0.0,0.0
900.56213,422.78625,17371181,0.8625,0.08510638,46.44024,-422.6683,-0.008783914,0.016707674,0.037665367,0.0,0.0,0.0
901.1845,416.05945,17371198,0.85,0.12765957,1.3391416,-386.8176,-0.008783914,0.016707674,0.037665367,0.0,0.0,0.0
901.6843,409.66736,17371214,0.8625,0.12765957,-31.12115,-344.18872,-0.008783914,0.016707674,0.037665367,0.0,0.0,0.0
901.6843,404.96155,17371231,0.85,0.12765957,-38.544518,-309.74774,-0.008783914,0.016707674,0.037665367,0.0,0.0,0.0
901.6843,401.2799,17371248,0.8625,0.10638297,-30.057802,-242.7453,-0.008783914,0.016707674,0.037665367,0.0,0.0,0.0
901.6843,398.64978,17371265,0.85,0.10638297,-21.164635,-136.74185,-0.008783914,0.016707674,0.037665367,0.0,0.0,0.0
901.6843,396.78516,17371281,0.90000004,0.10638297,-12.860312,-68.10569,-0.008783914,0.016707674,0.037665367,0.0,0.0,0.0
901.6843,397.03735,17371298,0.9125,0.12765957,-5.263587,21.147835,-0.008783914,0.016707674,0.037665367,0.0,0.0,0.0
901.6843,397.40784,17371315,0.95,0.12765957,-0.01131824,76.22163,-0.008783914,0.016707674,0.037665367,0.0,0.0,0.0
901.6843,401.46094,17371331,0.9375,0.12765957,0.06474189,192.46637,-0.008783914,0.016707674,0.037665367,0.0,0.0,0.0
901.4002,411.23438,17371348,0.925,0.08510638,-4.7802362,462.10455,-0.008783914,0.016707674,0.037665367,0.0,0.0,0.0
901.1845,427.7129,17371365,0.925,0.07446808,-18.504417,913.0254,-0.008783914,0.016707674,0.037665367,0.0,0.0,0.0
902.03656,442.91736,17371381,0.90000004,0.10638297,5.641734,1250.5874,-0.008783914,0.016707674,0.037665367,0.0,0.0,0.0
903.56946,459.8683,17371398,0.8875,0.10638297,69.178894,1295.0432,-0.008783914,0.016707674,0.037665367,0.0,0.0,0.0
906.96326,476.7218,17371415,0.8875,0.07446808,168.63506,1194.9358,-0.007027127,-0.0026338696,-0.0018672943,0.0,0.0,0.0
910.1175,490.10242,17371432,0.8875,0.09574468,247.93124,990.7973,-0.007027127,-0.0026338696,-0.0018672943,0.0,0.0,0.0
913.25256,498.4972,17371448,0.875,0.12765957,259.30725,684.8902,-0.007027127,-0.0026338696,-0.0018672943,0.0,0.0,0.0
915.8148,503.00928,17371465,0.8875,0.12765957,221.37672,326.4604,-0.007027127,-0.0026338696,-0.0018672943,0.0,0.0,0.0
920.1894,506.68652,17371482,0.9125,0.12765957,211.0901,20.402477,-0.007027127,-0.0026338696,-0.0018672943,0.0,0.0,0.0
929.15765,509.2815,17371498,0.90000004,0.12765957,358.5433,-71.370865,-0.007027127,-0.0026338696,-0.0018672943,0.0,0.0,0.0
938.52014,507.73535,17371515,0.875,0.10638297,579.45984,-131.14781,-0.007027127,-0.0026338696,-0.0018672943,0.0,0.0,0.0
952.0392,500.80676,17371532,0.85,0.08510638,857.98413,-324.40787,-0.007027127,-0.0026338696,-0.0018672943,0.0,0.0,0.0
966.0149,487.9839,17371549,0.8625,0.09574468,997.04315,-735.3873,-0.007027127,-0.0026338696,-0.0018672943,0.0,0.0,0.0
978.8479,468.28638,17371565,0.85,0.12765957,963.8204,-1243.9103,-0.007027127,-0.0026338696,-0.0018672943,0.0,0.0,0.0
999.3508,429.66675,17371582,0.83750004,0.06382979,1077.4307,-2055.863,-0.007027127,-0.0026338696,-0.0018672943,0.0,0.0,0.0
1015.4376,392.66284,17371599,0.85,0.10638297,1140.5863,-2718.4814,-0.007027127,-0.0026338696,-0.0018672943,0.0,0.0,0.0
1030.1398,354.7379,17371615,0.83750004,0.12765957,1080.705,-2955.7935,-0.007027127,-0.0026338696,-0.0018672943,0.0,0.0,0.0
1042.1373,317.9651,17371632,0.85,0.07446808,881.0477,-2741.1943,-0.007027127,-0.0026338696,-0.0018672943,0.0,0.0,0.0
1051.1006,286.12207,17371649,0.83750004,0.12765957,549.0488,-2176.6208,-0.007027127,-0.0026338696,-0.0018672943,0.0,0.0,0.0
1054.2031,262.97058,17371666,0.83750004,0.09574468,212.7361,-1607.529,-0.007027127,-0.0026338696,-0.0018672943,0.0,0.0,0.0
1054.6345,244.85876,17371682,0.83750004,0.10638297,-55.650177,-1125.188,-0.007027127,-0.0026338696,-0.0018672943,0.0,0.0,0.0
1051.7919,234.31213,17371699,0.8625,0.08510638,-311.0135,-574.0368,-0.007027127,-0.0026338696,-0.0018672943,0.0,0.0,0.0
1048.6284,230.28528,17371716,0.875,0.08510638,-431.01096,-58.784836,-0.007027127,-0.0026338696,-0.0018672943,0.0,0.0,0.0
1043.4949,228.22168,17371732,0.90000004,0.09574468,-458.0753,251.3875,-0.007027127,-0.0026338696,-0.0018672943,0.0,0.0,0.0
1038.004,229.9176,17371749,0.8875,0.11702127,-430.6481,375.68234,-0.007027127,-0.0026338696,-0.0018672943,0.0,0.0,0.0
1032.0134,235.91663,17371766,0.875,0.12765957,-419.60797,479.6067,-0.007027127,-0.0026338696,-0.0018672943,0.0,0.0,0.0
1022.43994,250.38062,17371783,0.8625,0.08510638,-497.2121,753.1741,-0.007027127,-0.0026338696,-0.0018672943,0.0,0.0,0.0
1009.87866,275.4856,17371799,0.875,0.08510638,-715.7597,1448.2086,-0.007027127,-0.0026338696,-0.0018672943,0.0,0.0,0.0
998.2499,302.62622,17371816,0.875,0.10638297,-846.4351,1968.2461,-0.007027127,-0.0026338696,-0.0018672943,0.0,0.0,0.0
989.8739,331.58337,17371833,0.8875,0.08510638,-784.4678,2209.2954,-0.007027127,-0.0026338696,-0.0018672943,0.0,0.0,0.0
982.9901,366.1139,17371849,0.8625,0.08510638,-524.5487,2237.235,-0.007027127,-0.0026338696,-0.0018672943,0.0,0.0,0.0
978.63293,397.27173,17371866,0.83750004,0.12765957,-256.95743,2180.7324,-0.007027127,-0.0026338696,-0.0018672943,0.0,0.0,0.0
974.9978,430.25183,17371883,0.8625,0.09574468,-123.074165,2163.8928,-0.007027127,-0.0026338696,-0.0018672943,0.0,0.0,0.0
972.41956,453.84338,17371900,0.85,0.11702127,-53.809605,1811.7433,-0.007027127,-0.0026338696,-0.0018672943,0.0,0.0,0.0
971.03345,476.8463,17371916,0.8625,0.08510638,-31.479609,1404.0034,-0.007027127,-0.0026338696,-0.0018672943,0.0,0.0,0.0
971.16174,491.70288,17371933,0.875,0.11702127,31.111639,909.0725,-0.007027127,-0.0026338696,-0.0018672943,0.0,0.0,0.0
972.3602,500.6289,17371950,0.83750004,0.12765957,96.28851,483.81433,-0.005621709,-0.018107086,0.01450634,0.0,0.0,0.0
973.4005,506.28613,17371966,0.85,0.12765957,150.98781,132.09242,-0.005621709,-0.018107086,0.01450634,0.0,0.0,0.0
974.16077,508.59753,17371983,0.8625,0.12765957,131.54607,-116.814705,-0.005621709,-0.018107086,0.01450634,0.0,0.0,0.0
974.4584,508.98877,17372000,0.90000004,0.12765957,57.17302,-207.33456,-0.005621709,-0.018107086,0.01450634,0.0,0.0,0.0
976.2782,507.00183,17372016,0.9125,0.12765957,49.708557,-261.16165,-0.005621709,-0.018107086,0.01450634,0.0,0.0,0.0
979.75085,500.1217,17372033,0.8875,0.08510638,134.32927,-417.027,-0.005621709,-0.018107086,0.01450634,0.0,0.0,0.0
990.098,478.99194,17372050,0.875,0.08510638,418.0557,-940.3996,-0.005621709,-0.018107086,0.01450634,0.0,0.0,0.0
998.0043,462.2378,17372067,0.875,0.12765957,669.0846,-1420.0205,-0.005621709,-0.018107086,0.01450634,0.0,0.0,0.0
1003.1566,451.22485,17372083,0.875,0.07446808,601.97363,-1302.6467,-0.005621709,-0.018107086,0.01450634,0.0,0.0,0.0
1010.95557,439.21802,17372100,0.8625,0.08510638,495.01382,-949.4406,-0.005621709,-0.018107086,0.01450634,0.0,0.0,0.0
1015.4912,433.00745,17372117,0.8875,0.09574468,324.80582,-453.88535,-0.005621709,-0.018107086,0.01450634,0.0,0.0,0.0
1018.5582,431.44495,17372133,0.925,0.09574468,187.06111,-57.083122,-0.005621709,-0.018107086,0.01450634,0.0,0.0,0.0
1020.53235,432.92102,17372150,0.925,0.09574468,108.37112,173.0908,-0.005621709,-0.018107086,0.01450634,0.0,0.0,0.0
1022.56287,435.98547,17372167,0.9375,0.09574468,26.143484,384.76767,-0.005621709,-0.018107086,0.01450634,0.0,0.0,0.0
1026.6649,445.52698,17372184,0.90000004,0.12765957,100.73448,576.66327,-0.005621709,-0.018107086,0.01450634,0.0,0.0,0.0
1030.2865,460.2527,17372200,0.9125,0.11702127,215.61871,891.1385,-0.005621709,-0.018107086,0.01450634,0.0,0.0,0.0
1033.6335,479.32544,17372217,0.90000004,0.08510638,262.18124,1283.7421,-0.005621709,-0.018107086,0.01450634,0.0,0.0,0.0
1036.6259,494.72107,17372234,0.8875,0.11702127,224.49057,1403.412,-0.005621709,-0.018107086,0.01450634,0.0,0.0,0.0
1041.5978,507.13892,17372250,0.8875,0.12765957,216.42343,1140.9473,-0.005621709,-0.018107086,0.01450634,0.0,0.0,0.0
1045.4324,513.9552,17372267,0.8875,0.10638297,248.88425,634.7411,-0.005621709,-0.018107086,0.01450634,0.0,0.0,0.0
1053.5225,521.339,17372284,0.8875,0.08510638,370.17447,256.3854,-0.005621709,-0.018107086,0.01450634,0.0,0.0,0.0
1065.3544,526.83093,17372301,0.8875,0.09574468,632.5953,146.38033,-0.005621709,-0.018107086,0.01450634,0.0,0.0,0.0
1078.5511,526.7588,17372317,0.875,0.09574468,849.87006,17.2428,-0.005621709,-0.018107086,0.01450634,0.0,0.0,0.0
1090.455,521.7245,17372334,0.83750004,0.10638297,940.7327,-240.90944,-0.005621709,-0.018107086,0.01450634,0.0,0.0,0.0
1103.8827,511.09583,17372351,0.8125,0.09574468,928.99585,-636.0047,-0.005621709,-0.018107086,0.01450634,0.0,0.0,0.0
1115.3914,498.78223,17372367,0.825,0.07446808,808.4973,-971.72833,-0.005621709,-0.018107086,0.01450634,0.0,0.0,0.0
1124.3298,485.50037,17372384,0.7625,0.09574468,645.32996,-1070.8062,-0.005621709,-0.018107086,0.01450634,0.0,0.0,0.0
1128.6105,477.8911,17372397,0.32500002,0.13829787,507.68454,-1053.8611,-0.005621709,-0.018107086,0.01450634,0.0,0.0,0.0
1128.6105,477.8911,17372404,0.32500002,0.13829787,507.68454,-1053.8611,-0.005621709,-0.018107086,0.01450634,0.0,0.0,0.0
