x,y,timestamp,pressure,fingerarea,velocityx,velocityy,accelx,accely,accelz,gyrox,gyroy,gyroz
339.36737,337.50757,71212104,0.83750004,0.09574468,0.0,0.0,0.009627005,0.010882691,0.021103859,0.0,0.0,0.0
339.36737,337.50757,71212130,0.8875,0.10638297,0.029710025,0.028420936,0.009627005,0.010882691,0.021103859,0.0,0.0,0.0
339.36737,337.50757,71212147,0.8875,0.10638297,0.025267936,0.024042744,0.009627005,0.010882691,0.021103859,0.0,0.0,0.0
339.36737,337.50757,71212163,0.90000004,0.12765957,-0.01440055,-0.012791076,0.009627005,0.010882691,0.021103859,0.0,0.0,0.0
318.30365,344.50793,71212180,0.9125,0.12765957,-819.93134,267.17,0.009627005,0.010882691,0.021103859,0.0,0.0,0.0
305.6635,350.66626,71212197,0.9125,0.12765957,-1116.7911,417.7092,0.009627005,0.010882691,0.021103859,0.0,0.0,0.0
293.484,360.96265,71212214,0.90000004,0.10638297,-1202.9753,630.6847,0.009627005,0.010882691,0.021103859,0.0,0.0,0.0
282.0964,374.70337,71212230,0.925,0.10638297,-967.103,862.28357,0.009627005,0.010882691,0.021103859,0.0,0.0,0.0
273.5763,387.86072,71212247,0.8875,0.12765957,-573.0516,985.7613,0.009627005,0.010882691,0.021103859,0.0,0.0,0.0
262.79742,413.27124,71212264,0.9125,0.11702127,-542.4434,1388.1871,0.009627005,0.010882691,0.021103859,0.0,0.0,0.0
259.23303,433.52783,71212281,0.8875,0.11702127,-356.6362,1531.1335,0.009627005,0.010882691,0.021103859,0.0,0.0,0.0
259.98813,449.03125,71212297,0.8875,0.12765957,-34.83708,1359.5298,0.009627005,0.010882691,0.021103859,0.0,0.0,0.0
264.5634,463.80762,71212314,0.875,0.10638297,312.14566,1045.5962,0.009627005,0.010882691,0.021103859,0.0,0.0,0.0
272.17682,475.0829,71212331,0.8875,0.08510638,627.4335,672.1215,0.009627005,0.010882691,0.021103859,0.0,0.0,0.0
289.8,488.864,71212347,0.8625,0.10638297,990.2805,540.06775,0.009627005,0.010882691,0.021103859,0.0,0.0,0.0
308.7533,495.63916,71212364,0.8625,0.11702127,1350.058,528.00555,0.009627005,0.010882691,0.021103859,0.0,0.0,0.0
331.57938,496.9198,71212381,0.85,0.09574468,1620.0201,207.7272,0.009627005,0.010882691,0.021103859,0.0,0.0,0.0
353.02478,491.51685,71212397,0.85,0.08510638,1676.9949,-281.59134,0.009627005,0.010882691,0.021103859,0.0,0.0,0.0
369.02365,482.60913,71212414,0.8625,0.09574468,1342.8503,-770.67834,-0.032298397,7.061511E-4,8.840561E-4,0.0,0.0,0.0
382.28586,470.84302,71212431,0.8625,0.12765957,908.98737,-1019.2915,-0.032298397,7.061511E-4,8.840561E-4,0.0,0.0,0.0
392.5085,459.68774,71212448,0.8625,0.10638297,567.6941,-1015.3858,-0.032298397,7.061511E-4,8.840561E-4,0.0,0.0,0.0
401.3501,441.45532,71212464,0.90000004,0.10638297,334.8031,-1049.8589,-0.032298397,7.061511E-4,8.840561E-4,0.0,0.0,0.0
404.96188,423.0061,71212481,0.90000004,0.12765957,191.81395,-1207.0673,-0.032298397,7.061511E-4,8.840561E-4,0.0,0.0,0.0
403.68295,408.45935,71212498,0.9125,0.12765957,-64.32303,-1210.9126,-0.032298397,7.061511E-4,8.840561E-4,0.0,0.0,0.0
398.77032,392.5238,71212514,0.9125,0.09574468,-374.34998,-1094.3494,-0.032298397,7.061511E-4,8.840561E-4,0.0,0.0,0.0
392.2588,375.88525,71212531,0.8875,0.10638297,-605.3755,-975.70996,-0.032298397,7.061511E-4,8.840561E-4,0.0,0.0,0.0
385.44852,365.0464,71212548,0.90000004,0.12765957,-692.2601,-769.23926,-0.032298397,7.061511E-4,8.840561E-4,0.0,0.0,0.0
376.93542,355.7932,71212565,0.90000004,0.12765957,-612.57043,-599.6354,-0.032298397,7.061511E-4,8.840561E-4,0.0,0.0,0.0
364.36722,346.5636,71212581,0.8875,0.12765957,-682.17975,-414.23743,-0.032298397,7.061511E-4,8.840561E-4,0.0,0.0,0.0
349.02814,339.91577,71212598,0.8875,0.10638297,-909.91095,-301.31345,-0.032298397,7.061511E-4,8.840561E-4,0.0,0.0,0.0
336.3017,336.87378,71212615,0.90000004,0.10638297,-1032.7532,-208.5283,-0.032298397,7.061511E-4,8.840561E-4,0.0,0.0,0.0
328.46262,336.61914,71212631,0.875,0.11702127,-837.6024,-18.639818,-0.032298397,7.061511E-4,8.840561E-4,0.0,0.0,0.0
324.54272,336.61914,71212648,0.90000004,0.12765957,-388.09802,176.7983,-0.032298397,7.061511E-4,8.840561E-4,0.0,0.0,0.0
322.40234,337.48145,71212665,0.8875,0.12765957,15.823844,220.45245,-0.032298397,7.061511E-4,8.840561E-4,0.0,0.0,0.0
321.62317,338.84033,71212677,0.875,0.12765957,150.68315,198.17357,-0.032298397,7.061511E-4,8.840561E-4,0.0,0.0,0.0
328.96356,342.30115,71212698,0.875,0.10638297,366.77792,188.00883,-0.032298397,7.061511E-4,8.840561E-4,0.0,0.0,0.0
346.92245,345.86975,71212715,0.8875,0.12765957,833.93823,246.94313,-0.032298397,7.061511E-4,8.840561E-4,0.0,0.0,0.0
365.4819,344.13306,71212732,0.8625,0.12765957,1350.2467,148.9066,-0.032298397,7.061511E-4,8.840561E-4,0.0,0.0,0.0
389.75116,337.92468,71212748,0.875,0.09574468,1748.6326,-167.90337,-0.032298397,7.061511E-4,8.840561E-4,0.0,0.0,0.0
417.23053,322.79822,71212765,0.85,0.09574468,1938.2643,-767.78375,-0.032298397,7.061511E-4,8.840561E-4,0.0,0.0,0.0
442.89178,305.76855,71212782,0.83750004,0.10638297,1824.6094,-1274.6156,-0.032298397,7.061511E-4,8.840561E-4,0.0,0.0,0.0
466.66608,289.05505,71212799,0.83750004,0.11702127,1683.8083,-1412.9832,-0.032298397,7.061511E-4,8.840561E-4,0.0,0.0,0.0
485.51825,269.46973,71212815,0.83750004,0.08510638,1343.2711,-1372.4188,-0.032298397,7.061511E-4,8.840561E-4,0.0,0.0,0.0
501.9818,249.93982,71212832,0.8625,0.10638297,959.3797,-1283.0579,-0.032298397,7.061511E-4,8.840561E-4,0.0,0.0,0.0
514.9739,232.22485,71212849,0.85,0.10638297,714.61975,-1209.9219,-0.032298397,7.061511E-4,8.840561E-4,0.0,0.0,0.0
527.7641,206.32434,71212865,0.8625,0.11702127,515.8685,-1270.0304,-0.032298397,7.061511E-4,8.840561E-4,0.0,0.0,0.0
532.3281,187.1969,71212882,0.8875,0.12765957,356.46234,-1375.4695,-0.032298397,7.061511E-4,8.840561E-4,0.0,0.0,0.0
535.9528,163.98718,71212899,0.90000004,0.11702127,114.89027,-1414.112,-0.032298397,7.061511E-4,8.840561E-4,0.0,0.0,0.0
537.39105,141.93384,71212916,0.875,0.12765957,-78.2187,-1425.1426,-0.032298397,7.061511E-4,8.840561E-4,0.0,0.0,0.0
536.5671,120.65137,71212932,0.8875,0.11702127,-206.91081,-1328.0297,-0.032298397,7.061511E-4,8.840561E-4,0.0,0.0,0.0
534.4845,98.611694,71212949,0.8875,0.12765957,-272.34024,-1288.3964,-0.0018387173,-0.015435085,7.0762634E-4,0.0,0.0,0.0
530.99786,83.90979,71212966,0.9125,0.12765957,-278.28668,-1158.502,-0.0018387173,-0.015435085,7.0762634E-4,0.0,0.0,0.0
526.5905,72.806274,71212982,0.90000004,0.12765957,-341.40576,-719.19415,-0.0018387173,-0.015435085,7.0762634E-4,0.0,0.0,0.0
521.0684,65.4126,71212999,0.9125,0.10638297,-374.10812,-342.8718,-0.0018387173,-0.015435085,7.0762634E-4,0.0,0.0,0.0
511.485,59.178467,71213016,0.90000004,0.10638297,-513.6529,-108.6572,-0.0018387173,-0.015435085,7.0762634E-4,0.0,0.0,0.0
501.70404,57.62903,71213033,0.875,0.10638297,-665.9563,-7.228499,-0.0018387173,-0.015435085,7.0762634E-4,0.0,0.0,0.0
491.92078,59.902588,71213049,0.8625,0.11702127,-723.872,172.68971,-0.0018387173,-0.015435085,7.0762634E-4,0.0,0.0,0.0
482.96216,67.65784,71213066,0.825,0.12765957,-683.4922,475.45276,-0.0018387173,-0.015435085,7.0762634E-4,0.0,0.0,0.0
472.0329,80.47046,71213083,0.85,0.10638297,-627.6565,840.9698,-0.0018387173,-0.015435085,7.0762634E-4,0.0,0.0,0.0
458.05988,108.84717,71213099,0.8625,0.10638297,-745.5787,1526.8428,-0.0018387173,-0.015435085,7.0762634E-4,0.0,0.0,0.0
450.37207,129.2196,71213116,0.8875,0.12765957,-701.1104,1811.9855,-0.0018387173,-0.015435085,7.0762634E-4,0.0,0.0,0.0
445.41003,156.40479,71213133,0.90000004,0.10638297,-474.83185,1921.6003,-0.0018387173,-0.015435085,7.0762634E-4,0.0,0.0,0.0
442.32675,180.29333,71213149,0.8875,0.12765957,-171.85074,1786.3187,-0.0018387173,-0.015435085,7.0762634E-4,0.0,0.0,0.0
441.0191,209.15808,71213166,0.8875,0.10638297,58.71724,1684.3242,-0.0018387173,-0.015435085,7.0762634E-4,0.0,0.0,0.0
442.06442,233.95532,71213183,0.9125,0.12765957,172.50974,1670.4843,-0.0018387173,-0.015435085,7.0762634E-4,0.0,0.0,0.0
445.1355,262.2837,71213200,0.9125,0.10638297,232.10118,1659.1893,-0.0018387173,-0.015435085,7.0762634E-4,0.0,0.0,0.0
448.74976,287.71216,71213216,0.9125,0.12765957,334.65903,1635.7488,-0.0018387173,-0.015435085,7.0762634E-4,0.0,0.0,0.0
453.4483,317.96277,71213233,0.8875,0.10638297,376.32187,1642.0118,-0.0018387173,-0.015435085,7.0762634E-4,0.0,0.0,0.0
457.33936,343.5652,71213250,0.8875,0.12765957,342.36792,1658.3284,-0.0018387173,-0.015435085,7.0762634E-4,0.0,0.0,0.0
462.9145,373.36646,71213266,0.90000004,0.10638297,332.8989,1689.2612,-0.0018387173,-0.015435085,7.0762634E-4,0.0,0.0,0.0
467.1845,395.45825,71213283,0.8875,0.12765957,308.92566,1555.5415,-0.0018387173,-0.015435085,7.0762634E-4,0.0,0.0,0.0
472.9358,417.9502,71213300,0.8875,0.11702127,324.608,1321.1523,-0.0018387173,-0.015435085,7.0762634E-4,0.0,0.0,0.0
478.0923,438.07568,71213317,0.85,0.12765957,333.7605,1160.264,-0.0018387173,-0.015435085,7.0762634E-4,0.0,0.0,0.0
482.9079,450.6764,71213333,0.875,0.12765957,321.7439,896.24274,-0.0018387173,-0.015435085,7.0762634E-4,0.0,0.0,0.0
487.0984,456.78613,71213350,0.85,0.10638297,276.91406,445.86932,-0.0018387173,-0.015435085,7.0762634E-4,0.0,0.0,0.0
495.40643,466.32935,71213367,0.8625,0.10638297,355.20337,228.64139,-0.0018387173,-0.015435085,7.0762634E-4,0.0,0.0,0.0
503.7859,471.5304,71213383,0.8625,0.10638297,487.16693,87.89945,-0.0018387173,-0.015435085,7.0762634E-4,0.0,0.0,0.0
511.5899,473.4486,71213400,0.875,0.10638297,599.3179,118.038956,-0.0018387173,-0.015435085,7.0762634E-4,0.0,0.0,0.0
517.3144,472.11365,71213417,0.875,0.10638297,505.7515,-59.20926,-0.0018387173,-0.015435085,7.0762634E-4,0.0,0.0,0.0
522.80176,468.3015,71213434,0.90000004,0.12765957,322.9289,-347.55344,-0.0018387173,-0.015435085,7.0762634E-4,0.0,0.0,0.0
527.63806,462.61035,71213450,0.875,0.12765957,224.52422,-508.85004,-0.0018387173,-0.015435085,7.0762634E-4,0.0,0.0,0.0
532.67535,454.13098,71213467,0.9125,0.12765957,213.4745,-584.8037,-0.0018387173,-0.015435085,7.0762634E-4,0.0,0.0,0.0
543.5672,433.26672,71213484,0.90000004,0.10638297,360.08334,-868.79395,-0.009470974,0.011651933,5.6648254E-4,0.0,0.0,0.0
553.264,415.7505,71213500,0.8875,0.12765957,609.52814,-1321.8501,-0.009470974,0.011651933,5.6648254E-4,0.0,0.0,0.0
568.9765,392.35474,71213517,0.8875,0.10638297,906.10077,-1611.5082,-0.009470974,0.011651933,5.6648254E-4,0.0,0.0,0.0
582.3508,370.41626,71213534,0.8875,0.12765957,1051.4142,-1699.9298,-0.009470974,0.011651933,5.6648254E-4,0.0,0.0,0.0
596.0322,352.23828,71213551,0.8875,0.12765957,1001.7843,-1442.4712,-0.009470974,0.011651933,5.6648254E-4,0.0,0.0,0.0
610.0362,337.83362,71213567,0.8875,0.10638297,912.7771,-1059.3739,-0.009470974,0.011651933,5.6648254E-4,0.0,0.0,0.0
622.86053,325.71265,71213584,0.8875,0.10638297,848.41754,-774.15924,-0.009470974,0.011651933,5.6648254E-4,0.0,0.0,0.0
633.3302,317.6621,71213601,0.8875,0.12765957,706.604,-388.42636,-0.009470974,0.011651933,5.6648254E-4,0.0,0.0,0.0
640.296,313.95435,71213617,0.8875,0.12765957,494.83945,-170.66293,-0.009470974,0.011651933,5.6648254E-4,0.0,0.0,0.0
645.722,312.62952,71213634,0.8625,0.12765957,243.14308,69.235016,-0.009470974,0.011651933,5.6648254E-4,0.0,0.0,0.0
650.6482,313.24353,71213651,0.8625,0.10638297,130.826,234.27782,-0.009470974,0.011651933,5.6648254E-4,0.0,0.0,0.0
653.9218,315.0918,71213668,0.875,0.10638297,99.412865,291.2942,-0.009470974,0.011651933,5.6648254E-4,0.0,0.0,0.0
655.67993,316.92188,71213684,0.8625,0.10638297,71.44722,256.5316,-0.009470974,0.011651933,5.6648254E-4,0.0,0.0,0.0
656.7363,318.7998,71213701,0.875,0.10638297,10.528352,211.4745,-0.009470974,0.011651933,5.6648254E-4,0.0,0.0,0.0
657.2639,322.52966,71213718,0.8625,0.10638297,-32.27989,203.94746,-0.009470974,0.011651933,5.6648254E-4,0.0,0.0,0.0
656.20874,325.26587,71213734,0.875,0.10638297,-82.62303,209.32852,-0.009470974,0.011651933,5.6648254E-4,0.0,0.0,0.0
655.69824,325.0686,71213751,0.8625,0.11702127,-97.15409,133.3812,-0.009470974,0.011651933,5.6648254E-4,0.0,0.0,0.0
652.95667,327.11987,71213768,0.85,0.11702127,-150.49783,74.85382,-0.009470974,0.011651933,5.6648254E-4,0.0,0.0,0.0
649.8139,328.8905,71213784,0.83750004,0.11702127,-211.31339,50.79785,-0.009470974,0.011651933,5.6648254E-4,0.0,0.0,0.0
642.37024,331.84033,71213801,0.83750004,0.10638297,-350.59647,101.028175,-0.009470974,0.011651933,5.6648254E-4,0.0,0.0,0.0
630.6776,336.87598,71213818,0.83750004,0.12765957,-644.3762,261.11734,-0.009470974,0.011651933,5.6648254E-4,0.0,0.0,0.0
613.79865,345.7881,71213835,0.83750004,0.12765957,-1056.0168,481.14767,-0.009470974,0.011651933,5.6648254E-4,0.0,0.0,0.0
601.12665,354.52734,71213851,0.85,0.12765957,-1158.4994,631.38495,-0.009470974,0.011651933,5.6648254E-4,0.0,0.0,0.0
589.2691,367.57703,71213868,0.83750004,0.11702127,-980.1662,785.9059,-0.009470974,0.011651933,5.6648254E-4,0.0,0.0,0.0
577.525,381.42456,71213885,0.8625,0.12765957,-714.7908,910.39343,-0.009470974,0.011651933,5.6648254E-4,0.0,0.0,0.0
566.19794,394.78113,71213901,0.85,0.12765957,-599.50757,969.01575,-0.009470974,0.011651933,5.6648254E-4,0.0,0.0,0.0
556.70465,411.43164,71213918,0.8625,0.10638297,-562.68634,992.69257,-0.009470974,0.011651933,5.6648254E-4,0.0,0.0,0.0
552.1079,427.25903,71213935,0.875,0.10638297,-411.561,1024.3099,-0.009470974,0.011651933,5.6648254E-4,0.0,0.0,0.0
551.2984,438.8745,71213952,0.875,0.12765957,-118.51298,929.97363,-0.009470974,0.011651933,5.6648254E-4,0.0,0.0,0.0
553.0626,446.8462,71213968,0.8625,0.12765957,187.40903,688.37946,-0.009470974,0.011651933,5.6648254E-4,0.0,0.0,0.0
556.1591,451.87976,71213985,0.8625,0.12765957,380.92603,347.55203,-0.009470974,0.011651933,5.6648254E-4,0.0,0.0,0.0
564.3907,461.00574,71214002,0.875,0.10638297,547.15375,181.81343,0.016423222,0.009321541,-0.031546593,0.0,0.0,0.0
573.122,468.31348,71214018,0.8625,0.11702127,644.2431,327.08875,0.016423222,0.009321541,-0.031546593,0.0,0.0,0.0
583.16113,473.9657,71214035,0.8625,0.11702127,741.72864,395.01935,0.016423222,0.009321541,-0.031546593,0.0,0.0,0.0
593.2432,476.11414,71214052,0.85,0.10638297,749.3937,274.52527,0.016423222,0.009321541,-0.031546593,0.0,0.0,0.0
604.66895,475.48608,71214069,0.83750004,0.09574468,726.70435,-18.832111,0.016423222,0.009321541,-0.031546593,0.0,0.0,0.0
616.52313,472.1173,71214085,0.8625,0.10638297,730.2929,-284.61984,0.016423222,0.009321541,-0.031546593,0.0,0.0,0.0
628.034,464.27234,71214102,0.85,0.12765957,738.98755,-493.00214,0.016423222,0.009321541,-0.031546593,0.0,0.0,0.0
637.61633,453.22583,71214119,0.83750004,0.12765957,677.0206,-719.49805,0.016423222,0.009321541,-0.031546593,0.0,0.0,0.0
647.10474,438.19727,71214135,0.8625,0.10638297,576.5473,-974.0412,0.016423222,0.009321541,-0.031546593,0.0,0.0,0.0
659.3438,412.50305,71214152,0.875,0.12765957,589.7831,-1410.7703,0.016423222,0.009321541,-0.031546593,0.0,0.0,0.0
666.06525,395.88428,71214169,0.90000004,0.10638297,549.74304,-1565.8538,0.016423222,0.009321541,-0.031546593,0.0,0.0,0.0
671.578,373.70752,71214186,0.875,0.12765957,423.88983,-1544.4427,0.016423222,0.009321541,-0.031546593,0.0,0.0,0.0
674.2455,356.71375,71214202,0.8875,0.12765957,211.78241,-1326.9431,0.016423222,0.009321541,-0.031546593,0.0,0.0,0.0
674.25836,348.12488,71214219,0.875,0.12765957,-82.35346,-731.8189,0.016423222,0.009321541,-0.031546593,0.0,0.0,0.0
673.0148,337.5504,71214236,0.8875,0.10638297,-202.8155,-483.56787,0.016423222,0.009321541,-0.031546593,0.0,0.0,0.0
671.49243,331.22827,71214252,0.925,0.10638297,-240.30843,-258.96136,0.016423222,0.009321541,-0.031546593,0.0,0.0,0.0
670.4288,328.92322,71214269,0.9125,0.10638297,-202.19609,-57.003735,0.016423222,0.009321541,-0.031546593,0.0,0.0,0.0
668.9884,327.04846,71214286,0.925,0.10638297,-127.89518,54.80241,0.016423222,0.009321541,-0.031546593,0.0,0.0,0.0
667.828,325.95703,71214303,0.90000004,0.10638297,-85.56195,149.2565,0.016423222,0.009321541,-0.031546593,0.0,0.0,0.0
666.7908,325.95703,71214319,0.90000004,0.10638297,-63.61011,125.80934,0.016423222,0.009321541,-0.031546593,0.0,0.0,0.0
665.2486,328.66785,71214336,0.8875,0.12765957,-76.32735,140.11905,0.016423222,0.009321541,-0.031546593,0.0,0.0,0.0
664.21155,333.3319,71214353,0.875,0.12765957,-73.34643,272.2745,0.016423222,0.009321541,-0.031546593,0.0,0.0,0.0
663.26196,340.78186,71214369,0.8875,0.12765957,-66.249535,467.94815,0.016423222,0.009321541,-0.031546593,0.0,0.0,0.0
663.26196,357.5569,71214386,0.8625,0.10638297,-29.26564,815.7453,0.016423222,0.009321541,-0.031546593,0.0,0.0,0.0
663.42224,380.33936,71214403,0.875,0.12765957,17.582949,1348.2759,0.016423222,0.009321541,-0.031546593,0.0,0.0,0.0
664.2616,400.05103,71214420,0.8875,0.12765957,63.78884,1605.8448,0.016423222,0.009321541,-0.031546593,0.0,0.0,0.0
666.0142,424.6034,71214436,0.90000004,0.10638297,101.92898,1702.0957,0.016423222,0.009321541,-0.031546593,0.0,0.0,0.0
669.1395,442.96472,71214453,0.8625,0.12765957,170.96043,1468.3428,0.016423222,0.009321541,-0.031546593,0.0,0.0,0.0
673.17596,457.55566,71214470,0.85,0.12765957,253.87236,1045.0435,0.016423222,0.009321541,-0.031546593,0.0,0.0,0.0
678.31494,469.1089,71214486,0.85,0.10638297,349.3702,731.2627,0.016423222,0.009321541,-0.031546593,0.0,0.0,0.0
684.0035,476.937,71214503,0.8625,0.11702127,385.55893,320.58945,0.016423222,0.009321541,-0.031546593,0.0,0.0,0.0
690.9495,484.69104,71214520,0.85,0.11702127,434.38727,208.90457,0.016423222,0.009321541,-0.031546593,0.0,0.0,0.0
699.70105,489.42224,71214536,0.875,0.11702127,518.78973,188.49661,0.013138576,-5.427748E-4,0.0067625046,0.0,0.0,0.0
710.65283,489.44165,71214553,0.8625,0.10638297,638.963,18.860413,0.013138576,-5.427748E-4,0.0067625046,0.0,0.0,0.0
723.78326,482.56152,71214570,0.8625,0.10638297,808.0959,-294.39294,0.013138576,-5.427748E-4,0.0067625046,0.0,0.0,0.0
742.5785,466.62756,71214587,0.83750004,0.12765957,1054.9792,-860.45215,0.013138576,-5.427748E-4,0.0067625046,0.0,0.0,0.0
764.2695,441.44873,71214603,0.825,0.08510638,1357.4531,-1532.401,0.013138576,-5.427748E-4,0.0067625046,0.0,0.0,0.0
785.5362,413.4724,71214620,0.83750004,0.12765957,1545.0122,-2087.8645,0.013138576,-5.427748E-4,0.0067625046,0.0,0.0,0.0
801.0689,384.98462,71214637,0.83750004,0.11702127,1299.8588,-2159.2588,0.013138576,-5.427748E-4,0.0067625046,0.0,0.0,0.0
812.6101,353.86743,71214653,0.83750004,0.12765957,892.8994,-2169.8943,0.013138576,-5.427748E-4,0.0067625046,0.0,0.0,0.0
819.22064,323.4087,71214670,0.85,0.10638297,374.69754,-1971.4514,0.013138576,-5.427748E-4,0.0067625046,0.0,0.0,0.0
823.22534,292.91785,71214687,0.85,0.12765957,33.40269,-1887.7107,0.013138576,-5.427748E-4,0.0067625046,0.0,0.0,0.0
824.5816,258.7378,71214704,0.85,0.10638297,-124.82381,-1961.058,0.013138576,-5.427748E-4,0.0067625046,0.0,0.0,0.0
823.44073,228.9071,71214720,0.8875,0.12765957,-230.06447,-1870.792,0.013138576,-5.427748E-4,0.0067625046,0.0,0.0,0.0
819.7718,199.36926,71214737,0.8625,0.12765957,-291.61844,-1968.9115,0.013138576,-5.427748E-4,0.0067625046,0.0,0.0,0.0
815.15015,173.69055,71214754,0.8875,0.11702127,-406.53976,-1644.3315,0.013138576,-5.427748E-4,0.0067625046,0.0,0.0,0.0
809.94336,150.65527,71214770,0.8875,0.12765957,-446.35675,-1386.365,0.013138576,-5.427748E-4,0.0067625046,0.0,0.0,0.0
804.7126,136.34229,71214787,0.8875,0.12765957,-425.32956,-991.85956,0.013138576,-5.427748E-4,0.0067625046,0.0,0.0,0.0
799.36945,128.3418,71214804,0.8875,0.10638297,-371.8047,-482.6995,0.013138576,-5.427748E-4,0.0067625046,0.0,0.0,0.0
790.3568,118.02417,71214821,0.8875,0.10638297,-429.63873,-217.84244,0.013138576,-5.427748E-4,0.0067625046,0.0,0.0,0.0
779.1081,110.69971,71214837,0.875,0.10638297,-621.8398,-136.24506,0.013138576,-5.427748E-4,0.0067625046,0.0,0.0,0.0
770.6832,108.2738,71214854,0.8625,0.11702127,-726.0952,-169.15974,0.013138576,-5.427748E-4,0.0067625046,0.0,0.0,0.0
763.5064,108.78406,71214871,0.85,0.11702127,-613.17346,20.932627,0.013138576,-5.427748E-4,0.0067625046,0.0,0.0,0.0
757.87177,112.59131,71214887,0.83750004,0.11702127,-367.67413,337.88165,0.013138576,-5.427748E-4,0.0067625046,0.0,0.0,0.0
751.57135,121.88904,71214904,0.83750004,0.12765957,-220.9211,592.5914,0.013138576,-5.427748E-4,0.0067625046,0.0,0.0,0.0
744.65173,140.89111,71214921,0.8625,0.12765957,-316.305,1007.5523,0.013138576,-5.427748E-4,0.0067625046,0.0,0.0,0.0
742.7842,161.53247,71214938,0.875,0.10638297,-268.56348,1456.0554,0.013138576,-5.427748E-4,0.0067625046,0.0,0.0,0.0
743.7343,181.12097,71214954,0.8625,0.12765957,-70.96581,1674.8351,0.013138576,-5.427748E-4,0.0067625046,0.0,0.0,0.0
745.7747,205.14758,71214971,0.8875,0.11702127,211.05049,1641.9697,0.013138576,-5.427748E-4,0.0067625046,0.0,0.0,0.0
748.9784,227.89209,71214988,0.8625,0.12765957,359.2183,1553.7684,0.013138576,-5.427748E-4,0.0067625046,0.0,0.0,0.0
752.8483,255.97546,71215004,0.875,0.11702127,362.22424,1608.9652,0.013138576,-5.427748E-4,0.0067625046,0.0,0.0,0.0
754.54596,281.88086,71215021,0.8625,0.12765957,257.06216,1690.8247,0.013138576,-5.427748E-4,0.0067625046,0.0,0.0,0.0
759.39935,306.0747,71215038,0.8875,0.11702127,230.78053,1611.3787,0.013138576,-5.427748E-4,0.0067625046,0.0,0.0,0.0
763.6868,333.01965,71215055,0.8875,0.12765957,272.744,1586.9152,0.013138576,-5.427748E-4,0.0067625046,0.0,0.0,0.0
767.0006,357.72498,71215071,0.875,0.12765957,262.2235,1518.0824,-0.013489138,0.02356577,0.0054101944,0.0,0.0,0.0
770.0672,382.59082,71215088,0.8625,0.12765957,226.5401,1498.7778,-0.013489138,0.02356577,0.0054101944,0.0,0.0,0.0
772.9705,406.55322,71215105,0.875,0.12765957,146.6618,1427.9622,-0.013489138,0.02356577,0.0054101944,0.0,0.0,0.0
775.9518,429.01624,71215121,0.875,0.10638297,139.58284,1320.5094,-0.013489138,0.02356577,0.0054101944,0.0,0.0,0.0
777.5584,445.61133,71215138,0.875,0.12765957,128.6768,1143.3202,-0.013489138,0.02356577,0.0054101944,0.0,0.0,0.0
780.6746,458.99976,71215155,0.8875,0.12765957,122.47118,830.49115,-0.013489138,0.02356577,0.0054101944,0.0,0.0,0.0
782.24615,466.50378,71215172,0.875,0.10638297,119.362755,459.7518,-0.013489138,0.02356577,0.0054101944,0.0,0.0,0.0
784.35486,472.91296,71215188,0.8625,0.10638297,108.00558,173.92792,-0.013489138,0.02356577,0.0054101944,0.0,0.0,0.0
785.3246,475.4076,71215205,0.8625,0.10638297,86.3928,14.188986,-0.013489138,0.02356577,0.0054101944,0.0,0.0,0.0
786.354,475.2256,71215222,0.875,0.10638297,45.284157,-136.25226,-0.013489138,0.02356577,0.0054101944,0.0,0.0,0.0
787.0625,475.2256,71215238,0.8875,0.10638297,21.073488,-217.33464,-0.013489138,0.02356577,0.0054101944,0.0,0.0,0.0
787.72144,474.82898,71215255,0.90000004,0.12765957,21.447678,-176.06625,-0.013489138,0.02356577,0.0054101944,0.0,0.0,0.0
788.22125,472.98132,71215272,0.90000004,0.12765957,20.609217,-147.04834,-0.013489138,0.02356577,0.0054101944,0.0,0.0,0.0
788.972,470.77966,71215288,0.8875,0.12765957,24.036827,-144.56734,-0.013489138,0.02356577,0.0054101944,0.0,0.0,0.0
791.099,464.6266,71215305,0.875,0.12765957,70.54126,-276.6676,-0.013489138,0.02356577,0.0054101944,0.0,0.0,0.0
795.83777,449.4027,71215322,0.8875,0.12765957,197.91861,-652.31244,-0.013489138,0.02356577,0.0054101944,0.0,0.0,0.0
801.25604,429.04858,71215339,0.8875,0.12765957,354.49597,-1197.8052,-0.013489138,0.02356577,0.0054101944,0.0,0.0,0.0
806.0954,411.68005,71215355,0.875,0.12765957,433.1641,-1553.7207,-0.013489138,0.02356577,0.0054101944,0.0,0.0,0.0
810.72925,395.19897,71215372,0.8875,0.11702127,377.1003,-1393.9918,-0.013489138,0.02356577,0.0054101944,0.0,0.0,0.0
815.88824,380.49683,71215389,0.90000004,0.12765957,318.88995,-1070.5206,-0.013489138,0.02356577,0.0054101944,0.0,0.0,0.0
819.0168,373.25757,71215405,0.8875,0.12765957,229.0145,-595.36566,-0.013489138,0.02356577,0.0054101944,0.0,0.0,0.0
822.671,366.00916,71215422,0.90000004,0.12765957,192.86235,-309.6811,-0.013489138,0.02356577,0.0054101944,0.0,0.0,0.0
828.0044,360.04285,71215439,0.8875,0.12765957,226.06577,-183.11722,-0.013489138,0.02356577,0.0054101944,0.0,0.0,0.0
833.69336,356.70398,71215456,0.90000004,0.12765957,301.9067,-78.5258,-0.013489138,0.02356577,0.0054101944,0.0,0.0,0.0
838.93945,354.83887,71215472,0.8875,0.12765957,388.1928,-71.112404,-0.013489138,0.02356577,0.0054101944,0.0,0.0,0.0
843.64496,354.38916,71215489,0.8875,0.12765957,346.56424,54.06587,-0.013489138,0.02356577,0.0054101944,0.0,0.0,0.0
849.02435,354.97693,71215506,0.90000004,0.12765957,307.4329,120.899605,-0.013489138,0.02356577,0.0054101944,0.0,0.0,0.0
853.47314,357.29736,71215522,0.875,0.12765957,267.84393,168.17891,-0.013489138,0.02356577,0.0054101944,0.0,0.0,0.0
857.24164,362.4618,71215539,0.8875,0.12765957,240.82639,291.5852,-0.013489138,0.02356577,0.0054101944,0.0,0.0,0.0
862.35333,372.23315,71215556,0.8625,0.11702127,237.45221,499.61606,-0.013489138,0.02356577,0.0054101944,0.0,0.0,0.0
866.6549,383.56445,71215573,0.8625,0.12765957,261.95215,777.25323,-0.013489138,0.02356577,0.0054101944,0.0,0.0,0.0
869.74976,394.66504,71215589,0.85,0.12765957,237.1612,892.3176,-0.013489138,0.02356577,0.0054101944,0.0,0.0,0.0
871.8396,406.82776,71215606,0.83750004,0.10638297,158.16573,880.37146,0.013208689,-0.0051473677,0.036328316,0.0,0.0,0.0
874.5124,422.5393,71215623,0.83750004,0.10638297,95.74739,913.1593,0.013208689,-0.0051473677,0.036328316,0.0,0.0,0.0
877.82947,437.50806,71215639,0.85,0.12765957,98.77338,945.69763,0.013208689,-0.0051473677,0.036328316,0.0,0.0,0.0
881.4339,445.44824,71215656,0.85,0.10638297,180.72217,821.24255,0.013208689,-0.0051473677,0.036328316,0.0,0.0,0.0
884.8187,451.06384,71215673,0.85,0.10638297,250.05753,447.825,0.013208689,-0.0051473677,0.036328316,0.0,0.0,0.0
891.0873,458.49585,71215690,0.85,0.12765957,315.18277,199.76497,0.013208689,-0.0051473677,0.036328316,0.0,0.0,0.0
898.3472,464.43286,71215706,0.83750004,0.12765957,425.74292,188.972,0.013208689,-0.0051473677,0.036328316,0.0,0.0,0.0
905.8116,469.37842,71215723,0.85,0.11702127,520.5765,258.76852,0.013208689,-0.0051473677,0.036328316,0.0,0.0,0.0
911.5908,472.23718,71215740,0.85,0.11702127,483.98187,209.39676,0.013208689,-0.0051473677,0.036328316,0.0,0.0,0.0
917.54486,472.56006,71215756,0.85,0.11702127,386.75995,48.296387,0.013208689,-0.0051473677,0.036328316,0.0,0.0,0.0
924.4904,471.719,71215773,0.85,0.12765957,342.3509,-112.38501,0.013208689,-0.0051473677,0.036328316,0.0,0.0,0.0
930.75006,468.9679,71215790,0.875,0.12765957,369.28583,-228.36934,0.013208689,-0.0051473677,0.036328316,0.0,0.0,0.0
938.0654,463.37573,71215807,0.8625,0.12765957,424.56406,-362.87494,0.013208689,-0.0051473677,0.036328316,0.0,0.0,0.0
945.5567,457.81885,71215823,0.8625,0.12765957,451.25607,-446.82224,0.013208689,-0.0051473677,0.036328316,0.0,0.0,0.0
952.627,450.26184,71215840,0.8625,0.12765957,459.8452,-516.00977,0.013208689,-0.0051473677,0.036328316,0.0,0.0,0.0
959.0531,441.03674,71215857,0.875,0.11702127,440.03055,-591.25446,0.013208689,-0.0051473677,0.036328316,0.0,0.0,0.0
964.13586,430.1029,71215873,0.875,0.12765957,361.61215,-660.4022,0.013208689,-0.0051473677,0.036328316,0.0,0.0,0.0
968.671,418.33105,71215890,0.875,0.12765957,274.4127,-808.95135,0.013208689,-0.0051473677,0.036328316,0.0,0.0,0.0
969.95996,411.44238,71215907,0.875,0.14893617,118.44911,-692.71576,0.013208689,-0.0051473677,0.036328316,0.0,0.0,0.0
970.66187,407.3838,71215923,0.8625,0.12765957,-12.426347,-388.63596,0.013208689,-0.0051473677,0.036328316,0.0,0.0,0.0
970.66187,405.2495,71215940,0.875,0.12765957,-101.16916,-62.18423,0.013208689,-0.0051473677,0.036328316,0.0,0.0,0.0
970.66187,403.3994,71215957,0.8625,0.12765957,-117.703316,111.80119,0.013208689,-0.0051473677,0.036328316,0.0,0.0,0.0
970.66187,403.25684,71215974,0.83750004,0.12765957,-55.03639,87.692764,0.013208689,-0.0051473677,0.036328316,0.0,0.0,0.0
970.66187,403.25684,71215982,0.6125,0.12765957,-35.02097,89.23563,0.013208689,-0.0051473677,0.036328316,0.0,0.0,0.0
970.66187,403.25684,71215990,0.6125,0.12765957,-35.02097,89.23563,0.013208689,-0.0051473677,0.036328316,0.0,0.0,0.0
