x,y,timestamp,pressure,fingerarea,velocityx,velocityy,accelx,accely,accelz,gyrox,gyroy,gyroz
389.3511,343.72717,71162001,0.8125,0.10638297,0.0,0.0,-0.010931519,-0.026938751,0.06755352,0.0,0.0,0.0
389.3511,343.72717,71162033,0.875,0.12765957,-7.2926586E-4,-0.0013641829,-0.010931519,-0.026938751,0.06755352,0.0,0.0,0.0
389.3511,343.72717,71162045,0.8875,0.12765957,0.015428218,0.012941275,-0.010931519,-0.026938751,0.06755352,0.0,0.0,0.0
389.3511,343.72717,71162065,0.90000004,0.12765957,-0.0033289802,-0.002499903,-0.010931519,-0.026938751,0.06755352,0.0,0.0,0.0
389.3511,343.72717,71162083,0.90000004,0.12765957,0.0067072217,0.0056243828,-0.010931519,-0.026938751,0.06755352,0.0,0.0,0.0
367.7381,344.93542,71162100,0.90000004,0.12765957,-641.3715,28.386517,-0.010931519,-0.026938751,0.06755352,0.0,0.0,0.0
358.37933,347.1753,71162117,0.90000004,0.12765957,-1002.9781,101.25839,-0.010931519,-0.026938751,0.06755352,0.0,0.0,0.0
350.31244,350.8656,71162133,0.925,0.12765957,-960.32666,216.88272,-0.010931519,-0.026938751,0.06755352,0.0,0.0,0.0
343.24664,356.0033,71162150,0.9125,0.10638297,-571.7904,326.89883,-0.010931519,-0.026938751,0.06755352,0.0,0.0,0.0
338.1485,361.55334,71162167,0.9125,0.10638297,-168.70259,402.71143,-0.010931519,-0.026938751,0.06755352,0.0,0.0,0.0
331.55945,374.2837,71162183,0.925,0.10638297,-265.9168,596.18945,-0.010931519,-0.026938751,0.06755352,0.0,0.0,0.0
327.60324,385.55054,71162200,0.925,0.12765957,-244.62212,810.9465,-0.010931519,-0.026938751,0.06755352,0.0,0.0,0.0
324.9344,395.81665,71162217,0.9125,0.12765957,-183.38345,865.2342,-0.010931519,-0.026938751,0.06755352,0.0,0.0,0.0
324.37225,408.71313,71162234,0.90000004,0.10638297,-45.60543,821.1783,-0.010931519,-0.026938751,0.06755352,0.0,0.0,0.0
327.05875,425.4132,71162250,0.9125,0.10638297,141.37813,892.32697,-0.010931519,-0.026938751,0.06755352,0.0,0.0,0.0
332.42426,439.9469,71162267,0.9125,0.12765957,356.62714,981.14124,-0.010931519,-0.026938751,0.06755352,0.0,0.0,0.0
338.29312,449.09155,71162284,0.8875,0.12765957,485.4541,872.59845,-0.010931519,-0.026938751,0.06755352,0.0,0.0,0.0
350.23096,463.22144,71162300,0.8875,0.10638297,692.5503,748.34064,-0.024745215,0.034448996,0.06204319,0.0,0.0,0.0
362.4742,475.59277,71162317,0.875,0.11702127,857.3355,669.73926,-0.024745215,0.034448996,0.06204319,0.0,0.0,0.0
376.99146,486.70483,71162334,0.8875,0.10638297,979.1264,689.8719,-0.024745215,0.034448996,0.06204319,0.0,0.0,0.0
395.1814,494.511,71162351,0.875,0.10638297,1141.6482,630.87634,-0.024745215,0.034448996,0.06204319,0.0,0.0,0.0
412.0974,496.54968,71162367,0.875,0.11702127,1185.2058,248.55858,-0.024745215,0.034448996,0.06204319,0.0,0.0,0.0
428.0006,495.0879,71162384,0.875,0.10638297,1116.7754,-142.16245,-0.024745215,0.034448996,0.06204319,0.0,0.0,0.0
447.71844,489.1903,71162401,0.8875,0.10638297,1122.5469,-472.48608,-0.024745215,0.034448996,0.06204319,0.0,0.0,0.0
462.2481,480.9856,71162417,0.8875,0.10638297,1040.6426,-705.9304,-0.024745215,0.034448996,0.06204319,0.0,0.0,0.0
471.29016,472.59802,71162434,0.90000004,0.12765957,795.0464,-765.22,-0.024745215,0.034448996,0.06204319,0.0,0.0,0.0
477.5014,464.30908,71162451,0.925,0.12765957,400.63626,-699.70593,-0.024745215,0.034448996,0.06204319,0.0,0.0,0.0
482.1245,455.89258,71162468,0.9125,0.12765957,81.63425,-601.8865,-0.024745215,0.034448996,0.06204319,0.0,0.0,0.0
488.9602,438.75,71162484,0.925,0.10638297,73.850334,-769.1783,-0.024745215,0.034448996,0.06204319,0.0,0.0,0.0
491.6455,426.0968,71162501,0.925,0.12765957,132.45169,-913.7342,-0.024745215,0.034448996,0.06204319,0.0,0.0,0.0
491.6328,416.1577,71162518,0.9375,0.12765957,61.8193,-897.7094,-0.024745215,0.034448996,0.06204319,0.0,0.0,0.0
489.64618,408.77197,71162534,0.9125,0.12765957,-138.92241,-601.54456,-0.024745215,0.034448996,0.06204319,0.0,0.0,0.0
485.73676,399.96265,71162551,0.925,0.12765957,-341.60925,-336.35385,-0.024745215,0.034448996,0.06204319,0.0,0.0,0.0
481.75616,392.4795,71162568,0.9125,0.11702127,-385.98978,-335.69855,-0.024745215,0.034448996,0.06204319,0.0,0.0,0.0
472.5807,381.08826,71162585,0.9125,0.10638297,-482.64465,-480.42166,-0.024745215,0.034448996,0.06204319,0.0,0.0,0.0
459.34875,370.45862,71162601,0.925,0.12765957,-738.00134,-673.8678,-0.024745215,0.034448996,0.06204319,0.0,0.0,0.0
446.58667,362.72083,71162618,0.9125,0.12765957,-958.82654,-658.98364,-0.024745215,0.034448996,0.06204319,0.0,0.0,0.0
436.51425,358.01355,71162635,0.90000004,0.12765957,-952.37476,-449.7322,-0.024745215,0.034448996,0.06204319,0.0,0.0,0.0
427.6473,354.3136,71162651,0.9125,0.12765957,-695.80255,-182.34537,-0.024745215,0.034448996,0.06204319,0.0,0.0,0.0
418.84167,351.61255,71162668,0.9125,0.12765957,-480.28192,-28.042187,-0.024745215,0.034448996,0.06204319,0.0,0.0,0.0
411.21524,349.7605,71162685,0.9125,0.12765957,-397.46707,-5.8867383,-0.024745215,0.034448996,0.06204319,0.0,0.0,0.0
404.96988,349.94666,71162701,0.925,0.12765957,-354.31195,27.940298,-0.024745215,0.034448996,0.06204319,0.0,0.0,0.0
401.29675,349.94666,71162718,0.925,0.12765957,-258.24643,68.55078,-0.024745215,0.034448996,0.06204319,0.0,0.0,0.0
399.62988,349.94666,71162735,0.925,0.12765957,-95.689255,83.42022,-0.024745215,0.034448996,0.06204319,0.0,0.0,0.0
398.59808,349.94666,71162752,0.9125,0.12765957,33.59324,42.633293,-0.024745215,0.034448996,0.06204319,0.0,0.0,0.0
399.4473,349.94666,71162768,0.90000004,0.12765957,104.083984,8.881494,-0.024745215,0.034448996,0.06204319,0.0,0.0,0.0
404.55823,352.04004,71162785,0.925,0.12765957,243.42639,46.862114,-0.024745215,0.034448996,0.06204319,0.0,0.0,0.0
413.9986,354.84326,71162802,0.925,0.12765957,512.0041,151.42213,-0.024745215,0.034448996,0.06204319,0.0,0.0,0.0
426.60178,356.90808,71162818,0.9125,0.12765957,838.88434,216.87181,-0.024745215,0.034448996,0.06204319,0.0,0.0,0.0
446.56158,357.9431,71162835,0.90000004,0.12765957,1204.2567,182.46663,-0.0037961723,0.0035592169,-0.054365158,0.0,0.0,0.0
465.91675,355.2599,71162852,0.8875,0.12765957,1435.5925,-63.33839,-0.0037961723,0.0035592169,-0.054365158,0.0,0.0,0.0
485.31055,350.57104,71162869,0.875,0.12765957,1450.3816,-272.30417,-0.0037961723,0.0035592169,-0.054365158,0.0,0.0,0.0
505.65472,345.0133,71162885,0.8875,0.12765957,1382.7762,-440.99783,-0.0037961723,0.0035592169,-0.054365158,0.0,0.0,0.0
522.8825,336.27856,71162902,0.90000004,0.11702127,1201.8116,-574.0434,-0.0037961723,0.0035592169,-0.054365158,0.0,0.0,0.0
536.67303,325.79028,71162919,0.90000004,0.10638297,955.80334,-684.95776,-0.0037961723,0.0035592169,-0.054365158,0.0,0.0,0.0
551.74756,312.7561,71162935,0.8875,0.12765957,824.84985,-823.0624,-0.0037961723,0.0035592169,-0.054365158,0.0,0.0,0.0
563.4791,300.2677,71162952,0.90000004,0.12765957,659.71924,-924.4636,-0.0037961723,0.0035592169,-0.054365158,0.0,0.0,0.0
573.204,287.97083,71162969,0.9125,0.12765957,552.19336,-873.016,-0.0037961723,0.0035592169,-0.054365158,0.0,0.0,0.0
582.9183,268.58154,71162986,0.90000004,0.11702127,488.0268,-975.17975,-0.0037961723,0.0035592169,-0.054365158,0.0,0.0,0.0
588.74097,252.37195,71163002,0.90000004,0.12765957,341.94485,-1102.739,-0.0037961723,0.0035592169,-0.054365158,0.0,0.0,0.0
591.9919,237.7815,71163019,0.90000004,0.12765957,185.20227,-1082.5933,-0.0037961723,0.0035592169,-0.054365158,0.0,0.0,0.0
593.67114,219.4563,71163036,0.9125,0.11702127,19.471132,-1056.5394,-0.0037961723,0.0035592169,-0.054365158,0.0,0.0,0.0
593.7971,200.87915,71163052,0.9125,0.12765957,-116.883896,-1063.1794,-0.0037961723,0.0035592169,-0.054365158,0.0,0.0,0.0
592.7215,186.01123,71163069,0.9125,0.12765957,-162.85931,-1030.2917,-0.0037961723,0.0035592169,-0.054365158,0.0,0.0,0.0
589.5691,170.32983,71163086,0.9125,0.11702127,-224.6206,-993.18616,-0.0037961723,0.0035592169,-0.054365158,0.0,0.0,0.0
586.4571,155.7738,71163103,0.925,0.12765957,-282.7702,-864.29785,-0.0037961723,0.0035592169,-0.054365158,0.0,0.0,0.0
582.1384,145.03577,71163119,0.9375,0.12765957,-320.25797,-689.6016,-0.0037961723,0.0035592169,-0.054365158,0.0,0.0,0.0
577.7,140.18005,71163136,0.9375,0.12765957,-320.02707,-428.18683,-0.0037961723,0.0035592169,-0.054365158,0.0,0.0,0.0
572.05756,135.97485,71163153,0.9125,0.12765957,-341.51865,-109.05931,-0.0037961723,0.0035592169,-0.054365158,0.0,0.0,0.0
566.17224,132.19153,71163169,0.925,0.12765957,-391.86462,14.2556925,-0.0037961723,0.0035592169,-0.054365158,0.0,0.0,0.0
560.15015,130.48633,71163186,0.9125,0.12765957,-402.2078,-0.8595487,-0.0037961723,0.0035592169,-0.054365158,0.0,0.0,0.0
553.33057,131.11267,71163203,0.90000004,0.12765957,-415.87106,33.40379,-0.0037961723,0.0035592169,-0.054365158,0.0,0.0,0.0
547.8658,133.63782,71163220,0.90000004,0.12765957,-385.05466,177.64745,-0.0037961723,0.0035592169,-0.054365158,0.0,0.0,0.0
540.6023,143.42224,71163236,0.90000004,0.11702127,-376.6501,422.98117,-0.0037961723,0.0035592169,-0.054365158,0.0,0.0,0.0
532.4912,161.08618,71163253,0.925,0.11702127,-452.55658,933.7721,-0.0037961723,0.0035592169,-0.054365158,0.0,0.0,0.0
526.7209,176.93152,71163270,0.90000004,0.12765957,-450.67212,1302.6678,-0.0037961723,0.0035592169,-0.054365158,0.0,0.0,0.0
523.13477,198.35242,71163286,0.9125,0.11702127,-340.15753,1510.6748,-0.0037961723,0.0035592169,-0.054365158,0.0,0.0,0.0
521.7043,221.7334,71163303,0.9125,0.12765957,-137.82336,1581.6089,-0.0037961723,0.0035592169,-0.054365158,0.0,0.0,0.0
521.808,239.68066,71163320,0.9125,0.12765957,77.1222,1408.6655,-0.0037961723,0.0035592169,-0.054365158,0.0,0.0,0.0
523.50494,266.89893,71163336,0.9125,0.11702127,189.0633,1479.7059,-0.0037961723,0.0035592169,-0.054365158,0.0,0.0,0.0
525.9146,287.63025,71163353,0.90000004,0.12765957,240.14427,1479.2458,0.0049630622,0.010847375,0.004507065,0.0,0.0,0.0
528.5531,313.93823,71163370,0.9125,0.11702127,238.99083,1494.6589,0.0049630622,0.010847375,0.004507065,0.0,0.0,0.0
531.9642,336.4391,71163387,0.8875,0.12765957,239.74185,1547.0771,0.0049630622,0.010847375,0.004507065,0.0,0.0,0.0
535.6359,359.12244,71163403,0.90000004,0.11702127,249.52184,1375.821,0.0049630622,0.010847375,0.004507065,0.0,0.0,0.0
539.63226,381.97925,71163420,0.9125,0.12765957,260.70132,1345.3746,0.0049630622,0.010847375,0.004507065,0.0,0.0,0.0
545.6135,398.761,71163437,0.925,0.12765957,313.36017,1125.6779,0.0049630622,0.010847375,0.004507065,0.0,0.0,0.0
553.872,419.98706,71163453,0.90000004,0.10638297,440.50656,1035.5721,0.0049630622,0.010847375,0.004507065,0.0,0.0,0.0
562.2867,437.00366,71163470,0.90000004,0.10638297,563.6038,1029.6346,0.0049630622,0.010847375,0.004507065,0.0,0.0,0.0
569.5886,446.2339,71163487,0.90000004,0.12765957,587.3022,752.2984,0.0049630622,0.010847375,0.004507065,0.0,0.0,0.0
579.531,456.41077,71163504,0.8875,0.12765957,599.60626,534.9398,0.0049630622,0.010847375,0.004507065,0.0,0.0,0.0
587.8435,464.61414,71163520,0.875,0.11702127,563.1411,322.13358,0.0049630622,0.010847375,0.004507065,0.0,0.0,0.0
598.47205,471.78357,71163537,0.875,0.10638297,595.40546,238.32101,0.0049630622,0.010847375,0.004507065,0.0,0.0,0.0
608.6346,473.86707,71163554,0.875,0.10638297,631.63257,172.33623,0.0049630622,0.010847375,0.004507065,0.0,0.0,0.0
616.9007,473.92493,71163570,0.875,0.10638297,585.557,-29.4229,0.0049630622,0.010847375,0.004507065,0.0,0.0,0.0
623.87866,469.35803,71163587,0.90000004,0.12765957,502.37146,-299.91833,0.0049630622,0.010847375,0.004507065,0.0,0.0,0.0
631.17145,462.31384,71163604,0.8875,0.12765957,390.46875,-551.49713,0.0049630622,0.010847375,0.004507065,0.0,0.0,0.0
638.8366,448.07275,71163621,0.90000004,0.12765957,355.94464,-803.6772,0.0049630622,0.010847375,0.004507065,0.0,0.0,0.0
648.30084,425.92395,71163637,0.9125,0.12765957,448.73053,-1292.8129,0.0049630622,0.010847375,0.004507065,0.0,0.0,0.0
655.91223,410.88623,71163654,0.90000004,0.12765957,537.9959,-1523.779,0.0049630622,0.010847375,0.004507065,0.0,0.0,0.0
666.52313,392.95703,71163671,0.90000004,0.12765957,572.62286,-1370.9951,0.0049630622,0.010847375,0.004507065,0.0,0.0,0.0
676.9806,375.3169,71163687,0.9125,0.12765957,649.1834,-1152.8772,0.0049630622,0.010847375,0.004507065,0.0,0.0,0.0
686.7285,361.66345,71163704,0.90000004,0.12765957,662.7507,-899.8832,0.0049630622,0.010847375,0.004507065,0.0,0.0,0.0
694.6566,352.4956,71163721,0.9125,0.12765957,585.3603,-673.1463,0.0049630622,0.010847375,0.004507065,0.0,0.0,0.0
699.4253,348.57825,71163738,0.90000004,0.12765957,397.7691,-346.1907,0.0049630622,0.010847375,0.004507065,0.0,0.0,0.0
707.00854,343.97546,71163754,0.925,0.12765957,274.2322,-12.842545,0.0049630622,0.010847375,0.004507065,0.0,0.0,0.0
713.8162,342.83862,71163771,0.90000004,0.12765957,303.51547,105.66729,0.0049630622,0.010847375,0.004507065,0.0,0.0,0.0
721.11237,344.20166,71163788,0.9125,0.12765957,422.1906,142.0747,0.0049630622,0.010847375,0.004507065,0.0,0.0,0.0
727.07263,346.0465,71163804,0.90000004,0.12765957,425.8076,228.98804,0.0049630622,0.010847375,0.004507065,0.0,0.0,0.0
733.672,347.82153,71163821,0.90000004,0.12765957,379.34518,262.72144,0.0049630622,0.010847375,0.004507065,0.0,0.0,0.0
739.94556,350.36633,71163838,0.90000004,0.12765957,357.79974,217.58289,0.0049630622,0.010847375,0.004507065,0.0,0.0,0.0
744.90265,352.46436,71163855,0.8875,0.12765957,321.4014,175.60184,0.0049630622,0.010847375,0.004507065,0.0,0.0,0.0
749.60205,355.21912,71163871,0.8875,0.12765957,287.70102,166.89818,0.0049630622,0.010847375,0.004507065,0.0,0.0,0.0
754.8014,357.07935,71163888,0.8875,0.12765957,263.07318,151.09033,0.00397045,0.0086779,0.059606552,0.0,0.0,0.0
758.3865,358.92383,71163905,0.8875,0.12765957,224.98918,119.640144,0.00397045,0.0086779,0.059606552,0.0,0.0,0.0
759.7897,358.83167,71163921,0.90000004,0.12765957,142.24612,38.734997,0.00397045,0.0086779,0.059606552,0.0,0.0,0.0
760.23035,358.83167,71163938,0.9125,0.12765957,25.977545,-22.305714,0.00397045,0.0086779,0.059606552,0.0,0.0,0.0
760.23035,358.83167,71163955,0.90000004,0.12765957,-75.50032,-54.489784,0.00397045,0.0086779,0.059606552,0.0,0.0,0.0
759.521,358.83167,71163972,0.90000004,0.12765957,-123.16624,-48.697174,0.00397045,0.0086779,0.059606552,0.0,0.0,0.0
758.4745,358.83167,71163988,0.90000004,0.12765957,-105.77149,-9.977716,0.00397045,0.0086779,0.059606552,0.0,0.0,0.0
756.6469,357.9431,71164005,0.90000004,0.12765957,-118.708885,-28.096958,0.00397045,0.0086779,0.059606552,0.0,0.0,0.0
752.62836,357.0547,71164022,0.90000004,0.12765957,-194.83481,-61.82129,0.00397045,0.0086779,0.059606552,0.0,0.0,0.0
744.3783,357.0547,71164038,0.9125,0.12765957,-407.77673,-52.566296,0.00397045,0.0086779,0.059606552,0.0,0.0,0.0
734.16614,357.0547,71164055,0.875,0.12765957,-667.3322,-10.247557,0.00397045,0.0086779,0.059606552,0.0,0.0,0.0
722.27405,358.75293,71164072,0.875,0.12765957,-846.0684,58.036224,0.00397045,0.0086779,0.059606552,0.0,0.0,0.0
711.2396,363.2782,71164088,0.8875,0.12765957,-874.1473,210.03482,0.00397045,0.0086779,0.059606552,0.0,0.0,0.0
701.3581,368.81384,71164105,0.8875,0.11702127,-747.2887,360.42706,0.00397045,0.0086779,0.059606552,0.0,0.0,0.0
689.07556,376.24866,71164122,0.9125,0.10638297,-684.2692,503.4296,0.00397045,0.0086779,0.059606552,0.0,0.0,0.0
680.45294,383.02344,71164139,0.9125,0.12765957,-606.2111,549.1575,0.00397045,0.0086779,0.059606552,0.0,0.0,0.0
673.47107,387.8236,71164155,0.90000004,0.12765957,-498.2715,464.81076,0.00397045,0.0086779,0.059606552,0.0,0.0,0.0
668.4657,393.6537,71164172,0.90000004,0.12765957,-335.8237,353.8891,0.00397045,0.0086779,0.059606552,0.0,0.0,0.0
663.28973,403.18262,71164189,0.90000004,0.12765957,-155.38315,377.97388,0.00397045,0.0086779,0.059606552,0.0,0.0,0.0
659.41327,415.66602,71164205,0.9125,0.11702127,-144.18054,637.6958,0.00397045,0.0086779,0.059606552,0.0,0.0,0.0
658.26355,427.59143,71164222,0.90000004,0.11702127,-100.40482,865.8111,0.00397045,0.0086779,0.059606552,0.0,0.0,0.0
659.9518,440.41528,71164239,0.90000004,0.12765957,50.185104,927.5245,0.00397045,0.0086779,0.059606552,0.0,0.0,0.0
662.4152,448.63684,71164256,0.8875,0.12765957,232.29636,748.74884,0.00397045,0.0086779,0.059606552,0.0,0.0,0.0
666.0471,456.1869,71164272,0.8875,0.12765957,346.31168,485.12094,0.00397045,0.0086779,0.059606552,0.0,0.0,0.0
671.15344,463.54956,71164289,0.875,0.12765957,378.69403,337.19214,0.00397045,0.0086779,0.059606552,0.0,0.0,0.0
679.4255,472.73145,71164306,0.875,0.11702127,476.77066,377.90366,0.00397045,0.0086779,0.059606552,0.0,0.0,0.0
688.2566,479.11475,71164322,0.8625,0.11702127,595.56683,411.85376,0.00397045,0.0086779,0.059606552,0.0,0.0,0.0
696.6243,484.6925,71164339,0.85,0.11702127,639.5049,384.50192,0.00397045,0.0086779,0.059606552,0.0,0.0,0.0
707.295,489.0531,71164356,0.8625,0.10638297,665.3843,273.24625,0.00397045,0.0086779,0.059606552,0.0,0.0,0.0
720.46954,491.54822,71164373,0.85,0.10638297,748.66064,138.62404,0.00397045,0.0086779,0.059606552,0.0,0.0,0.0
730.68036,489.9359,71164389,0.875,0.10638297,769.2299,-40.132042,0.00397045,0.0086779,0.059606552,0.0,0.0,0.0
739.8066,486.28552,71164406,0.875,0.11702127,691.4332,-253.33408,0.00397045,0.0086779,0.059606552,0.0,0.0,0.0
747.0233,479.32617,71164423,0.8625,0.12765957,480.08536,-488.78775,-0.00482364,0.006942317,-0.040315628,0.0,0.0,0.0
754.9157,468.98352,71164439,0.8625,0.12765957,342.04684,-686.94836,-0.00482364,0.006942317,-0.040315628,0.0,0.0,0.0
762.0502,458.6632,71164456,0.875,0.12765957,356.70718,-808.95483,-0.00482364,0.006942317,-0.040315628,0.0,0.0,0.0
769.0796,443.75806,71164473,0.8875,0.10638297,367.6433,-908.05365,-0.00482364,0.006942317,-0.040315628,0.0,0.0,0.0
773.5951,429.43054,71164490,0.875,0.12765957,348.89877,-1020.5848,-0.00482364,0.006942317,-0.040315628,0.0,0.0,0.0
774.72565,418.30078,71164506,0.90000004,0.12765957,158.89027,-921.47107,-0.00482364,0.006942317,-0.040315628,0.0,0.0,0.0
774.72565,409.03198,71164523,0.90000004,0.12765957,-49.002758,-701.9145,-0.00482364,0.006942317,-0.040315628,0.0,0.0,0.0
774.13635,400.68433,71164540,0.90000004,0.12765957,-163.18584,-467.39996,-0.00482364,0.006942317,-0.040315628,0.0,0.0,0.0
771.9326,392.4386,71164556,0.90000004,0.12765957,-230.4612,-339.68137,-0.00482364,0.006942317,-0.040315628,0.0,0.0,0.0
770.3258,383.70435,71164573,0.9125,0.12765957,-195.9431,-395.83142,-0.00482364,0.006942317,-0.040315628,0.0,0.0,0.0
768.54065,379.15857,71164590,0.925,0.12765957,-168.23698,-369.22324,-0.00482364,0.006942317,-0.040315628,0.0,0.0,0.0
767.49506,374.88538,71164607,0.9125,0.12765957,-118.36562,-265.52362,-0.00482364,0.006942317,-0.040315628,0.0,0.0,0.0
766.4591,372.56934,71164623,0.925,0.12765957,-60.303833,-114.25359,-0.00482364,0.006942317,-0.040315628,0.0,0.0,0.0
765.4198,370.7218,71164640,0.9125,0.12765957,-41.78853,-14.4822,-0.00482364,0.006942317,-0.040315628,0.0,0.0,0.0
765.22876,370.3822,71164657,0.90000004,0.12765957,-16.990498,38.39208,-0.00482364,0.006942317,-0.040315628,0.0,0.0,0.0
765.22876,370.3822,71164673,0.925,0.12765957,3.6612637,71.770096,-0.00482364,0.006942317,-0.040315628,0.0,0.0,0.0
765.22876,371.1245,71164690,0.90000004,0.11702127,24.111586,81.26802,-0.00482364,0.006942317,-0.040315628,0.0,0.0,0.0
766.22095,374.79822,71164707,0.9125,0.11702127,53.32869,171.18507,-0.00482364,0.006942317,-0.040315628,0.0,0.0,0.0
767.79364,381.27808,71164723,0.875,0.12765957,91.186325,355.26797,-0.00482364,0.006942317,-0.040315628,0.0,0.0,0.0
768.79553,389.64465,71164740,0.8875,0.12765957,105.22673,540.0866,-0.00482364,0.006942317,-0.040315628,0.0,0.0,0.0
770.34296,397.86096,71164757,0.8875,0.12765957,114.34968,661.18695,-0.00482364,0.006942317,-0.040315628,0.0,0.0,0.0
773.7508,411.96326,71164774,0.875,0.12765957,156.20047,787.4171,-0.00482364,0.006942317,-0.040315628,0.0,0.0,0.0
776.302,424.854,71164790,0.875,0.10638297,186.56189,899.31573,-0.00482364,0.006942317,-0.040315628,0.0,0.0,0.0
779.943,435.38257,71164807,0.875,0.12765957,229.88765,863.7376,-0.00482364,0.006942317,-0.040315628,0.0,0.0,0.0
783.89404,445.71863,71164824,0.875,0.12765957,259.9995,738.9986,-0.00482364,0.006942317,-0.040315628,0.0,0.0,0.0
786.9553,451.10315,71164840,0.8625,0.12765957,236.67537,444.58954,-0.00482364,0.006942317,-0.040315628,0.0,0.0,0.0
791.77747,457.2273,71164857,0.8625,0.12765957,246.45374,210.99268,-0.00482364,0.006942317,-0.040315628,0.0,0.0,0.0
796.7504,463.93982,71164874,0.8625,0.12765957,292.7814,208.31963,-0.00482364,0.006942317,-0.040315628,0.0,0.0,0.0
802.1837,470.1516,71164891,0.85,0.11702127,329.70023,269.16403,-0.00482364,0.006942317,-0.040315628,0.0,0.0,0.0
809.039,475.98047,71164907,0.8625,0.11702127,409.3947,364.86526,-0.00482364,0.006942317,-0.040315628,0.0,0.0,0.0
816.34326,480.64404,71164924,0.85,0.10638297,460.8449,331.3154,-0.00482364,0.006942317,-0.040315628,0.0,0.0,0.0
825.6506,483.30933,71164941,0.85,0.09574468,528.8304,200.94435,-0.00482364,0.006942317,-0.040315628,0.0,0.0,0.0
837.69336,484.1106,71164957,0.8625,0.10638297,705.07025,70.40655,0.020141087,0.0055538565,0.015748024,0.0,0.0,0.0
849.166,480.73535,71164974,0.85,0.11702127,799.2566,-146.65698,0.020141087,0.0055538565,0.015748024,0.0,0.0,0.0
860.7041,472.7163,71164991,0.8625,0.12765957,820.72687,-432.2188,0.020141087,0.0055538565,0.015748024,0.0,0.0,0.0
875.54626,460.9447,71165008,0.875,0.12765957,865.8409,-760.22815,0.020141087,0.0055538565,0.015748024,0.0,0.0,0.0
890.04144,445.792,71165024,0.8875,0.10638297,876.57935,-1068.6813,0.020141087,0.0055538565,0.015748024,0.0,0.0,0.0
900.8437,429.62927,71165041,0.875,0.12765957,858.1337,-1192.918,0.020141087,0.0055538565,0.015748024,0.0,0.0,0.0
909.87744,411.2627,71165058,0.8625,0.12765957,655.9349,-1265.2605,0.020141087,0.0055538565,0.015748024,0.0,0.0,0.0
918.9924,388.51318,71165074,0.875,0.12765957,442.2498,-1323.9634,0.020141087,0.0055538565,0.015748024,0.0,0.0,0.0
927.10895,363.36853,71165091,0.875,0.12765957,379.28583,-1561.7588,0.020141087,0.0055538565,0.015748024,0.0,0.0,0.0
933.837,340.40698,71165108,0.8625,0.12765957,346.63812,-1587.4218,0.020141087,0.0055538565,0.015748024,0.0,0.0,0.0
938.1985,308.90186,71165125,0.8625,0.12765957,299.7724,-1817.5702,0.020141087,0.0055538565,0.015748024,0.0,0.0,0.0
940.7155,281.09363,71165141,0.8875,0.10638297,157.33057,-1866.6212,0.020141087,0.0055538565,0.015748024,0.0,0.0,0.0
940.5117,252.8872,71165158,0.8875,0.12765957,-25.60204,-1850.4133,0.020141087,0.0055538565,0.015748024,0.0,0.0,0.0
936.5477,231.55237,71165175,0.90000004,0.12765957,-231.82582,-1621.1409,0.020141087,0.0055538565,0.015748024,0.0,0.0,0.0
933.0109,205.4386,71165191,0.9125,0.12765957,-389.7136,-1386.6813,0.020141087,0.0055538565,0.015748024,0.0,0.0,0.0
928.3754,191.61475,71165208,0.9125,0.12765957,-435.2474,-1066.6051,0.020141087,0.0055538565,0.015748024,0.0,0.0,0.0
923.70276,175.89099,71165225,0.9125,0.12765957,-383.81744,-773.1987,0.020141087,0.0055538565,0.015748024,0.0,0.0,0.0
919.5957,163.14026,71165242,0.9125,0.12765957,-303.94788,-642.90076,0.020141087,0.0055538565,0.015748024,0.0,0.0,0.0
915.29846,154.68665,71165258,0.90000004,0.12765957,-260.4871,-391.23636,0.020141087,0.0055538565,0.015748024,0.0,0.0,0.0
911.3099,148.20581,71165275,0.8875,0.12765957,-238.08865,-308.2704,0.020141087,0.0055538565,0.015748024,0.0,0.0,0.0
904.0781,143.37964,71165292,0.8875,0.12765957,-300.33054,-149.02199,0.020141087,0.0055538565,0.015748024,0.0,0.0,0.0
897.1357,141.2815,71165308,0.8625,0.12765957,-424.9286,-17.059004,0.020141087,0.0055538565,0.015748024,0.0,0.0,0.0
890.7551,142.01978,71165325,0.85,0.12765957,-483.3804,79.5133,0.020141087,0.0055538565,0.015748024,0.0,0.0,0.0
885.0552,144.7981,71165342,0.85,0.10638297,-436.1703,233.33801,0.020141087,0.0055538565,0.015748024,0.0,0.0,0.0
881.0788,148.38928,71165358,0.8625,0.11702127,-313.9059,343.35327,0.020141087,0.0055538565,0.015748024,0.0,0.0,0.0
874.647,160.97144,71165375,0.8625,0.12765957,-267.7286,620.17596,0.020141087,0.0055538565,0.015748024,0.0,0.0,0.0
871.7687,175.78687,71165392,0.85,0.12765957,-224.24886,942.1006,0.020141087,0.0055538565,0.015748024,0.0,0.0,0.0
869.69476,192.2135,71165409,0.85,0.12765957,-150.09605,1168.0497,0.020141087,0.0055538565,0.015748024,0.0,0.0,0.0
869.69476,213.98315,71165425,0.8625,0.11702127,-11.41757,1412.2947,0.020141087,0.0055538565,0.015748024,0.0,0.0,0.0
870.448,231.83826,71165442,0.875,0.12765957,120.142494,1377.9883,0.020141087,0.0055538565,0.015748024,0.0,0.0,0.0
871.97626,253.40051,71165459,0.875,0.11702127,167.18619,1340.6803,0.020141087,0.0055538565,0.015748024,0.0,0.0,0.0
873.29565,275.86597,71165475,0.875,0.12765957,166.62212,1369.8923,0.020141087,0.0055538565,0.015748024,0.0,0.0,0.0
875.88354,295.11682,71165492,0.875,0.12765957,163.00778,1260.3741,0.016112871,-0.035556927,-0.05140114,0.0,0.0,0.0
878.97205,319.8656,71165509,0.8875,0.10638297,195.48668,1347.2772,0.016112871,-0.035556927,-0.05140114,0.0,0.0,0.0
881.125,338.81543,71165526,0.875,0.12765957,199.76184,1370.4481,0.016112871,-0.035556927,-0.05140114,0.0,0.0,0.0
884.19507,360.6477,71165542,0.875,0.10638297,192.30756,1263.4924,0.016112871,-0.035556927,-0.05140114,0.0,0.0,0.0
886.2506,381.6427,71165559,0.875,0.12765957,156.89453,1268.8933,0.016112871,-0.035556927,-0.05140114,0.0,0.0,0.0
886.6892,396.58337,71165576,0.875,0.12765957,81.182884,1064.8687,0.016112871,-0.035556927,-0.05140114,0.0,0.0,0.0
887.5474,417.57385,71165592,0.8625,0.10638297,31.960754,1023.37885,0.016112871,-0.035556927,-0.05140114,0.0,0.0,0.0
887.0024,437.115,71165609,0.875,0.12765957,-38.818695,1098.5537,0.016112871,-0.035556927,-0.05140114,0.0,0.0,0.0
887.189,449.3568,71165626,0.8625,0.12765957,-69.93793,950.403,0.016112871,-0.035556927,-0.05140114,0.0,0.0,0.0
887.4418,461.48914,71165643,0.8625,0.12765957,-36.877373,790.24646,0.016112871,-0.035556927,-0.05140114,0.0,0.0,0.0
887.98486,473.05127,71165659,0.875,0.10638297,6.9286766,548.48834,0.016112871,-0.035556927,-0.05140114,0.0,0.0,0.0
888.52563,481.1754,71165676,0.875,0.10638297,55.515488,411.25772,0.016112871,-0.035556927,-0.05140114,0.0,0.0,0.0
889.06696,487.01697,71165693,0.875,0.10638297,51.147472,314.62595,0.016112871,-0.035556927,-0.05140114,0.0,0.0,0.0
889.6054,490.9242,71165709,0.875,0.12765957,40.72696,162.8701,0.016112871,-0.035556927,-0.05140114,0.0,0.0,0.0
889.68823,493.80493,71165726,0.85,0.12765957,24.11862,45.91119,0.016112871,-0.035556927,-0.05140114,0.0,0.0,0.0
889.68823,495.65088,71165743,0.8625,0.12765957,4.61551,-2.4546034,0.016112871,-0.035556927,-0.05140114,0.0,0.0,0.0
889.68823,496.10535,71165747,0.8625,0.12765957,-3.626471,10.039414,0.016112871,-0.035556927,-0.05140114,0.0,0.0,0.0
889.68823,495.66113,71165775,0.875,0.12765957,-14.228953,-71.77757,0.016112871,-0.035556927,-0.05140114,0.0,0.0,0.0
889.68823,495.66113,71165793,0.875,0.10638297,-8.321346,-92.72286,0.016112871,-0.035556927,-0.05140114,0.0,0.0,0.0
890.31335,492.55005,71165810,0.875,0.10638297,15.963061,-159.3688,0.016112871,-0.035556927,-0.05140114,0.0,0.0,0.0
895.15265,478.86963,71165826,0.875,0.12765957,163.054,-532.45355,0.016112871,-0.035556927,-0.05140114,0.0,0.0,0.0
902.31085,461.8385,71165843,0.8625,0.12765957,389.982,-1041.371,0.016112871,-0.035556927,-0.05140114,0.0,0.0,0.0
910.3052,441.6886,71165860,0.8625,0.11702127,619.9797,-1519.9283,0.016112871,-0.035556927,-0.05140114,0.0,0.0,0.0
916.1013,421.7843,71165877,0.8875,0.12765957,596.84924,-1591.6749,0.016112871,-0.035556927,-0.05140114,0.0,0.0,0.0
920.0052,409.19458,71165893,0.8875,0.12765957,386.65594,-1239.6213,0.016112871,-0.035556927,-0.05140114,0.0,0.0,0.0
923.39996,401.33057,71165910,0.90000004,0.12765957,172.76453,-639.6252,0.016112871,-0.035556927,-0.05140114,0.0,0.0,0.0
927.266,394.9546,71165927,0.8875,0.12765957,95.17686,-211.2106,0.016112871,-0.035556927,-0.05140114,0.0,0.0,0.0
933.51117,388.29688,71165943,0.90000004,0.12765957,202.0364,-48.369312,0.016112871,-0.035556927,-0.05140114,0.0,0.0,0.0
939.87994,383.58643,71165960,0.8875,0.12765957,373.2882,-145.47717,0.016112871,-0.035556927,-0.05140114,0.0,0.0,0.0
944.86237,379.9851,71165977,0.8875,0.12765957,427.04764,-202.44653,0.016112871,-0.035556927,-0.05140114,0.0,0.0,0.0
950.18225,379.2672,71165993,0.90000004,0.12765957,387.50793,-94.32425,0.016112871,-0.035556927,-0.05140114,0.0,0.0,0.0
953.45056,379.2672,71166010,0.875,0.12765957,261.88123,54.78038,0.016112871,-0.035556927,-0.05140114,0.0,0.0,0.0
955.3205,380.29224,71166027,0.8875,0.12765957,126.691956,144.80684,-0.011109703,0.011554465,-0.009120941,0.0,0.0,0.0
957.6918,383.7555,71166044,0.875,0.12765957,59.088657,224.90633,-0.011109703,0.011554465,-0.009120941,0.0,0.0,0.0
961.4536,390.90967,71166060,0.875,0.12765957,108.41769,393.7664,-0.011109703,0.011554465,-0.009120941,0.0,0.0,0.0
963.7732,399.39612,71166077,0.8875,0.12765957,161.26308,571.8032,-0.011109703,0.011554465,-0.009120941,0.0,0.0,0.0
965.1637,411.99927,71166094,0.8625,0.12765957,152.24623,793.4526,-0.011109703,0.011554465,-0.009120941,0.0,0.0,0.0
965.66345,426.42297,71166110,0.875,0.11702127,51.768806,966.0114,-0.011109703,0.011554465,-0.009120941,0.0,0.0,0.0
966.6632,433.46594,71166127,0.85,0.12765957,-7.62804,913.39557,-0.011109703,0.011554465,-0.009120941,0.0,0.0,0.0
969.09863,450.00806,71166144,0.83750004,0.12765957,39.635853,872.3075,-0.011109703,0.011554465,-0.009120941,0.0,0.0,0.0
971.67456,461.0558,71166161,0.85,0.12765957,131.8364,719.14795,-0.011109703,0.011554465,-0.009120941,0.0,0.0,0.0
974.75696,472.01453,71166177,0.8625,0.11702127,206.16362,634.6541,-0.011109703,0.011554465,-0.009120941,0.0,0.0,0.0
977.33105,481.06396,71166194,0.85,0.11702127,215.89886,578.13275,-0.011109703,0.011554465,-0.009120941,0.0,0.0,0.0
979.99915,485.60388,71166210,0.8625,0.12765957,191.63068,407.01785,-0.011109703,0.011554465,-0.009120941,0.0,0.0,0.0
985.3251,491.04236,71166227,0.85,0.12765957,240.23373,238.4103,-0.011109703,0.011554465,-0.009120941,0.0,0.0,0.0
991.9418,496.80444,71166244,0.8625,0.12765957,345.45813,177.74527,-0.011109703,0.011554465,-0.009120941,0.0,0.0,0.0
999.984,500.5105,71166261,0.85,0.12765957,490.81512,173.91492,-0.011109703,0.011554465,-0.009120941,0.0,0.0,0.0
1007.7921,501.88074,71166277,0.85,0.12765957,581.7477,147.62027,-0.011109703,0.011554465,-0.009120941,0.0,0.0,0.0
1015.3159,500.44165,71166294,0.875,0.12765957,543.5486,-55.182648,-0.011109703,0.011554465,-0.009120941,0.0,0.0,0.0
1022.78467,497.35535,71166311,0.8625,0.12765957,472.26477,-258.0807,-0.011109703,0.011554465,-0.009120941,0.0,0.0,0.0
1033.3982,489.55725,71166327,0.875,0.11702127,516.14844,-470.3841,-0.011109703,0.011554465,-0.009120941,0.0,0.0,0.0
1041.1389,483.22217,71166343,0.875,0.12765957,565.89276,-593.881,-0.011109703,0.011554465,-0.009120941,0.0,0.0,0.0
1055.6702,468.63293,71166361,0.8625,0.12765957,738.8859,-806.062,-0.011109703,0.011554465,-0.009120941,0.0,0.0,0.0
1062.2831,460.8307,71166377,0.90000004,0.12765957,646.5064,-773.38855,-0.011109703,0.011554465,-0.009120941,0.0,0.0,0.0
1066.083,455.74207,71166394,0.875,0.12765957,379.1125,-550.92694,-0.011109703,0.011554465,-0.009120941,0.0,0.0,0.0
1068.8087,449.87122,71166411,0.90000004,0.12765957,94.18205,-301.96515,-0.011109703,0.011554465,-0.009120941,0.0,0.0,0.0
1071.3838,442.4851,71166428,0.8875,0.12765957,-24.825287,-257.20682,-0.011109703,0.011554465,-0.009120941,0.0,0.0,0.0
1072.1906,438.46777,71166444,0.8875,0.12765957,-27.411049,-275.77396,-0.011109703,0.011554465,-0.009120941,0.0,0.0,0.0
1071.9299,435.77795,71166461,0.8875,0.12765957,-41.52658,-239.52182,-0.011109703,0.011554465,-0.009120941,0.0,0.0,0.0
1070.6624,434.3545,71166478,0.8,0.10638297,-101.52217,-84.39511,-0.011109703,0.011554465,-0.009120941,0.0,0.0,0.0
1069.6296,434.3545,71166491,0.2875,0.11702127,-145.62366,18.47856,-0.011109703,0.011554465,-0.009120941,0.0,0.0,0.0
1069.6296,434.3545,71166497,0.2875,0.11702127,-145.62366,18.47856,-0.011109703,0.011554465,-0.009120941,0.0,0.0,0.0
