x,y,timestamp,pressure,fingerarea,velocityx,velocityy,accelx,accely,accelz,gyrox,gyroy,gyroz
383.35306,417.4729,127235586,0.825,0.10638297,0.0,0.0,-0.0037429333,-0.012155622,-0.013422966,0.0,0.0,0.0
383.35306,417.4729,127235618,0.925,0.10638297,3.3194512E-5,0.0010993122,-0.0037429333,-0.012155622,-0.013422966,0.0,0.0,0.0
383.35306,417.4729,127235635,0.975,0.12765957,0.008117101,0.008842078,-0.0037429333,-0.012155622,-0.013422966,0.0,0.0,0.0
383.35306,417.4729,127235652,0.96250004,0.12765957,0.0045741405,0.0043886406,-0.0037429333,-0.012155622,-0.013422966,0.0,0.0,0.0
383.35306,417.4729,127235668,0.975,0.11702127,0.012662239,0.013415378,-0.0037429333,-0.012155622,-0.013422966,0.0,0.0,0.0
383.35306,417.4729,127235685,0.95,0.11702127,0.029096855,0.0334749,-0.0037429333,-0.012155622,-0.013422966,0.0,0.0,0.0
374.27826,420.6991,127235702,0.9375,0.08510638,-132.21524,47.051086,-0.0037429333,-0.012155622,-0.013422966,0.0,0.0,0.0
353.97043,429.11536,127235718,0.9375,0.08510638,-1007.3628,383.83917,-0.0037429333,-0.012155622,-0.013422966,0.0,0.0,0.0
343.64777,435.96448,127235735,0.975,0.09574468,-1334.9874,622.9327,-0.0037429333,-0.012155622,-0.013422966,0.0,0.0,0.0
334.64667,442.99268,127235752,0.975,0.12765957,-1081.6896,634.9424,-0.0037429333,-0.012155622,-0.013422966,0.0,0.0,0.0
327.58536,450.3899,127235769,0.96250004,0.12765957,-540.6678,538.57007,-0.0037429333,-0.012155622,-0.013422966,0.0,0.0,0.0
321.77756,457.76904,127235785,1.0,0.11702127,-92.54807,418.50894,-0.0037429333,-0.012155622,-0.013422966,0.0,0.0,0.0
314.1416,471.9298,127235802,1.0125,0.09574468,-281.54254,623.8057,-0.0037429333,-0.012155622,-0.013422966,0.0,0.0,0.0
309.8618,484.15112,127235819,1.0125,0.11702127,-278.59412,836.8582,-0.0037429333,-0.012155622,-0.013422966,0.0,0.0,0.0
308.33472,494.26404,127235835,1.025,0.12765957,-162.70216,839.67194,-0.0037429333,-0.012155622,-0.013422966,0.0,0.0,0.0
308.95874,501.57104,127235852,1.025,0.12765957,22.840681,645.5058,-0.0037429333,-0.012155622,-0.013422966,0.0,0.0,0.0
312.29553,509.9823,127235869,1.025,0.12765957,250.12283,427.56012,-0.0037429333,-0.012155622,-0.013422966,0.0,0.0,0.0
317.4003,519.69653,127235885,1.0,0.11702127,407.40854,374.45755,-0.0037429333,-0.012155622,-0.013422966,0.0,0.0,0.0
322.46756,524.9758,127235902,1.0,0.08510638,453.90268,385.30832,-0.0037429333,-0.012155622,-0.013422966,0.0,0.0,0.0
331.99606,534.2112,127235919,1.025,0.08510638,552.4192,464.08972,-0.0037429333,-0.012155622,-0.013422966,0.0,0.0,0.0
342.92682,541.5696,127235936,1.0125,0.10638297,704.5604,470.7485,-0.0037429333,-0.012155622,-0.013422966,0.0,0.0,0.0
353.69736,545.6482,127235952,1.025,0.11702127,808.4876,364.29678,-0.0037429333,-0.012155622,-0.013422966,0.0,0.0,0.0
363.9257,548.71655,127235969,1.0,0.11702127,772.3455,206.17876,-0.0037429333,-0.012155622,-0.013422966,0.0,0.0,0.0
375.11392,550.56445,127235986,1.0125,0.10638297,684.2226,21.97885,-0.0037429333,-0.012155622,-0.013422966,0.0,0.0,0.0
387.992,550.7484,127236002,1.0125,0.09574468,695.31244,-70.407875,-0.0037429333,-0.012155622,-0.013422966,0.0,0.0,0.0
399.53595,549.0217,127236019,1.0,0.10638297,753.7833,-126.67767,0.013005674,-0.009724498,0.005262375,0.0,0.0,0.0
408.9775,546.2534,127236036,0.9875,0.09574468,696.9019,-214.8491,0.013005674,-0.009724498,0.005262375,0.0,0.0,0.0
417.7829,542.5559,127236053,1.0,0.09574468,563.76654,-294.12708,0.013005674,-0.009724498,0.005262375,0.0,0.0,0.0
426.61142,536.906,127236069,0.975,0.08510638,458.55307,-371.86597,0.013005674,-0.009724498,0.005262375,0.0,0.0,0.0
436.1094,530.0698,127236086,1.0,0.10638297,453.65665,-438.7646,0.013005674,-0.009724498,0.005262375,0.0,0.0,0.0
445.82983,521.7267,127236103,1.0,0.10638297,536.4127,-535.65173,0.013005674,-0.009724498,0.005262375,0.0,0.0,0.0
454.69708,512.4763,127236119,0.9875,0.12765957,571.7862,-617.5618,0.013005674,-0.009724498,0.005262375,0.0,0.0,0.0
461.57465,504.5504,127236136,1.0125,0.10638297,505.98563,-610.2642,0.013005674,-0.009724498,0.005262375,0.0,0.0,0.0
466.47534,495.77368,127236153,1.025,0.11702127,334.8632,-554.81836,0.013005674,-0.009724498,0.005262375,0.0,0.0,0.0
471.29602,484.7871,127236169,1.025,0.11702127,199.03255,-580.0008,0.013005674,-0.009724498,0.005262375,0.0,0.0,0.0
474.05225,475.54236,127236186,1.0125,0.12765957,121.310875,-619.79956,0.013005674,-0.009724498,0.005262375,0.0,0.0,0.0
474.8233,466.30127,127236203,1.025,0.12765957,35.827023,-616.3589,0.013005674,-0.009724498,0.005262375,0.0,0.0,0.0
474.8233,457.92383,127236220,1.025,0.12765957,-50.069527,-558.11426,0.013005674,-0.009724498,0.005262375,0.0,0.0,0.0
473.8626,448.7439,127236236,1.0500001,0.11702127,-132.84709,-488.62204,0.013005674,-0.009724498,0.005262375,0.0,0.0,0.0
471.77777,439.47864,127236253,1.0625,0.11702127,-181.6085,-515.5964,0.013005674,-0.009724498,0.005262375,0.0,0.0,0.0
467.57098,430.23474,127236270,1.0875,0.10638297,-251.71141,-550.74945,0.013005674,-0.009724498,0.005262375,0.0,0.0,0.0
462.89862,422.04248,127236286,1.075,0.12765957,-331.71362,-539.52545,0.013005674,-0.009724498,0.005262375,0.0,0.0,0.0
456.52252,414.74023,127236303,1.0375,0.12765957,-419.38852,-477.14508,0.013005674,-0.009724498,0.005262375,0.0,0.0,0.0
449.59692,407.33423,127236320,1.0375,0.12765957,-472.28036,-412.58817,0.013005674,-0.009724498,0.005262375,0.0,0.0,0.0
443.51523,401.19702,127236337,1.075,0.12765957,-473.7758,-364.447,0.013005674,-0.009724498,0.005262375,0.0,0.0,0.0
437.5397,396.11633,127236353,1.0875,0.12765957,-416.6971,-308.80945,0.013005674,-0.009724498,0.005262375,0.0,0.0,0.0
433.13535,392.9496,127236370,1.0875,0.11702127,-318.40173,-212.93521,0.013005674,-0.009724498,0.005262375,0.0,0.0,0.0
429.4801,391.10303,127236387,1.075,0.11702127,-211.98828,-79.0872,0.013005674,-0.009724498,0.005262375,0.0,0.0,0.0
426.22324,389.2683,127236403,1.075,0.11702127,-147.87657,-9.8462515,0.013005674,-0.009724498,0.005262375,0.0,0.0,0.0
422.59796,389.04077,127236420,1.0625,0.12765957,-144.35275,23.005726,0.013005674,-0.009724498,0.005262375,0.0,0.0,0.0
419.4778,389.04077,127236437,1.0875,0.12765957,-160.7635,48.267834,0.013005674,-0.009724498,0.005262375,0.0,0.0,0.0
416.85028,389.04077,127236454,1.0625,0.12765957,-169.90933,55.02155,0.013005674,-0.009724498,0.005262375,0.0,0.0,0.0
414.77753,389.04077,127236470,1.0500001,0.12765957,-132.37146,45.72443,0.013005674,-0.009724498,0.005262375,0.0,0.0,0.0
413.26685,389.04077,127236487,1.0625,0.12765957,-87.85692,21.92615,0.013005674,-0.009724498,0.005262375,0.0,0.0,0.0
411.73416,391.0127,127236504,1.0375,0.12765957,-59.129074,54.03304,0.013005674,-0.009724498,0.005262375,0.0,0.0,0.0
410.84412,392.85547,127236520,1.0375,0.12765957,-39.77912,118.18982,0.010404527,-0.023779605,0.004210472,0.0,0.0,0.0
410.84412,394.70972,127236537,1.025,0.12765957,-6.3132234,157.4606,0.010404527,-0.023779605,0.004210472,0.0,0.0,0.0
411.34396,396.1488,127236554,1.0125,0.12765957,43.65038,146.4315,0.010404527,-0.023779605,0.004210472,0.0,0.0,0.0
412.38226,397.51587,127236570,1.0125,0.12765957,81.04504,87.43979,0.010404527,-0.023779605,0.004210472,0.0,0.0,0.0
414.78503,399.93054,127236587,1.025,0.12765957,136.34192,91.34094,0.010404527,-0.023779605,0.004210472,0.0,0.0,0.0
419.13806,403.6454,127236604,0.9875,0.12765957,232.11977,170.77583,0.010404527,-0.023779605,0.004210472,0.0,0.0,0.0
426.00116,406.62463,127236621,1.025,0.12765957,383.60065,240.59987,0.010404527,-0.023779605,0.004210472,0.0,0.0,0.0
435.56342,408.463,127236637,1.025,0.12765957,569.0801,212.48836,0.010404527,-0.023779605,0.004210472,0.0,0.0,0.0
447.03845,408.5879,127236654,1.0,0.10638297,758.82166,84.772095,0.010404527,-0.023779605,0.004210472,0.0,0.0,0.0
458.45862,406.7898,127236671,1.0,0.12765957,848.5304,-92.80252,0.010404527,-0.023779605,0.004210472,0.0,0.0,0.0
467.8546,403.93652,127236688,1.0125,0.12765957,771.6236,-217.89992,0.010404527,-0.023779605,0.004210472,0.0,0.0,0.0
477.26855,400.25513,127236704,1.0,0.12765957,627.87805,-296.3916,0.010404527,-0.023779605,0.004210472,0.0,0.0,0.0
486.12378,395.4535,127236721,0.9875,0.10638297,510.33917,-345.99902,0.010404527,-0.023779605,0.004210472,0.0,0.0,0.0
495.59467,388.7937,127236738,1.0375,0.10638297,501.56134,-406.68942,0.010404527,-0.023779605,0.004210472,0.0,0.0,0.0
504.966,380.0974,127236754,1.0,0.10638297,536.50793,-515.92,0.010404527,-0.023779605,0.004210472,0.0,0.0,0.0
513.05054,371.28113,127236771,1.0125,0.10638297,532.6921,-625.10803,0.010404527,-0.023779605,0.004210472,0.0,0.0,0.0
519.7218,363.04224,127236788,1.0125,0.12765957,444.61325,-628.4786,0.010404527,-0.023779605,0.004210472,0.0,0.0,0.0
525.267,354.15198,127236805,1.0125,0.12765957,318.77457,-567.562,0.010404527,-0.023779605,0.004210472,0.0,0.0,0.0
530.63367,344.9203,127236821,1.0,0.11702127,250.11032,-538.74036,0.010404527,-0.023779605,0.004210472,0.0,0.0,0.0
538.66223,327.6637,127236838,1.0125,0.11702127,309.6706,-750.0724,0.010404527,-0.023779605,0.004210472,0.0,0.0,0.0
544.0152,314.22827,127236855,1.0125,0.11702127,375.5002,-988.0671,0.010404527,-0.023779605,0.004210472,0.0,0.0,0.0
548.2512,301.22888,127236871,1.0125,0.12765957,344.77063,-1019.0915,0.010404527,-0.023779605,0.004210472,0.0,0.0,0.0
552.95233,285.48035,127236888,1.0125,0.10638297,254.09375,-953.95984,0.010404527,-0.023779605,0.004210472,0.0,0.0,0.0
559.6813,267.06226,127236905,0.9875,0.10638297,275.50104,-1002.3289,0.010404527,-0.023779605,0.004210472,0.0,0.0,0.0
564.2163,251.59949,127236922,1.0,0.12765957,305.68323,-1043.5383,0.010404527,-0.023779605,0.004210472,0.0,0.0,0.0
568.382,237.67834,127236938,1.0125,0.10638297,307.97064,-1014.5886,0.010404527,-0.023779605,0.004210472,0.0,0.0,0.0
571.35876,221.64563,127236955,1.0,0.10638297,220.73404,-913.0845,0.010404527,-0.023779605,0.004210472,0.0,0.0,0.0
572.29156,207.6781,127236972,1.0,0.10638297,60.163406,-813.3186,0.010404527,-0.023779605,0.004210472,0.0,0.0,0.0
572.7914,196.05725,127236988,1.0,0.12765957,-16.68787,-775.31006,0.010404527,-0.023779605,0.004210472,0.0,0.0,0.0
572.7914,184.48389,127237005,1.0125,0.12765957,-69.63284,-672.5018,0.010404527,-0.023779605,0.004210472,0.0,0.0,0.0
573.29126,170.03308,127237022,0.9875,0.10638297,-60.573807,-658.0419,0.010404527,-0.023779605,0.004210472,0.0,0.0,0.0
571.6883,157.00854,127237039,1.0,0.11702127,-58.2535,-757.1576,0.010404527,-0.023779605,0.004210472,0.0,0.0,0.0
569.0528,145.47314,127237055,1.0,0.12765957,-128.87666,-798.8536,0.010404527,-0.023779605,0.004210472,0.0,0.0,0.0
565.8905,138.65515,127237072,1.0,0.12765957,-230.75235,-623.4228,-0.007676393,0.012976311,-0.060631752,0.0,0.0,0.0
562.2867,133.14111,127237089,0.9875,0.12765957,-278.40555,-297.644,-0.007676393,0.012976311,-0.060631752,0.0,0.0,0.0
557.6326,127.60266,127237105,1.0,0.11702127,-308.29175,-147.99666,-0.007676393,0.012976311,-0.060631752,0.0,0.0,0.0
552.38544,123.08508,127237122,1.0125,0.11702127,-327.12344,-137.65787,-0.007676393,0.012976311,-0.060631752,0.0,0.0,0.0
548.8341,120.506226,127237139,0.975,0.11702127,-311.0806,-137.77998,-0.007676393,0.012976311,-0.060631752,0.0,0.0,0.0
545.3476,118.93579,127237155,0.9875,0.11702127,-257.3024,-92.6544,-0.007676393,0.012976311,-0.060631752,0.0,0.0,0.0
541.51495,120.17383,127237172,0.975,0.12765957,-199.19398,55.296463,-0.007676393,0.012976311,-0.060631752,0.0,0.0,0.0
536.186,124.13208,127237189,0.975,0.12765957,-228.20895,239.78654,-0.007676393,0.012976311,-0.060631752,0.0,0.0,0.0
526.2882,136.65161,127237206,1.0,0.10638297,-442.39926,583.3743,-0.007676393,0.012976311,-0.060631752,0.0,0.0,0.0
511.96942,161.30273,127237222,0.975,0.10638297,-806.01324,1297.4767,-0.007676393,0.012976311,-0.060631752,0.0,0.0,0.0
504.1872,175.76611,127237239,0.9875,0.12765957,-890.1093,1612.0845,-0.007676393,0.012976311,-0.060631752,0.0,0.0,0.0
497.96863,190.24622,127237256,1.0,0.12765957,-645.559,1396.9977,-0.007676393,0.012976311,-0.060631752,0.0,0.0,0.0
493.13293,208.16101,127237272,1.0125,0.10638297,-298.69052,1041.7128,-0.007676393,0.012976311,-0.060631752,0.0,0.0,0.0
490.35547,225.91553,127237289,1.025,0.12765957,-51.83871,900.80035,-0.007676393,0.012976311,-0.060631752,0.0,0.0,0.0
488.30835,244.40259,127237306,1.025,0.11702127,-8.725712,1077.5321,-0.007676393,0.012976311,-0.060631752,0.0,0.0,0.0
487.81903,265.71533,127237323,1.0,0.11702127,21.06671,1282.7925,-0.007676393,0.012976311,-0.060631752,0.0,0.0,0.0
488.91486,282.89917,127237339,1.0,0.12765957,109.82874,1225.761,-0.007676393,0.012976311,-0.060631752,0.0,0.0,0.0
490.5938,304.01794,127237356,1.0125,0.10638297,165.7199,1185.1267,-0.007676393,0.012976311,-0.060631752,0.0,0.0,0.0
493.35773,327.13293,127237373,1.0,0.10638297,212.74863,1292.8447,-0.007676393,0.012976311,-0.060631752,0.0,0.0,0.0
495.93298,343.82532,127237389,1.0125,0.12765957,233.56941,1234.0748,-0.007676393,0.012976311,-0.060631752,0.0,0.0,0.0
498.5534,364.07642,127237406,1.025,0.10638297,211.27383,1206.1488,-0.007676393,0.012976311,-0.060631752,0.0,0.0,0.0
500.87555,382.36462,127237423,1.0,0.10638297,183.652,1129.6201,-0.007676393,0.012976311,-0.060631752,0.0,0.0,0.0
503.2732,397.14014,127237440,1.0125,0.12765957,140.49533,938.47327,-0.007676393,0.012976311,-0.060631752,0.0,0.0,0.0
506.7209,411.81482,127237456,1.0125,0.10638297,153.204,832.8632,-0.007676393,0.012976311,-0.060631752,0.0,0.0,0.0
510.75177,429.00977,127237473,1.0375,0.10638297,207.78888,792.27167,-0.007676393,0.012976311,-0.060631752,0.0,0.0,0.0
515.0048,443.93115,127237490,1.0,0.12765957,279.5416,854.9519,-0.007676393,0.012976311,-0.060631752,0.0,0.0,0.0
519.2401,458.98828,127237506,1.0,0.12765957,307.48206,940.75946,-0.007676393,0.012976311,-0.060631752,0.0,0.0,0.0
523.4166,472.89954,127237523,0.96250004,0.09574468,283.1387,882.13745,-0.007676393,0.012976311,-0.060631752,0.0,0.0,0.0
527.56244,484.79382,127237540,0.96250004,0.11702127,260.2831,751.88873,-0.007676393,0.012976311,-0.060631752,0.0,0.0,0.0
531.12494,492.86548,127237557,0.96250004,0.11702127,234.05214,554.1511,-0.007676393,0.012976311,-0.060631752,0.0,0.0,0.0
533.7712,496.21448,127237573,0.96250004,0.12765957,182.61899,266.59085,-0.007676393,0.012976311,-0.060631752,0.0,0.0,0.0
538.12427,499.9452,127237590,0.95,0.12765957,183.60455,37.951267,-0.007676393,0.012976311,-0.060631752,0.0,0.0,0.0
542.4029,503.55212,127237607,0.96250004,0.12765957,219.53658,-19.578657,-0.007676393,0.012976311,-0.060631752,0.0,0.0,0.0
548.0971,507.2456,127237623,0.9375,0.10638297,323.56223,104.51046,-0.007676393,0.012976311,-0.060631752,0.0,0.0,0.0
554.33746,510.91296,127237640,0.9375,0.10638297,400.76123,204.63283,0.009858906,0.026381053,0.047493935,0.0,0.0,0.0
561.64386,514.02747,127237657,0.9375,0.10638297,452.33563,209.40248,0.009858906,0.026381053,0.047493935,0.0,0.0,0.0
568.5154,515.20825,127237673,0.9375,0.12765957,468.3798,130.26512,0.009858906,0.026381053,0.047493935,0.0,0.0,0.0
575.23083,514.4855,127237690,0.9375,0.12765957,455.28427,-1.991889,0.009858906,0.026381053,0.047493935,0.0,0.0,0.0
581.4935,511.82898,127237707,0.96250004,0.12765957,409.02014,-161.50487,0.009858906,0.026381053,0.047493935,0.0,0.0,0.0
588.7665,505.4547,127237724,0.96250004,0.12765957,392.15765,-363.7972,0.009858906,0.026381053,0.047493935,0.0,0.0,0.0
597.06836,496.23328,127237740,0.9875,0.10638297,453.11676,-591.8446,0.009858906,0.026381053,0.047493935,0.0,0.0,0.0
606.9873,482.10547,127237757,0.9875,0.12765957,560.8469,-857.0875,0.009858906,0.026381053,0.047493935,0.0,0.0,0.0
614.95593,470.63855,127237774,0.9875,0.12765957,598.5532,-972.5837,0.009858906,0.026381053,0.047493935,0.0,0.0,0.0
622.4294,459.2516,127237790,0.975,0.12765957,532.43225,-911.8454,0.009858906,0.026381053,0.047493935,0.0,0.0,0.0
628.7282,449.53882,127237807,1.0,0.11702127,419.4972,-731.61444,0.009858906,0.026381053,0.047493935,0.0,0.0,0.0
635.6576,435.0337,127237824,1.0125,0.11702127,338.65836,-672.88513,0.009858906,0.026381053,0.047493935,0.0,0.0,0.0
639.571,426.2362,127237841,1.025,0.12765957,295.1317,-695.00385,0.009858906,0.026381053,0.047493935,0.0,0.0,0.0
643.7587,418.3783,127237857,1.0125,0.12765957,215.10614,-570.52014,0.009858906,0.026381053,0.047493935,0.0,0.0,0.0
649.8209,410.5963,127237874,1.0125,0.12765957,219.50366,-412.1177,0.009858906,0.026381053,0.047493935,0.0,0.0,0.0
657.59296,404.0371,127237891,1.0375,0.12765957,335.8302,-278.64282,0.009858906,0.026381053,0.047493935,0.0,0.0,0.0
666.497,400.0044,127237907,1.0,0.12765957,520.7657,-230.1199,0.009858906,0.026381053,0.047493935,0.0,0.0,0.0
674.9662,396.27844,127237924,1.025,0.12765957,632.1094,-192.66972,0.009858906,0.026381053,0.047493935,0.0,0.0,0.0
682.7921,394.36096,127237941,1.0375,0.12765957,583.79474,-76.20285,0.009858906,0.026381053,0.047493935,0.0,0.0,0.0
688.9931,393.48328,127237958,1.025,0.12765957,461.56137,-6.027927,0.009858906,0.026381053,0.047493935,0.0,0.0,0.0
695.35675,393.48328,127237974,1.025,0.12765957,345.0197,49.90768,0.009858906,0.026381053,0.047493935,0.0,0.0,0.0
702.0924,393.48328,127237991,1.0375,0.12765957,321.75156,76.02922,0.009858906,0.026381053,0.047493935,0.0,0.0,0.0
708.16583,394.37183,127238008,1.0125,0.12765957,340.7496,101.04195,0.009858906,0.026381053,0.047493935,0.0,0.0,0.0
713.05865,395.26025,127238024,1.0125,0.12765957,334.6571,95.46966,0.009858906,0.026381053,0.047493935,0.0,0.0,0.0
715.9798,395.26025,127238041,1.0125,0.12765957,232.52933,45.37327,0.009858906,0.026381053,0.047493935,0.0,0.0,0.0
717.52637,395.26025,127238058,1.0125,0.12765957,79.1402,6.5684686,0.009858906,0.026381053,0.047493935,0.0,0.0,0.0
717.7442,395.26025,127238075,1.0375,0.12765957,-41.173286,-24.704245,0.009858906,0.026381053,0.047493935,0.0,0.0,0.0
717.7442,395.26025,127238091,1.0375,0.12765957,-98.115685,-16.78969,0.009858906,0.026381053,0.047493935,0.0,0.0,0.0
717.4027,395.26025,127238108,1.0375,0.12765957,-96.2065,0.021562448,0.009858906,0.026381053,0.047493935,0.0,0.0,0.0
716.3161,395.26025,127238125,1.0125,0.12765957,-90.84264,0.042569093,0.009858906,0.026381053,0.047493935,0.0,0.0,0.0
713.8141,395.26025,127238141,1.0125,0.12765957,-121.32516,0.026705027,0.009858906,0.026381053,0.047493935,0.0,0.0,0.0
708.64026,396.1488,127238158,0.975,0.12765957,-260.53378,28.643528,0.009858906,0.026381053,0.047493935,0.0,0.0,0.0
702.8821,398.03442,127238175,0.96250004,0.12765957,-392.84882,83.24447,0.009858906,0.026381053,0.047493935,0.0,0.0,0.0
694.4754,399.87524,127238191,0.96250004,0.12765957,-530.16254,133.53563,0.007887125,-0.026895162,-0.010004997,0.0,0.0,0.0
684.3473,403.7572,127238208,0.975,0.12765957,-651.31537,208.39583,0.007887125,-0.026895162,-0.010004997,0.0,0.0,0.0
672.9375,409.55884,127238225,0.96250004,0.10638297,-753.15906,318.2954,0.007887125,-0.026895162,-0.010004997,0.0,0.0,0.0
661.8354,417.21777,127238242,0.96250004,0.11702127,-805.3641,458.82983,0.007887125,-0.026895162,-0.010004997,0.0,0.0,0.0
653.9872,424.60913,127238258,1.0,0.11702127,-669.6522,563.8436,0.007887125,-0.026895162,-0.010004997,0.0,0.0,0.0
647.39954,431.5321,127238275,0.975,0.11702127,-442.67172,530.4667,0.007887125,-0.026895162,-0.010004997,0.0,0.0,0.0
639.9429,439.38257,127238292,0.975,0.12765957,-309.35507,490.98853,0.007887125,-0.026895162,-0.010004997,0.0,0.0,0.0
634.00757,446.00867,127238308,0.9875,0.12765957,-288.63437,435.89893,0.007887125,-0.026895162,-0.010004997,0.0,0.0,0.0
627.29956,457.22253,127238325,0.9875,0.12765957,-338.36963,509.28906,0.007887125,-0.026895162,-0.010004997,0.0,0.0,0.0
623.89276,466.70496,127238342,0.9875,0.10638297,-299.19794,620.92126,0.007887125,-0.026895162,-0.010004997,0.0,0.0,0.0
622.77515,478.65576,127238359,0.975,0.10638297,-127.80283,703.30316,0.007887125,-0.026895162,-0.010004997,0.0,0.0,0.0
623.3062,489.77466,127238375,0.975,0.10638297,64.887695,772.19806,0.007887125,-0.026895162,-0.010004997,0.0,0.0,0.0
626.14984,498.3286,127238392,0.975,0.12765957,225.4403,652.646,0.007887125,-0.026895162,-0.010004997,0.0,0.0,0.0
630.2912,507.4751,127238409,0.96250004,0.12765957,346.49722,543.03656,0.007887125,-0.026895162,-0.010004997,0.0,0.0,0.0
635.10944,516.698,127238425,0.975,0.11702127,388.1537,494.36368,0.007887125,-0.026895162,-0.010004997,0.0,0.0,0.0
639.70105,524.85986,127238442,0.95,0.11702127,406.80328,485.82626,0.007887125,-0.026895162,-0.010004997,0.0,0.0,0.0
645.3576,533.6228,127238459,0.9375,0.11702127,372.88794,528.3771,0.007887125,-0.026895162,-0.010004997,0.0,0.0,0.0
653.3758,542.8501,127238476,0.96250004,0.10638297,423.91458,525.5057,0.007887125,-0.026895162,-0.010004997,0.0,0.0,0.0
662.5029,548.81775,127238492,0.95,0.09574468,546.0777,446.20023,0.007887125,-0.026895162,-0.010004997,0.0,0.0,0.0
672.1279,552.2355,127238509,0.975,0.10638297,636.7722,265.22772,0.007887125,-0.026895162,-0.010004997,0.0,0.0,0.0
680.3177,552.5254,127238526,0.96250004,0.10638297,647.14954,43.284,0.007887125,-0.026895162,-0.010004997,0.0,0.0,0.0
687.68396,551.80566,127238542,0.975,0.11702127,525.0544,-171.14674,0.007887125,-0.026895162,-0.010004997,0.0,0.0,0.0
693.9576,547.4558,127238559,0.9875,0.11702127,387.62155,-305.80838,0.007887125,-0.026895162,-0.010004997,0.0,0.0,0.0
701.77203,539.1727,127238576,1.0,0.10638297,362.9086,-509.88535,0.007887125,-0.026895162,-0.010004997,0.0,0.0,0.0
711.6333,527.1659,127238593,0.9875,0.12765957,470.45392,-757.61053,0.007887125,-0.026895162,-0.010004997,0.0,0.0,0.0
721.40546,516.20044,127238609,0.975,0.12765957,608.16547,-905.6168,0.007887125,-0.026895162,-0.010004997,0.0,0.0,0.0
728.5236,504.04346,127238626,1.0125,0.10638297,594.5007,-915.5728,0.007887125,-0.026895162,-0.010004997,0.0,0.0,0.0
737.39594,484.63794,127238643,1.0,0.11702127,540.6654,-1055.1069,0.007887125,-0.026895162,-0.010004997,0.0,0.0,0.0
741.83075,468.3186,127238659,1.0,0.12765957,385.36514,-1157.8585,0.007887125,-0.026895162,-0.010004997,0.0,0.0,0.0
744.69727,455.47144,127238676,1.0,0.12765957,169.2029,-1056.5957,0.007887125,-0.026895162,-0.010004997,0.0,0.0,0.0
746.2349,441.66675,127238693,1.0125,0.11702127,25.861794,-843.87823,0.007887125,-0.026895162,-0.010004997,0.0,0.0,0.0
747.0373,429.3506,127238709,1.0125,0.11702127,-88.71067,-647.0949,0.007887125,-0.026895162,-0.010004997,0.0,0.0,0.0
746.4066,419.88733,127238726,1.0,0.12765957,-86.94074,-583.6082,0.007887125,-0.026895162,-0.010004997,0.0,0.0,0.0
744.9934,412.82983,127238743,1.0,0.12765957,-120.66812,-464.13263,0.007887125,-0.026895162,-0.010004997,0.0,0.0,0.0
743.30225,407.93518,127238760,1.0125,0.12765957,-168.07927,-256.3177,0.02230969,0.010483868,0.039996147,0.0,0.0,0.0
742.2714,405.09644,127238776,1.0125,0.12765957,-148.14372,-77.97324,0.02230969,0.010483868,0.039996147,0.0,0.0,0.0
741.2236,403.23376,127238793,1.025,0.12765957,-100.806816,4.530783,0.02230969,0.010483868,0.039996147,0.0,0.0,0.0
740.1843,401.38647,127238810,1.0125,0.12765957,-56.571312,19.641619,0.02230969,0.010483868,0.039996147,0.0,0.0,0.0
739.14453,401.47986,127238826,1.0375,0.12765957,-47.743706,35.744038,0.02230969,0.010483868,0.039996147,0.0,0.0,0.0
739.2372,401.47986,127238843,1.0,0.12765957,-26.990334,50.930466,0.02230969,0.010483868,0.039996147,0.0,0.0,0.0
739.2372,402.51843,127238860,1.0,0.12765957,4.7932096,84.51228,0.02230969,0.010483868,0.039996147,0.0,0.0,0.0
740.6442,407.89697,127238877,0.975,0.12765957,61.0129,219.48941,0.02230969,0.010483868,0.039996147,0.0,0.0,0.0
742.7271,416.53674,127238893,0.975,0.11702127,135.72441,462.91086,0.02230969,0.010483868,0.039996147,0.0,0.0,0.0
744.80927,429.54834,127238910,0.975,0.11702127,172.00815,796.8183,0.02230969,0.010483868,0.039996147,0.0,0.0,0.0
746.35724,441.2262,127238927,0.96250004,0.12765957,161.02069,978.18884,0.02230969,0.010483868,0.039996147,0.0,0.0,0.0
748.4183,453.7135,127238943,0.9875,0.12765957,118.022675,911.20825,0.02230969,0.010483868,0.039996147,0.0,0.0,0.0
750.47003,467.3673,127238960,0.9875,0.11702127,113.98329,872.87695,0.02230969,0.010483868,0.039996147,0.0,0.0,0.0
753.5532,481.48376,127238977,0.9875,0.11702127,148.12962,843.0272,0.02230969,0.010483868,0.039996147,0.0,0.0,0.0
757.1496,493.66626,127238994,0.96250004,0.11702127,202.39766,826.56854,0.02230969,0.010483868,0.039996147,0.0,0.0,0.0
761.80585,504.74866,127239010,0.9875,0.12765957,281.9369,753.1254,0.02230969,0.010483868,0.039996147,0.0,0.0,0.0
767.0174,515.8251,127239027,0.96250004,0.10638297,339.93793,640.8842,0.02230969,0.010483868,0.039996147,0.0,0.0,0.0
771.50275,523.6952,127239044,0.9875,0.10638297,352.8301,523.29785,0.02230969,0.010483868,0.039996147,0.0,0.0,0.0
778.2668,532.8928,127239060,0.96250004,0.10638297,374.95798,450.63348,0.02230969,0.010483868,0.039996147,0.0,0.0,0.0
786.9183,541.5936,127239077,0.96250004,0.10638297,451.12268,439.26822,0.02230969,0.010483868,0.039996147,0.0,0.0,0.0
794.21686,547.0663,127239094,0.96250004,0.11702127,530.9212,381.10837,0.02230969,0.010483868,0.039996147,0.0,0.0,0.0
801.3937,550.2855,127239111,0.975,0.12765957,527.7111,247.06783,0.02230969,0.010483868,0.039996147,0.0,0.0,0.0
809.2882,551.63684,127239127,0.9875,0.11702127,491.63556,59.25027,0.02230969,0.010483868,0.039996147,0.0,0.0,0.0
817.07587,551.0714,127239144,1.025,0.10638297,443.79343,-125.17006,0.02230969,0.010483868,0.039996147,0.0,0.0,0.0
826.32245,547.1271,127239161,1.0,0.10638297,494.61917,-257.9586,0.02230969,0.010483868,0.039996147,0.0,0.0,0.0
835.0824,540.875,127239177,0.9875,0.10638297,538.2483,-413.44913,0.02230969,0.010483868,0.039996147,0.0,0.0,0.0
845.17926,531.71814,127239194,1.0125,0.11702127,597.0766,-606.26355,0.02230969,0.010483868,0.039996147,0.0,0.0,0.0
855.69464,519.656,127239211,0.9875,0.12765957,646.6889,-800.3747,0.02230969,0.010483868,0.039996147,0.0,0.0,0.0
867.6278,502.11902,127239228,0.975,0.10638297,702.4813,-1042.0206,0.02230969,0.010483868,0.039996147,0.0,0.0,0.0
885.799,476.35767,127239244,1.0,0.12765957,939.01483,-1468.7766,0.02230969,0.010483868,0.039996147,0.0,0.0,0.0
901.8955,454.13428,127239261,0.9875,0.11702127,1120.9877,-1716.4229,0.02230969,0.010483868,0.039996147,0.0,0.0,0.0
917.14575,421.98486,127239278,0.9875,0.12765957,1120.7686,-1921.4752,0.02230969,0.010483868,0.039996147,0.0,0.0,0.0
922.3195,405.0797,127239294,0.975,0.12765957,781.3754,-1725.4026,0.02230969,0.010483868,0.039996147,0.0,0.0,0.0
928.553,380.59155,127239311,0.9875,0.11702127,263.2012,-1416.8009,0.03384778,-0.023612905,-0.048003197,0.0,0.0,0.0
934.0027,359.43994,127239328,0.9875,0.12765957,94.01202,-1314.1544,0.03384778,-0.023612905,-0.048003197,0.0,0.0,0.0
937.91614,337.7694,127239345,1.0125,0.11702127,72.36776,-1170.5521,0.03384778,-0.023612905,-0.048003197,0.0,0.0,0.0
940.0244,314.6228,127239361,0.9875,0.10638297,81.00774,-1269.7086,0.03384778,-0.023612905,-0.048003197,0.0,0.0,0.0
938.8989,297.5609,127239378,0.9875,0.12765957,-29.36462,-1198.5405,0.03384778,-0.023612905,-0.048003197,0.0,0.0,0.0
933.15424,278.43005,127239395,0.975,0.11702127,-286.87277,-1070.9801,0.03384778,-0.023612905,-0.048003197,0.0,0.0,0.0
926.8558,263.24573,127239411,0.975,0.11702127,-525.81116,-946.78296,0.03384778,-0.023612905,-0.048003197,0.0,0.0,0.0
922.1524,254.83191,127239428,0.9875,0.12765957,-550.928,-612.60614,0.03384778,-0.023612905,-0.048003197,0.0,0.0,0.0
916.4005,246.46704,127239445,0.975,0.12765957,-459.62253,-374.56357,0.03384778,-0.023612905,-0.048003197,0.0,0.0,0.0
909.07794,239.15894,127239461,0.975,0.12765957,-403.7289,-218.38202,0.03384778,-0.023612905,-0.048003197,0.0,0.0,0.0
900.7363,233.95972,127239478,0.975,0.12765957,-453.3612,-154.83879,0.03384778,-0.023612905,-0.048003197,0.0,0.0,0.0
892.2511,231.45679,127239495,0.975,0.12765957,-548.0608,-142.35234,0.03384778,-0.023612905,-0.048003197,0.0,0.0,0.0
885.68286,230.8872,127239512,0.975,0.12765957,-544.8791,-27.185131,0.03384778,-0.023612905,-0.048003197,0.0,0.0,0.0
880.4664,231.32251,127239528,0.95,0.12765957,-379.8741,143.07664,0.03384778,-0.023612905,-0.048003197,0.0,0.0,0.0
876.056,233.16919,127239545,0.9375,0.12765957,-243.18794,208.93565,0.03384778,-0.023612905,-0.048003197,0.0,0.0,0.0
872.7236,235.59058,127239562,0.9375,0.12765957,-152.27545,218.04657,0.03384778,-0.023612905,-0.048003197,0.0,0.0,0.0
868.5333,241.83679,127239578,1.0,0.12765957,-129.2528,304.43927,0.03384778,-0.023612905,-0.048003197,0.0,0.0,0.0
864.21893,252.59595,127239595,0.975,0.11702127,-195.66211,558.6647,0.03384778,-0.023612905,-0.048003197,0.0,0.0,0.0
861.3158,266.47485,127239612,0.9875,0.11702127,-218.51584,873.7663,0.03384778,-0.023612905,-0.048003197,0.0,0.0,0.0
860.6977,281.22632,127239629,0.9875,0.12765957,-140.32697,1108.7426,0.03384778,-0.023612905,-0.048003197,0.0,0.0,0.0
860.6977,299.64026,127239645,1.0,0.11702127,12.428021,1206.1848,0.03384778,-0.023612905,-0.048003197,0.0,0.0,0.0
860.6977,320.49475,127239662,0.9875,0.11702127,100.0151,1318.0109,0.03384778,-0.023612905,-0.048003197,0.0,0.0,0.0
861.73645,339.0912,127239679,1.0,0.12765957,115.48723,1347.5946,0.03384778,-0.023612905,-0.048003197,0.0,0.0,0.0
862.3245,360.6582,127239695,1.0125,0.11702127,87.44545,1354.3499,0.03384778,-0.023612905,-0.048003197,0.0,0.0,0.0
862.1972,382.1881,127239712,1.0,0.12765957,45.200035,1339.8867,0.03384778,-0.023612905,-0.048003197,0.0,0.0,0.0
863.6967,398.813,127239729,0.9875,0.12765957,54.823334,1189.6322,0.03384778,-0.023612905,-0.048003197,0.0,0.0,0.0
864.44696,417.4823,127239746,1.0,0.11702127,55.51007,1102.0604,0.03384778,-0.023612905,-0.048003197,0.0,0.0,0.0
865.19196,431.60547,127239762,1.0,0.11702127,67.25975,937.71735,0.03384778,-0.023612905,-0.048003197,0.0,0.0,0.0
867.8047,450.23608,127239779,1.0125,0.12765957,108.52821,899.8544,0.03384778,-0.023612905,-0.048003197,0.0,0.0,0.0
869.34863,466.51062,127239796,1.0,0.11702127,122.98304,895.0465,0.03384778,-0.023612905,-0.048003197,0.0,0.0,0.0
871.0957,483.5979,127239812,1.0125,0.11702127,137.6482,962.7532,0.03384778,-0.023612905,-0.048003197,0.0,0.0,0.0
872.1131,496.57654,127239829,1.0,0.12765957,99.741714,903.94183,0.03384778,-0.023612905,-0.048003197,0.0,0.0,0.0
874.1702,507.109,127239846,1.0,0.12765957,79.077225,736.32434,0.03384778,-0.023612905,-0.048003197,0.0,0.0,0.0
875.21906,516.3291,127239863,1.0,0.11702127,80.90239,530.4017,0.03384778,-0.023612905,-0.048003197,0.0,0.0,0.0
876.26355,524.5974,127239879,0.9875,0.10638297,70.02512,362.15695,0.0510782,-0.0028903186,0.097598076,0.0,0.0,0.0
877.2994,530.88367,127239896,1.0,0.10638297,59.407364,317.4395,0.0510782,-0.0028903186,0.097598076,0.0,0.0,0.0
878.34326,536.4507,127239913,1.0,0.10638297,47.071682,263.14478,0.0510782,-0.0028903186,0.097598076,0.0,0.0,0.0
878.19196,540.7748,127239929,0.9875,0.10638297,18.176043,215.2395,0.0510782,-0.0028903186,0.097598076,0.0,0.0,0.0
878.19196,544.32654,127239946,1.0,0.10638297,-10.681911,156.5927,0.0510782,-0.0028903186,0.097598076,0.0,0.0,0.0
878.9418,546.75024,127239963,0.9875,0.10638297,-10.957417,123.58885,0.0510782,-0.0028903186,0.097598076,0.0,0.0,0.0
879.4953,546.3059,127239979,0.975,0.10638297,17.482162,5.071419,0.0510782,-0.0028903186,0.097598076,0.0,0.0,0.0
880.53564,546.3059,127239996,0.975,0.10638297,62.900642,-92.59501,0.0510782,-0.0028903186,0.097598076,0.0,0.0,0.0
881.57367,546.3059,127240013,1.0125,0.10638297,81.89607,-107.51332,0.0510782,-0.0028903186,0.097598076,0.0,0.0,0.0
882.875,546.3059,127240030,1.0125,0.10638297,78.18422,-62.375145,0.0510782,-0.0028903186,0.097598076,0.0,0.0,0.0
885.10815,544.6013,127240046,1.0375,0.10638297,110.5594,-49.16708,0.0510782,-0.0028903186,0.097598076,0.0,0.0,0.0
887.1867,541.86743,127240063,1.0125,0.10638297,146.88994,-138.96323,0.0510782,-0.0028903186,0.097598076,0.0,0.0,0.0
889.80176,537.219,127240080,0.975,0.10638297,168.22351,-262.33978,0.0510782,-0.0028903186,0.097598076,0.0,0.0,0.0
895.08124,527.8342,127240096,0.975,0.12765957,255.07077,-486.62024,0.0510782,-0.0028903186,0.097598076,0.0,0.0,0.0
902.0802,516.50903,127240113,0.9875,0.12765957,385.86884,-722.70654,0.0510782,-0.0028903186,0.097598076,0.0,0.0,0.0
908.13513,505.5183,127240130,0.975,0.11702127,473.21896,-844.5929,0.0510782,-0.0028903186,0.097598076,0.0,0.0,0.0
914.4338,494.32202,127240147,1.0,0.11702127,486.54715,-852.58527,0.0510782,-0.0028903186,0.097598076,0.0,0.0,0.0
921.4689,485.67554,127240163,1.0,0.11702127,422.76508,-652.9183,0.0510782,-0.0028903186,0.097598076,0.0,0.0,0.0
930.10455,477.31018,127240180,0.975,0.10638297,480.06647,-534.98,0.0510782,-0.0028903186,0.097598076,0.0,0.0,0.0
937.3702,472.3329,127240197,1.0125,0.12765957,517.33234,-363.5573,0.0510782,-0.0028903186,0.097598076,0.0,0.0,0.0
942.99194,470.3136,127240213,1.0125,0.12765957,439.9831,-126.23487,0.0510782,-0.0028903186,0.097598076,0.0,0.0,0.0
948.22186,469.0061,127240230,1.0125,0.12765957,329.4512,39.04078,0.0510782,-0.0028903186,0.097598076,0.0,0.0,0.0
952.6792,469.0061,127240247,1.0,0.12765957,202.21147,145.62398,0.0510782,-0.0028903186,0.097598076,0.0,0.0,0.0
956.9829,469.8131,127240264,1.0,0.11702127,186.22911,142.51614,0.0510782,-0.0028903186,0.097598076,0.0,0.0,0.0
959.67163,471.67712,127240280,1.0125,0.11702127,169.98534,158.48521,0.0510782,-0.0028903186,0.097598076,0.0,0.0,0.0
962.2638,475.40186,127240297,0.975,0.11702127,133.76863,227.9099,0.0510782,-0.0028903186,0.097598076,0.0,0.0,0.0
966.10754,482.2345,127240314,0.975,0.11702127,138.77795,359.98856,0.0510782,-0.0028903186,0.097598076,0.0,0.0,0.0
969.5521,490.59656,127240330,0.95,0.11702127,175.53851,535.13696,0.0510782,-0.0028903186,0.097598076,0.0,0.0,0.0
972.04114,497.8994,127240347,0.925,0.12765957,193.48508,612.01263,0.0510782,-0.0028903186,0.097598076,0.0,0.0,0.0
974.04395,507.47766,127240364,0.95,0.12765957,163.60318,641.4818,0.0510782,-0.0028903186,0.097598076,0.0,0.0,0.0
975.63586,518.63245,127240380,0.9375,0.11702127,80.78407,677.72437,0.0510782,-0.0028903186,0.097598076,0.0,0.0,0.0
978.7942,528.8956,127240397,0.95,0.11702127,83.82652,699.4934,0.0510782,-0.0028903186,0.097598076,0.0,0.0,0.0
982.45044,538.5144,127240414,0.9375,0.10638297,181.41684,688.4319,0.0510782,-0.0028903186,0.097598076,0.0,0.0,0.0
986.10144,543.7886,127240431,0.9375,0.10638297,251.85583,481.73456,-0.031137437,-0.002312258,-0.009921074,0.0,0.0,0.0
992.87,549.33704,127240447,0.95,0.12765957,343.05484,255.43289,-0.031137437,-0.002312258,-0.009921074,0.0,0.0,0.0
1001.6295,554.8816,127240464,0.9375,0.12765957,493.0268,188.06377,-0.031137437,-0.002312258,-0.009921074,0.0,0.0,0.0
1009.51404,558.6763,127240481,0.95,0.12765957,601.66516,172.88515,-0.031137437,-0.002312258,-0.009921074,0.0,0.0,0.0
1016.76953,560.553,127240497,0.9375,0.12765957,581.0983,136.71178,-0.031137437,-0.002312258,-0.009921074,0.0,0.0,0.0
1023.4907,561.4104,127240514,0.95,0.12765957,478.2777,46.72028,-0.031137437,-0.002312258,-0.009921074,0.0,0.0,0.0
1030.8591,561.4104,127240531,0.95,0.12765957,392.75388,-67.41954,-0.031137437,-0.002312258,-0.009921074,0.0,0.0,0.0
1041.0421,559.13477,127240548,0.96250004,0.12765957,470.24194,-150.52583,-0.031137437,-0.002312258,-0.009921074,0.0,0.0,0.0
1052.1909,552.974,127240564,0.96250004,0.10638297,626.5134,-303.1122,-0.031137437,-0.002312258,-0.009921074,0.0,0.0,0.0
1063.7803,542.2379,127240581,0.96250004,0.11702127,760.5867,-583.2234,-0.031137437,-0.002312258,-0.009921074,0.0,0.0,0.0
1072.6648,532.04175,127240598,0.975,0.11702127,740.10114,-831.64526,-0.031137437,-0.002312258,-0.009921074,0.0,0.0,0.0
1079.8776,522.3884,127240614,0.96250004,0.12765957,541.7533,-844.7127,-0.031137437,-0.002312258,-0.009921074,0.0,0.0,0.0
1086.7855,512.25586,127240631,0.96250004,0.12765957,360.6234,-710.28687,-0.031137437,-0.002312258,-0.009921074,0.0,0.0,0.0
1091.1019,504.0857,127240648,1.0,0.11702127,206.34943,-513.6646,-0.031137437,-0.002312258,-0.009921074,0.0,0.0,0.0
1095.872,492.77112,127240665,0.9875,0.11702127,186.67422,-573.08075,-0.031137437,-0.002312258,-0.009921074,0.0,0.0,0.0
1098.5706,485.26428,127240681,0.975,0.10638297,147.48445,-548.1379,-0.031137437,-0.002312258,-0.009921074,0.0,0.0,0.0
1099.12,481.4933,127240698,0.9875,0.10638297,36.09844,-361.1076,-0.031137437,-0.002312258,-0.009921074,0.0,0.0,0.0
1098.5939,479.62134,127240715,0.95,0.10638297,-79.57285,-98.79815,-0.031137437,-0.002312258,-0.009921074,0.0,0.0,0.0
1097.553,479.6681,127240731,0.5,0.10638297,-155.27597,110.97935,-0.031137437,-0.002312258,-0.009921074,0.0,0.0,0.0
1097.553,479.6681,127240739,0.5,0.10638297,-155.27597,110.97935,-0.031137437,-0.002312258,-0.009921074,0.0,0.0,0.0
