x,y,timestamp,pressure,fingerarea,velocityx,velocityy,accelx,accely,accelz,gyrox,gyroy,gyroz
314.37552,404.1454,71150591,0.725,0.12765957,0.0,0.0,-0.023532819,0.0014118999,-0.0024604797,0.0,0.0,0.0
314.37552,404.1454,71150618,0.75,0.12765957,0.01254297,0.017602842,-0.023532819,0.0014118999,-0.0024604797,0.0,0.0,0.0
314.37552,404.1454,71150636,0.77500004,0.10638297,-0.021462874,-0.026713988,-0.023532819,0.0014118999,-0.0024604797,0.0,0.0,0.0
314.37552,404.1454,71150653,0.8,0.09574468,0.015380854,0.019731738,-0.023532819,0.0014118999,-0.0024604797,0.0,0.0,0.0
291.58624,415.57544,71150670,0.825,0.09574468,-871.3767,431.58624,-0.023532819,0.0014118999,-0.0024604797,0.0,0.0,0.0
284.77435,422.02795,71150687,0.83750004,0.08510638,-998.47546,590.33484,-0.023532819,0.0014118999,-0.0024604797,0.0,0.0,0.0
279.5846,428.56458,71150703,0.825,0.10638297,-835.7541,635.2771,-0.023532819,0.0014118999,-0.0024604797,0.0,0.0,0.0
271.785,442.5365,71150720,0.825,0.12765957,-414.08478,735.5193,-0.023532819,0.0014118999,-0.0024604797,0.0,0.0,0.0
268.4049,451.78564,71150737,0.825,0.12765957,-137.08047,713.61237,-0.023532819,0.0014118999,-0.0024604797,0.0,0.0,0.0
265.9987,464.33972,71150753,0.85,0.11702127,-15.060377,745.3496,-0.023532819,0.0014118999,-0.0024604797,0.0,0.0,0.0
265.18152,477.32263,71150770,0.85,0.09574468,-41.028385,827.66626,-0.023532819,0.0014118999,-0.0024604797,0.0,0.0,0.0
265.1402,490.31567,71150787,0.83750004,0.11702127,93.51844,826.0847,-0.023532819,0.0014118999,-0.0024604797,0.0,0.0,0.0
265.68216,501.94373,71150804,0.85,0.12765957,103.773605,843.90985,-0.023532819,0.0014118999,-0.0024604797,0.0,0.0,0.0
268.35437,514.7623,71150820,0.83750004,0.10638297,161.18764,751.2652,-0.023532819,0.0014118999,-0.0024604797,0.0,0.0,0.0
272.21603,529.28723,71150837,0.83750004,0.08510638,243.68993,757.95074,-0.023532819,0.0014118999,-0.0024604797,0.0,0.0,0.0
277.8879,541.1532,71150854,0.83750004,0.09574468,359.60898,794.44586,-0.023532819,0.0014118999,-0.0024604797,0.0,0.0,0.0
285.91864,550.2882,71150870,0.825,0.10638297,480.1869,691.93317,-0.023532819,0.0014118999,-0.0024604797,0.0,0.0,0.0
298.96957,558.7976,71150887,0.83750004,0.12765957,726.429,497.40338,-0.023532819,0.0014118999,-0.0024604797,0.0,0.0,0.0
310.58606,564.4197,71150904,0.83750004,0.12765957,862.82477,301.6142,-0.023532819,0.0014118999,-0.0024604797,0.0,0.0,0.0
324.0092,567.9407,71150921,0.8625,0.10638297,955.92584,164.41031,-0.023532819,0.0014118999,-0.0024604797,0.0,0.0,0.0
341.79617,567.39,71150937,0.85,0.10638297,1058.1907,10.052472,-0.023532819,0.0014118999,-0.0024604797,0.0,0.0,0.0
354.96066,564.43176,71150954,0.85,0.12765957,1024.5525,-227.74165,-0.023532819,0.0014118999,-0.0024604797,0.0,0.0,0.0
367.08786,557.83264,71150971,0.8625,0.11702127,913.4438,-455.7306,-0.023532819,0.0014118999,-0.0024604797,0.0,0.0,0.0
379.75385,546.8541,71150987,0.875,0.10638297,710.6964,-724.60394,-0.023532819,0.0014118999,-0.0024604797,0.0,0.0,0.0
391.08075,534.4485,71151004,0.8875,0.10638297,625.5314,-916.627,-0.023532819,0.0014118999,-0.0024604797,0.0,0.0,0.0
399.54413,522.525,71151021,0.8875,0.12765957,538.4446,-959.279,-0.023532819,0.0014118999,-0.0024604797,0.0,0.0,0.0
407.76517,506.9757,71151038,0.8875,0.10638297,426.05722,-939.1342,-0.023532819,0.0014118999,-0.0024604797,0.0,0.0,0.0
414.2966,489.41235,71151054,0.9125,0.11702127,341.867,-1050.9783,-0.023532819,0.0014118999,-0.0024604797,0.0,0.0,0.0
417.70187,472.79126,71151071,0.90000004,0.12765957,213.04318,-1115.2545,-0.023532819,0.0014118999,-0.0024604797,0.0,0.0,0.0
418.82635,462.03284,71151088,0.9125,0.12765957,66.896484,-996.6567,-0.026826255,0.009129524,0.07803249,0.0,0.0,0.0
418.79156,448.8374,71151104,0.925,0.11702127,-89.533035,-744.5746,-0.026826255,0.009129524,0.07803249,0.0,0.0,0.0
417.19504,438.0133,71151121,0.9125,0.11702127,-204.84554,-580.6869,-0.026826255,0.009129524,0.07803249,0.0,0.0,0.0
412.76004,428.87524,71151138,0.925,0.12765957,-284.94437,-531.2578,-0.026826255,0.009129524,0.07803249,0.0,0.0,0.0
407.34802,421.62256,71151154,0.90000004,0.12765957,-385.3603,-448.86624,-0.026826255,0.009129524,0.07803249,0.0,0.0,0.0
397.6508,413.07178,71151171,0.90000004,0.12765957,-556.6332,-404.23428,-0.026826255,0.009129524,0.07803249,0.0,0.0,0.0
387.77426,406.46887,71151188,0.875,0.12765957,-719.5839,-352.25632,-0.026826255,0.009129524,0.07803249,0.0,0.0,0.0
379.13556,402.27112,71151205,0.90000004,0.12765957,-735.46014,-310.2865,-0.026826255,0.009129524,0.07803249,0.0,0.0,0.0
369.86288,398.5946,71151221,0.90000004,0.12765957,-655.6391,-194.88983,-0.026826255,0.009129524,0.07803249,0.0,0.0,0.0
361.17816,396.44153,71151238,0.9125,0.12765957,-536.2849,-69.50826,-0.026826255,0.009129524,0.07803249,0.0,0.0,0.0
353.2257,395.26025,71151255,0.875,0.12765957,-465.57288,-3.0717306,-0.026826255,0.009129524,0.07803249,0.0,0.0,0.0
346.39236,395.26025,71151271,0.90000004,0.12765957,-419.0922,45.260178,-0.026826255,0.009129524,0.07803249,0.0,0.0,0.0
341.47916,395.26025,71151288,0.90000004,0.12765957,-326.98364,73.11328,-0.026826255,0.009129524,0.07803249,0.0,0.0,0.0
337.766,397.09778,71151305,0.875,0.12765957,-200.07222,118.42165,-0.026826255,0.009129524,0.07803249,0.0,0.0,0.0
335.74432,398.92468,71151322,0.90000004,0.12765957,-91.85048,152.18008,-0.026826255,0.009129524,0.07803249,0.0,0.0,0.0
333.6646,402.73193,71151338,0.8875,0.12765957,-35.945717,220.37915,-0.026826255,0.009129524,0.07803249,0.0,0.0,0.0
335.22864,408.6588,71151355,0.8875,0.10638297,55.51109,332.12567,-0.026826255,0.009129524,0.07803249,0.0,0.0,0.0
340.22638,414.64075,71151372,0.8875,0.10638297,226.662,411.35922,-0.026826255,0.009129524,0.07803249,0.0,0.0,0.0
349.75208,421.68152,71151388,0.875,0.10638297,518.9882,487.67038,-0.026826255,0.009129524,0.07803249,0.0,0.0,0.0
360.9829,426.82397,71151405,0.8875,0.11702127,849.5944,477.2989,-0.026826255,0.009129524,0.07803249,0.0,0.0,0.0
374.22708,428.1349,71151422,0.8875,0.10638297,978.585,265.0041,-0.026826255,0.009129524,0.07803249,0.0,0.0,0.0
392.3024,425.43604,71151439,0.90000004,0.10638297,1110.3494,-70.24548,-0.026826255,0.009129524,0.07803249,0.0,0.0,0.0
408.1192,419.49146,71151455,0.8875,0.10638297,1149.5607,-432.9475,-0.026826255,0.009129524,0.07803249,0.0,0.0,0.0
423.11102,410.5005,71151472,0.875,0.12765957,1074.8782,-675.9488,-0.026826255,0.009129524,0.07803249,0.0,0.0,0.0
438.65994,400.1526,71151489,0.875,0.12765957,993.19666,-804.65704,-0.026826255,0.009129524,0.07803249,0.0,0.0,0.0
452.92798,388.06555,71151505,0.90000004,0.10638297,866.2092,-869.25507,-0.026826255,0.009129524,0.07803249,0.0,0.0,0.0
463.82196,373.23242,71151522,0.90000004,0.12765957,739.5092,-947.38403,-0.026826255,0.009129524,0.07803249,0.0,0.0,0.0
472.56635,359.45447,71151539,0.8875,0.12765957,575.1904,-982.9332,-0.026826255,0.009129524,0.07803249,0.0,0.0,0.0
480.90417,344.46826,71151556,0.9125,0.10638297,398.43158,-978.78564,-0.026826255,0.009129524,0.07803249,0.0,0.0,0.0
493.94232,316.094,71151572,0.9125,0.12765957,471.9036,-1325.3455,-0.026826255,0.009129524,0.07803249,0.0,0.0,0.0
500.05103,301.7046,71151589,0.90000004,0.12765957,499.07117,-1379.5908,-0.026826255,0.009129524,0.07803249,0.0,0.0,0.0
508.04047,283.36108,71151606,0.90000004,0.10638297,481.98175,-1259.0905,-0.026826255,0.009129524,0.07803249,0.0,0.0,0.0
514.4369,262.1991,71151622,0.90000004,0.12765957,387.93436,-1161.3074,0.0025389958,-0.048696384,-0.06557369,0.0,0.0,0.0
517.46124,245.80103,71151639,0.8875,0.12765957,203.80505,-1030.1483,0.0025389958,-0.048696384,-0.06557369,0.0,0.0,0.0
518.17285,229.51318,71151656,0.8875,0.10638297,55.169777,-1042.7379,0.0025389958,-0.048696384,-0.06557369,0.0,0.0,0.0
517.51385,212.9751,71151672,0.90000004,0.10638297,-129.82503,-923.53955,0.0025389958,-0.048696384,-0.06557369,0.0,0.0,0.0
514.9749,198.69568,71151689,0.9125,0.12765957,-266.34534,-819.26013,0.0025389958,-0.048696384,-0.06557369,0.0,0.0,0.0
512.33575,189.20056,71151706,0.925,0.12765957,-283.43954,-695.5483,0.0025389958,-0.048696384,-0.06557369,0.0,0.0,0.0
509.20886,181.7749,71151723,0.925,0.12765957,-273.57993,-453.4229,0.0025389958,-0.048696384,-0.06557369,0.0,0.0,0.0
505.43988,178.20007,71151739,0.9125,0.10638297,-264.44287,-151.9165,0.0025389958,-0.048696384,-0.06557369,0.0,0.0,0.0
501.96375,175.59229,71151756,0.90000004,0.10638297,-252.98404,16.21557,0.0025389958,-0.048696384,-0.06557369,0.0,0.0,0.0
498.5492,174.12671,71151773,0.90000004,0.12765957,-241.81435,76.68499,0.0025389958,-0.048696384,-0.06557369,0.0,0.0,0.0
492.07837,174.35144,71151789,0.875,0.12765957,-308.90512,99.192444,0.0025389958,-0.048696384,-0.06557369,0.0,0.0,0.0
488.12396,176.64941,71151806,0.8625,0.12765957,-328.26016,156.59506,0.0025389958,-0.048696384,-0.06557369,0.0,0.0,0.0
483.70074,182.23218,71151823,0.8625,0.12765957,-299.26648,304.08896,0.0025389958,-0.048696384,-0.06557369,0.0,0.0,0.0
478.1186,195.18225,71151840,0.875,0.11702127,-308.79495,647.75433,0.0025389958,-0.048696384,-0.06557369,0.0,0.0,0.0
475.48358,209.94641,71151856,0.8875,0.11702127,-233.9853,1030.5774,0.0025389958,-0.048696384,-0.06557369,0.0,0.0,0.0
473.9336,225.07642,71151873,0.875,0.12765957,-139.75441,1211.5598,0.0025389958,-0.048696384,-0.06557369,0.0,0.0,0.0
472.8863,239.77405,71151890,0.8625,0.12765957,-25.211552,1175.3505,0.0025389958,-0.048696384,-0.06557369,0.0,0.0,0.0
472.8239,256.21033,71151906,0.8875,0.11702127,64.29047,1018.8025,0.0025389958,-0.048696384,-0.06557369,0.0,0.0,0.0
472.30585,273.8275,71151923,0.8875,0.12765957,52.234657,1037.2898,0.0025389958,-0.048696384,-0.06557369,0.0,0.0,0.0
471.76007,287.66187,71151940,0.875,0.12765957,10.793982,1000.0547,0.0025389958,-0.048696384,-0.06557369,0.0,0.0,0.0
473.03113,304.51367,71151957,0.8875,0.11702127,28.97202,976.37756,0.0025389958,-0.048696384,-0.06557369,0.0,0.0,0.0
474.66382,326.92188,71151973,0.875,0.12765957,80.38933,1101.6526,0.0025389958,-0.048696384,-0.06557369,0.0,0.0,0.0
476.2998,341.78674,71151990,0.8875,0.12765957,130.77386,1109.495,0.0025389958,-0.048696384,-0.06557369,0.0,0.0,0.0
477.32245,360.85767,71152007,0.8875,0.11702127,150.506,1153.2721,0.0025389958,-0.048696384,-0.06557369,0.0,0.0,0.0
477.82233,382.05945,71152023,0.90000004,0.11702127,76.96335,1241.9928,0.0025389958,-0.048696384,-0.06557369,0.0,0.0,0.0
479.11914,398.766,71152040,0.90000004,0.12765957,33.217297,1173.3276,0.0025389958,-0.048696384,-0.06557369,0.0,0.0,0.0
480.49615,420.22424,71152057,0.8875,0.11702127,46.114197,1209.8718,0.0025389958,-0.048696384,-0.06557369,0.0,0.0,0.0
481.70154,439.55127,71152073,0.8875,0.12765957,77.86574,1188.1869,0.0025389958,-0.048696384,-0.06557369,0.0,0.0,0.0
483.16632,454.58203,71152090,0.875,0.12765957,98.45943,1031.9625,0.0025389958,-0.048696384,-0.06557369,0.0,0.0,0.0
486.19696,471.9065,71152107,0.875,0.11702127,130.38762,967.88135,0.0025389958,-0.048696384,-0.06557369,0.0,0.0,0.0
489.82404,488.573,71152124,0.8625,0.12765957,205.23512,916.58704,0.0025389958,-0.048696384,-0.06557369,0.0,0.0,0.0
494.00488,502.46497,71152140,0.875,0.12765957,279.2262,843.67505,0.0025389958,-0.048696384,-0.06557369,0.0,0.0,0.0
498.7603,515.4264,71152157,0.85,0.09574468,326.21768,799.32294,0.002031196,-0.006957099,0.0755415,0.0,0.0,0.0
503.0158,522.6747,71152174,0.85,0.08510638,311.56857,541.1199,0.002031196,-0.006957099,0.0755415,0.0,0.0,0.0
509.9629,531.7738,71152190,0.825,0.08510638,360.78363,364.78534,0.002031196,-0.006957099,0.0755415,0.0,0.0,0.0
518.0179,537.2483,71152207,0.825,0.08510638,469.097,282.47476,0.002031196,-0.006957099,0.0755415,0.0,0.0,0.0
525.00653,540.5178,71152224,0.83750004,0.09574468,531.76733,182.05223,0.002031196,-0.006957099,0.0755415,0.0,0.0,0.0
532.6133,539.9492,71152241,0.825,0.09574468,516.7463,3.8072383,0.002031196,-0.006957099,0.0755415,0.0,0.0,0.0
540.8098,535.1925,71152257,0.8625,0.10638297,476.0444,-317.50928,0.002031196,-0.006957099,0.0755415,0.0,0.0,0.0
548.2709,527.8031,71152274,0.8625,0.12765957,467.08685,-570.0627,0.002031196,-0.006957099,0.0755415,0.0,0.0,0.0
555.27954,519.49805,71152291,0.90000004,0.12765957,459.71423,-716.43616,0.002031196,-0.006957099,0.0755415,0.0,0.0,0.0
562.8155,508.76245,71152307,0.9125,0.12765957,416.6452,-762.9442,0.002031196,-0.006957099,0.0755415,0.0,0.0,0.0
570.762,495.7146,71152324,0.90000004,0.10638297,438.0714,-837.622,0.002031196,-0.006957099,0.0755415,0.0,0.0,0.0
582.3364,472.26575,71152341,0.90000004,0.12765957,566.48175,-1160.2836,0.002031196,-0.006957099,0.0755415,0.0,0.0,0.0
588.28973,461.89197,71152358,0.90000004,0.12765957,568.8373,-1201.5306,0.002031196,-0.006957099,0.0755415,0.0,0.0,0.0
600.0045,444.12842,71152374,0.9375,0.10638297,622.5488,-1171.1294,0.002031196,-0.006957099,0.0755415,0.0,0.0,0.0
612.48016,427.7129,71152391,0.9375,0.12765957,711.73285,-1061.896,0.002031196,-0.006957099,0.0755415,0.0,0.0,0.0
623.25385,414.1228,71152408,0.925,0.12765957,754.9783,-896.9705,0.002031196,-0.006957099,0.0755415,0.0,0.0,0.0
634.1244,404.7202,71152424,0.8875,0.12765957,740.492,-682.72437,0.002031196,-0.006957099,0.0755415,0.0,0.0,0.0
642.9506,398.24878,71152441,0.90000004,0.12765957,586.2677,-369.33725,0.002031196,-0.006957099,0.0755415,0.0,0.0,0.0
651.2715,393.25867,71152458,0.9125,0.12765957,465.9276,-149.0876,0.002031196,-0.006957099,0.0755415,0.0,0.0,0.0
657.79047,391.10596,71152475,0.9125,0.12765957,382.89172,-18.982859,0.002031196,-0.006957099,0.0755415,0.0,0.0,0.0
663.2638,389.92932,71152491,0.90000004,0.12765957,289.82465,57.15735,0.002031196,-0.006957099,0.0755415,0.0,0.0,0.0
667.5144,389.92932,71152508,0.90000004,0.12765957,216.05794,108.88107,0.002031196,-0.006957099,0.0755415,0.0,0.0,0.0
673.13184,389.92932,71152525,0.9125,0.12765957,203.28377,115.34352,0.002031196,-0.006957099,0.0755415,0.0,0.0,0.0
678.3767,391.7417,71152541,0.8875,0.12765957,254.97879,128.85138,0.002031196,-0.006957099,0.0755415,0.0,0.0,0.0
683.5517,393.58862,71152558,0.90000004,0.12765957,308.36282,151.41428,0.002031196,-0.006957099,0.0755415,0.0,0.0,0.0
687.63855,395.43103,71152575,0.875,0.12765957,299.89902,164.29245,0.002031196,-0.006957099,0.0755415,0.0,0.0,0.0
690.6616,396.39087,71152592,0.875,0.12765957,223.86641,129.83495,0.002031196,-0.006957099,0.0755415,0.0,0.0,0.0
692.4272,396.1488,71152608,0.875,0.12765957,116.14309,46.808834,0.002031196,-0.006957099,0.0755415,0.0,0.0,0.0
693.46936,396.1488,71152625,0.8625,0.12765957,30.19577,-26.20321,0.002031196,-0.006957099,0.0755415,0.0,0.0,0.0
693.752,396.1488,71152642,0.8875,0.12765957,-27.078981,-45.8872,0.002031196,-0.006957099,0.0755415,0.0,0.0,0.0
693.36804,396.1488,71152692,0.875,0.12765957,-63.97573,0.0030802384,0.017624956,-0.02156569,0.04443264,0.0,0.0,0.0
691.5255,396.1488,71152708,0.90000004,0.12765957,-167.75847,0.053122915,0.017624956,-0.02156569,0.04443264,0.0,0.0,0.0
686.9193,396.97864,71152725,0.90000004,0.12765957,-355.8691,60.567066,0.017624956,-0.02156569,0.04443264,0.0,0.0,0.0
677.18915,397.92578,71152742,0.875,0.12765957,-651.88245,88.86531,0.017624956,-0.02156569,0.04443264,0.0,0.0,0.0
663.6871,399.78784,71152759,0.875,0.12765957,-919.60626,118.56546,0.017624956,-0.02156569,0.04443264,0.0,0.0,0.0
651.81555,403.56384,71152775,0.875,0.12765957,-991.13354,197.7146,0.017624956,-0.02156569,0.04443264,0.0,0.0,0.0
638.6684,410.35193,71152792,0.8875,0.12765957,-987.65094,341.20633,0.017624956,-0.02156569,0.04443264,0.0,0.0,0.0
619.3645,421.03296,71152809,0.8875,0.10638297,-1051.5273,579.50977,0.017624956,-0.02156569,0.04443264,0.0,0.0,0.0
606.1969,431.7633,71152825,0.90000004,0.11702127,-1038.3212,785.9188,0.017624956,-0.02156569,0.04443264,0.0,0.0,0.0
598.2823,439.6864,71152842,0.8875,0.12765957,-818.32043,759.67303,0.017624956,-0.02156569,0.04443264,0.0,0.0,0.0
592.35803,447.04517,71152859,0.9125,0.12765957,-397.8719,559.7987,0.017624956,-0.02156569,0.04443264,0.0,0.0,0.0
585.3341,462.08337,71152876,0.9125,0.12765957,-121.98708,582.285,0.017624956,-0.02156569,0.04443264,0.0,0.0,0.0
581.25824,476.55444,71152892,0.90000004,0.11702127,-101.65637,823.7465,0.017624956,-0.02156569,0.04443264,0.0,0.0,0.0
579.7891,490.82495,71152909,0.90000004,0.12765957,-100.49259,1031.5763,0.017624956,-0.02156569,0.04443264,0.0,0.0,0.0
580.7408,501.45374,71152926,0.90000004,0.12765957,41.13498,971.60925,0.017624956,-0.02156569,0.04443264,0.0,0.0,0.0
584.2523,511.55994,71152942,0.8875,0.12765957,265.1875,670.02344,0.017624956,-0.02156569,0.04443264,0.0,0.0,0.0
588.4082,522.6411,71152959,0.8875,0.11702127,394.87994,514.4974,0.017624956,-0.02156569,0.04443264,0.0,0.0,0.0
593.5717,530.6953,71152976,0.875,0.10638297,430.35513,483.98196,0.017624956,-0.02156569,0.04443264,0.0,0.0,0.0
601.18207,538.22034,71152993,0.8875,0.10638297,476.0379,435.9078,0.017624956,-0.02156569,0.04443264,0.0,0.0,0.0
611.8505,545.03674,71153009,0.875,0.10638297,606.0631,383.30722,0.017624956,-0.02156569,0.04443264,0.0,0.0,0.0
622.96063,547.19434,71153026,0.8625,0.10638297,747.96844,201.79951,0.017624956,-0.02156569,0.04443264,0.0,0.0,0.0
632.34607,546.7849,71153043,0.85,0.11702127,769.9532,-22.044744,0.017624956,-0.02156569,0.04443264,0.0,0.0,0.0
641.2147,543.0802,71153059,0.85,0.11702127,644.4049,-262.9443,0.017624956,-0.02156569,0.04443264,0.0,0.0,0.0
650.7682,535.64185,71153076,0.8875,0.10638297,518.7694,-527.89264,0.017624956,-0.02156569,0.04443264,0.0,0.0,0.0
661.6739,525.949,71153093,0.8625,0.12765957,538.8826,-702.56696,0.017624956,-0.02156569,0.04443264,0.0,0.0,0.0
671.247,515.4441,71153109,0.8625,0.12765957,617.4664,-816.85095,0.017624956,-0.02156569,0.04443264,0.0,0.0,0.0
679.6412,503.7262,71153126,0.875,0.10638297,587.1493,-839.7794,0.017624956,-0.02156569,0.04443264,0.0,0.0,0.0
689.4026,483.9414,71153143,0.875,0.11702127,527.7336,-981.04065,0.017624956,-0.02156569,0.04443264,0.0,0.0,0.0
694.82544,467.88818,71153160,0.875,0.12765957,426.30234,-1200.6918,0.017624956,-0.02156569,0.04443264,0.0,0.0,0.0
696.8134,455.7904,71153176,0.8875,0.12765957,219.15395,-1094.4089,0.017624956,-0.02156569,0.04443264,0.0,0.0,0.0
697.852,441.79944,71153193,0.90000004,0.11702127,13.580278,-902.51904,0.017624956,-0.02156569,0.04443264,0.0,0.0,0.0
698.25055,429.67102,71153210,0.8875,0.12765957,-136.96474,-684.8495,0.014099965,0.038747445,0.019546509,0.0,0.0,0.0
698.25055,418.65454,71153226,0.8875,0.12765957,-163.9146,-590.6827,0.014099965,0.038747445,0.019546509,0.0,0.0,0.0
698.25055,410.9801,71153243,0.875,0.12765957,-81.36576,-554.56506,0.014099965,0.038747445,0.019546509,0.0,0.0,0.0
697.49457,406.78882,71153260,0.875,0.12765957,-46.95626,-267.65363,0.014099965,0.038747445,0.019546509,0.0,0.0,0.0
696.4657,404.5266,71153277,0.8875,0.12765957,-71.27672,-30.19922,0.014099965,0.038747445,0.019546509,0.0,0.0,0.0
695.75134,402.786,71153293,0.90000004,0.12765957,-77.489265,80.42282,0.014099965,0.038747445,0.019546509,0.0,0.0,0.0
695.0016,402.3683,71153310,0.8875,0.12765957,-69.44169,89.43387,0.014099965,0.038747445,0.019546509,0.0,0.0,0.0
695.2515,402.3683,71153327,0.875,0.12765957,-20.708406,78.89283,0.014099965,0.038747445,0.019546509,0.0,0.0,0.0
695.75757,407.73242,71153360,0.8875,0.12765957,36.564453,202.03014,0.014099965,0.038747445,0.019546509,0.0,0.0,0.0
696.2512,420.68213,71153377,0.8875,0.11702127,49.856792,573.1978,0.014099965,0.038747445,0.019546509,0.0,0.0,0.0
696.2512,436.54504,71153394,0.875,0.12765957,31.992722,1020.749,0.014099965,0.038747445,0.019546509,0.0,0.0,0.0
695.63226,451.1527,71153410,0.8875,0.12765957,-12.1867285,1253.2485,0.014099965,0.038747445,0.019546509,0.0,0.0,0.0
695.2515,469.95093,71153427,0.8875,0.11702127,-57.52924,1210.0066,0.014099965,0.038747445,0.019546509,0.0,0.0,0.0
695.2515,487.19568,71153444,0.8875,0.11702127,-44.68605,1246.6799,0.014099965,0.038747445,0.019546509,0.0,0.0,0.0
695.4915,501.77515,71153460,0.875,0.12765957,-2.1827624,1058.9485,0.014099965,0.038747445,0.019546509,0.0,0.0,0.0
696.51953,513.2157,71153477,0.8875,0.12765957,51.048523,813.41144,0.014099965,0.038747445,0.019546509,0.0,0.0,0.0
698.3527,526.41516,71153494,0.875,0.11702127,106.903015,630.10657,0.014099965,0.038747445,0.019546509,0.0,0.0,0.0
701.24194,537.98157,71153510,0.8875,0.11702127,168.2368,558.8238,0.014099965,0.038747445,0.019546509,0.0,0.0,0.0
705.63745,549.44617,71153527,0.875,0.12765957,253.7579,620.94275,0.014099965,0.038747445,0.019546509,0.0,0.0,0.0
709.5477,554.92554,71153544,0.875,0.12765957,314.57288,529.2429,0.014099965,0.038747445,0.019546509,0.0,0.0,0.0
717.6037,562.1741,71153561,0.8875,0.12765957,415.79077,329.43375,0.014099965,0.038747445,0.019546509,0.0,0.0,0.0
727.3753,570.4015,71153577,0.8625,0.12765957,585.47534,312.7611,0.014099965,0.038747445,0.019546509,0.0,0.0,0.0
738.41986,576.8457,71153594,0.85,0.11702127,728.29175,341.3715,0.014099965,0.038747445,0.019546509,0.0,0.0,0.0
748.68396,578.292,71153611,0.8625,0.11702127,784.7828,258.55182,0.014099965,0.038747445,0.019546509,0.0,0.0,0.0
761.231,575.92236,71153627,0.85,0.12765957,787.3983,-13.942124,0.014099965,0.038747445,0.019546509,0.0,0.0,0.0
776.31934,567.4313,71153644,0.8625,0.12765957,855.3399,-468.76077,0.014099965,0.038747445,0.019546509,0.0,0.0,0.0
791.59845,552.1449,71153661,0.8625,0.11702127,966.6361,-929.1563,0.014099965,0.038747445,0.019546509,0.0,0.0,0.0
802.7031,533.4487,71153678,0.8625,0.12765957,921.11584,-1336.1656,0.014099965,0.038747445,0.019546509,0.0,0.0,0.0
817.0722,505.15125,71153694,0.875,0.12765957,773.19324,-1675.5095,0.014099965,0.038747445,0.019546509,0.0,0.0,0.0
831.2368,476.95007,71153711,0.8625,0.12765957,787.75793,-2097.8577,0.014099965,0.038747445,0.019546509,0.0,0.0,0.0
846.2772,445.93616,71153728,0.8625,0.12765957,853.44336,-2135.1592,0.014099965,0.038747445,0.019546509,0.0,0.0,0.0
856.56555,414.55396,71153744,0.8625,0.12765957,826.24005,-2115.0713,-0.020720027,0.014997974,0.015637398,0.0,0.0,0.0
863.07227,381.0857,71153761,0.875,0.12765957,571.4762,-2066.6216,-0.020720027,0.014997974,0.015637398,0.0,0.0,0.0
866.22034,352.3296,71153778,0.8625,0.12765957,163.3506,-1958.8416,-0.020720027,0.014997974,0.015637398,0.0,0.0,0.0
867.744,317.20532,71153794,0.875,0.12765957,-44.250694,-2058.1335,-0.020720027,0.014997974,0.015637398,0.0,0.0,0.0
868.2879,290.61182,71153811,0.8625,0.12765957,-185.16336,-1797.5315,-0.020720027,0.014997974,0.015637398,0.0,0.0,0.0
868.19525,259.01062,71153828,0.90000004,0.12765957,-149.11568,-1765.2092,-0.020720027,0.014997974,0.015637398,0.0,0.0,0.0
865.3856,241.35852,71153845,0.8875,0.12765957,-170.9312,-1412.4977,-0.020720027,0.014997974,0.015637398,0.0,0.0,0.0
860.49384,222.79138,71153861,0.8875,0.12765957,-278.96625,-1066.3579,-0.020720027,0.014997974,0.015637398,0.0,0.0,0.0
854.7897,207.94617,71153878,0.875,0.12765957,-429.74667,-742.04114,-0.020720027,0.014997974,0.015637398,0.0,0.0,0.0
849.6872,200.6615,71153895,0.875,0.12765957,-453.12332,-364.06485,-0.020720027,0.014997974,0.015637398,0.0,0.0,0.0
842.98914,195.22021,71153911,0.8625,0.12765957,-430.92584,-152.35953,-0.020720027,0.014997974,0.015637398,0.0,0.0,0.0
836.2217,192.094,71153928,0.8625,0.12765957,-414.81363,65.0097,-0.020720027,0.014997974,0.015637398,0.0,0.0,0.0
830.03,192.47278,71153945,0.85,0.12765957,-412.6406,166.11603,-0.020720027,0.014997974,0.015637398,0.0,0.0,0.0
824.8741,195.20056,71153962,0.825,0.12765957,-399.73807,245.31783,-0.020720027,0.014997974,0.015637398,0.0,0.0,0.0
816.7526,209.49084,71153978,0.83750004,0.11702127,-376.42178,620.22363,-0.020720027,0.014997974,0.015637398,0.0,0.0,0.0
812.0617,226.16309,71153995,0.83750004,0.12765957,-366.62076,1129.8163,-0.020720027,0.014997974,0.015637398,0.0,0.0,0.0
808.3989,245.89832,71154012,0.8625,0.12765957,-284.53406,1461.988,-0.020720027,0.014997974,0.015637398,0.0,0.0,0.0
806.9971,270.02905,71154028,0.83750004,0.11702127,-132.56381,1682.1162,-0.020720027,0.014997974,0.015637398,0.0,0.0,0.0
806.7152,289.06384,71154045,0.85,0.12765957,18.733875,1583.3352,-0.020720027,0.014997974,0.015637398,0.0,0.0,0.0
806.2154,316.1366,71154062,0.8625,0.11702127,98.60351,1556.515,-0.020720027,0.014997974,0.015637398,0.0,0.0,0.0
805.7156,340.7201,71154079,0.8625,0.12765957,53.348995,1605.4679,-0.020720027,0.014997974,0.015637398,0.0,0.0,0.0
805.7156,366.88098,71154095,0.85,0.11702127,24.597906,1580.9883,-0.020720027,0.014997974,0.015637398,0.0,0.0,0.0
805.40985,391.80908,71154112,0.85,0.12765957,7.046492,1646.8104,-0.020720027,0.014997974,0.015637398,0.0,0.0,0.0
805.2157,415.55933,71154129,0.85,0.12765957,-7.7593565,1421.3512,-0.020720027,0.014997974,0.015637398,0.0,0.0,0.0
805.2157,439.9381,71154146,0.85,0.12765957,-6.227103,1387.1603,-0.020720027,0.014997974,0.015637398,0.0,0.0,0.0
805.2157,458.974,71154162,0.8625,0.12765957,0.5253189,1260.0286,-0.020720027,0.014997974,0.015637398,0.0,0.0,0.0
805.7155,479.6671,71154179,0.8625,0.11702127,14.827836,1152.5393,-0.020720027,0.014997974,0.015637398,0.0,0.0,0.0
806.75464,495.3335,71154196,0.8625,0.12765957,54.921036,1031.7765,-0.020720027,0.014997974,0.015637398,0.0,0.0,0.0
807.2151,504.22827,71154212,0.875,0.12765957,64.16254,650.5227,-0.020720027,0.014997974,0.015637398,0.0,0.0,0.0
807.844,512.57214,71154229,0.85,0.12765957,55.295567,376.66312,-0.020720027,0.014997974,0.015637398,0.0,0.0,0.0
808.2147,518.02295,71154246,0.85,0.12765957,37.53412,128.20718,-0.020720027,0.014997974,0.015637398,0.0,0.0,0.0
808.90094,522.0902,71154263,0.875,0.11702127,24.641638,38.263363,-0.020720027,0.014997974,0.015637398,0.0,0.0,0.0
809.2144,524.5145,71154279,0.85,0.11702127,27.948132,74.65187,-5.76023E-4,-0.012001619,0.0125103,0.0,0.0,0.0
809.2144,526.2389,71154296,0.875,0.11702127,10.3408785,22.011185,-5.76023E-4,-0.012001619,0.0125103,0.0,0.0,0.0
809.2144,526.7588,71154313,0.8625,0.11702127,-12.746142,-28.37063,-5.76023E-4,-0.012001619,0.0125103,0.0,0.0,0.0
809.2144,526.7588,71154329,0.8625,0.11702127,-14.803225,-70.90574,-5.76023E-4,-0.012001619,0.0125103,0.0,0.0,0.0
809.2144,526.7588,71154346,0.8625,0.11702127,-8.955865,-67.63636,-5.76023E-4,-0.012001619,0.0125103,0.0,0.0,0.0
809.63324,525.12585,71154363,0.8625,0.12765957,7.2437396,-85.95821,-5.76023E-4,-0.012001619,0.0125103,0.0,0.0,0.0
811.65796,520.68774,71154380,0.85,0.12765957,66.315346,-192.73515,-5.76023E-4,-0.012001619,0.0125103,0.0,0.0,0.0
819.9739,503.11255,71154396,0.8625,0.10638297,307.51312,-671.6751,-5.76023E-4,-0.012001619,0.0125103,0.0,0.0,0.0
827.69196,484.53735,71154413,0.85,0.12765957,559.3703,-1236.543,-5.76023E-4,-0.012001619,0.0125103,0.0,0.0,0.0
833.298,470.20032,71154430,0.875,0.12765957,614.92566,-1440.4315,-5.76023E-4,-0.012001619,0.0125103,0.0,0.0,0.0
837.8456,462.53687,71154446,0.8625,0.12765957,466.1932,-1068.5813,-5.76023E-4,-0.012001619,0.0125103,0.0,0.0,0.0
846.3236,449.88367,71154463,0.875,0.11702127,381.34286,-670.95325,-5.76023E-4,-0.012001619,0.0125103,0.0,0.0,0.0
852.4688,441.06494,71154480,0.8875,0.11702127,362.51978,-408.31506,-5.76023E-4,-0.012001619,0.0125103,0.0,0.0,0.0
859.1315,432.3744,71154497,0.8875,0.12765957,444.77637,-469.22464,-5.76023E-4,-0.012001619,0.0125103,0.0,0.0,0.0
865.49286,427.95923,71154513,0.8625,0.12765957,416.72052,-378.38907,-5.76023E-4,-0.012001619,0.0125103,0.0,0.0,0.0
869.4242,426.03394,71154530,0.8875,0.12765957,269.30963,-69.01998,-5.76023E-4,-0.012001619,0.0125103,0.0,0.0,0.0
874.0708,426.0813,71154547,0.8875,0.12765957,212.77812,115.703835,-5.76023E-4,-0.012001619,0.0125103,0.0,0.0,0.0
876.6439,427.80994,71154563,0.8875,0.12765957,156.3152,214.68059,-5.76023E-4,-0.012001619,0.0125103,0.0,0.0,0.0
880.0581,431.45215,71154580,0.8875,0.12765957,126.94509,284.9837,-5.76023E-4,-0.012001619,0.0125103,0.0,0.0,0.0
885.6845,442.3402,71154597,0.8625,0.12765957,205.0594,511.45517,-5.76023E-4,-0.012001619,0.0125103,0.0,0.0,0.0
889.8769,451.7389,71154614,0.8875,0.12765957,291.93906,744.2119,-5.76023E-4,-0.012001619,0.0125103,0.0,0.0,0.0
893.57605,465.05786,71154630,0.875,0.12765957,296.47424,908.499,-5.76023E-4,-0.012001619,0.0125103,0.0,0.0,0.0
897.09485,479.82947,71154647,0.8875,0.12765957,250.53053,1022.01276,-5.76023E-4,-0.012001619,0.0125103,0.0,0.0,0.0
899.62006,495.19983,71154664,0.8625,0.12765957,164.85379,1039.6963,-5.76023E-4,-0.012001619,0.0125103,0.0,0.0,0.0
902.3316,503.79834,71154680,0.875,0.12765957,120.900345,872.7542,-5.76023E-4,-0.012001619,0.0125103,0.0,0.0,0.0
906.46326,514.38477,71154697,0.8625,0.12765957,165.2341,621.2208,-5.76023E-4,-0.012001619,0.0125103,0.0,0.0,0.0
910.8765,524.97107,71154714,0.8625,0.11702127,242.34492,509.56625,-5.76023E-4,-0.012001619,0.0125103,0.0,0.0,0.0
913.8567,531.51465,71154730,0.875,0.11702127,272.58093,437.5177,-5.76023E-4,-0.012001619,0.0125103,0.0,0.0,0.0
916.9344,536.9855,71154747,0.8625,0.11702127,223.13562,333.08316,-5.76023E-4,-0.012001619,0.0125103,0.0,0.0,0.0
919.8597,541.4386,71154764,0.8625,0.12765957,148.59209,170.25772,-5.76023E-4,-0.012001619,0.0125103,0.0,0.0,0.0
924.75653,545.11865,71154781,0.875,0.12765957,182.94092,94.04249,-5.76023E-4,-0.012001619,0.0125103,0.0,0.0,0.0
932.08185,548.9243,71154797,0.875,0.12765957,342.55496,124.810745,-5.76023E-4,-0.012001619,0.0125103,0.0,0.0,0.0
940.8978,549.85986,71154814,0.875,0.12765957,535.24054,105.87527,0.0155391805,-0.009601295,-0.02199173,0.0,0.0,0.0
948.68524,549.85986,71154831,0.875,0.12765957,616.89954,-5.613792,0.0155391805,-0.009601295,-0.02199173,0.0,0.0,0.0
956.40576,546.86597,71154847,0.8625,0.11702127,579.78534,-161.76273,0.0155391805,-0.009601295,-0.02199173,0.0,0.0,0.0
963.8097,541.7339,71154864,0.8875,0.11702127,499.34012,-330.22333,0.0155391805,-0.009601295,-0.02199173,0.0,0.0,0.0
968.678,535.9772,71154881,0.875,0.12765957,362.36777,-455.3365,0.0155391805,-0.009601295,-0.02199173,0.0,0.0,0.0
973.8772,527.6952,71154898,0.875,0.12765957,264.99878,-561.06494,0.0155391805,-0.009601295,-0.02199173,0.0,0.0,0.0
977.5093,520.8065,71154914,0.8875,0.12765957,203.33147,-578.75836,0.0155391805,-0.009601295,-0.02199173,0.0,0.0,0.0
980.9546,512.9547,71154931,0.90000004,0.12765957,142.8988,-511.14493,0.0155391805,-0.009601295,-0.02199173,0.0,0.0,0.0
983.5237,503.72107,71154948,0.90000004,0.12765957,135.33429,-541.96344,0.0155391805,-0.009601295,-0.02199173,0.0,0.0,0.0
984.5647,497.0437,71154964,0.8875,0.12765957,63.747215,-504.96835,0.0155391805,-0.009601295,-0.02199173,0.0,0.0,0.0
984.65735,493.19836,71154981,0.8875,0.12765957,-11.330663,-374.7067,0.0155391805,-0.009601295,-0.02199173,0.0,0.0,0.0
984.65735,491.25208,71154998,0.90000004,0.12765957,-63.939434,-149.45645,0.0155391805,-0.009601295,-0.02199173,0.0,0.0,0.0
984.65735,489.44385,71155015,0.875,0.12765957,-80.51981,41.099915,0.0155391805,-0.009601295,-0.02199173,0.0,0.0,0.0
984.65735,487.55518,71155031,0.825,0.10638297,-36.020233,23.65582,0.0155391805,-0.009601295,-0.02199173,0.0,0.0,0.0
985.266,486.77612,71155048,0.675,0.08510638,1.783685,-9.406615,0.0155391805,-0.009601295,-0.02199173,0.0,0.0,0.0
985.657,486.77612,71155055,0.3375,0.08510638,20.510172,-14.508189,0.0155391805,-0.009601295,-0.02199173,0.0,0.0,0.0
985.657,486.77612,71155062,0.3375,0.08510638,20.510172,-14.508189,0.0155391805,-0.009601295,-0.02199173,0.0,0.0,0.0
