x,y,timestamp,pressure,fingerarea,velocityx,velocityy,accelx,accely,accelz,gyrox,gyroy,gyroz
325.37195,293.97095,78047259,0.7375,0.12765957,0.0,0.0,0.028835729,-0.03145002,-0.019320488,0.0,0.0,0.0
325.37195,293.97095,78047276,0.75,0.12765957,0.0128879035,0.017747339,0.028835729,-0.03145002,-0.019320488,0.0,0.0,0.0
325.37195,293.97095,78047292,0.7875,0.12765957,8.839949E-4,-1.6529778E-4,0.028835729,-0.03145002,-0.019320488,0.0,0.0,0.0
325.37195,293.97095,78047303,0.8,0.12765957,0.006311943,0.0043550157,0.028835729,-0.03145002,-0.019320488,0.0,0.0,0.0
325.37195,293.97095,78047326,0.8125,0.10638297,-0.016364142,-0.016602661,0.028835729,-0.03145002,-0.019320488,0.0,0.0,0.0
325.41736,315.7799,78047343,0.825,0.08510638,8.240969,690.0067,0.028835729,-0.03145002,-0.019320488,0.0,0.0,0.0
324.3292,332.4828,78047359,0.825,0.10638297,-24.627705,1228.8081,0.028835729,-0.03145002,-0.019320488,0.0,0.0,0.0
322.9432,353.33765,78047376,0.83750004,0.10638297,-75.71691,1720.561,0.028835729,-0.03145002,-0.019320488,0.0,0.0,0.0
320.33047,379.65015,78047393,0.825,0.09574468,-145.21999,1848.7333,0.028835729,-0.03145002,-0.019320488,0.0,0.0,0.0
316.8082,400.75342,78047409,0.8125,0.12765957,-221.51036,1611.2828,0.028835729,-0.03145002,-0.019320488,0.0,0.0,0.0
313.58817,428.78772,78047426,0.83750004,0.09574468,-258.59222,1553.7472,0.028835729,-0.03145002,-0.019320488,0.0,0.0,0.0
311.9328,450.68408,78047443,0.8125,0.12765957,-217.15103,1622.6622,0.028835729,-0.03145002,-0.019320488,0.0,0.0,0.0
310.36353,477.19177,78047460,0.8125,0.09574468,-115.63826,1503.1985,0.028835729,-0.03145002,-0.019320488,0.0,0.0,0.0
308.77646,497.35645,78047476,0.7875,0.12765957,-56.737236,1401.0586,0.028835729,-0.03145002,-0.019320488,0.0,0.0,0.0
308.284,518.0907,78047493,0.7625,0.08510638,-19.20613,1234.13,0.028835729,-0.03145002,-0.019320488,0.0,0.0,0.0
308.63828,539.3141,78047510,0.6875,0.07446808,-0.37366933,1135.2769,0.028835729,-0.03145002,-0.019320488,0.0,0.0,0.0
309.37714,543.6404,78047516,0.55,0.11702127,25.3492,1095.806,0.028835729,-0.03145002,-0.019320488,0.0,0.0,0.0
309.37714,543.6404,78047523,0.55,0.11702127,25.3492,1095.806,0.028835729,-0.03145002,-0.019320488,0.0,0.0,0.0
197.4136,364.16272,78047991,0.6875,0.08510638,0.0,0.0,0.007068604,-0.02516003,-0.06345558,0.0,0.0,0.0
197.4136,364.16272,78048011,0.725,0.08510638,0.037015133,0.06901549,0.007068604,-0.02516003,-0.06345558,0.0,0.0,0.0
197.4136,364.16272,78048028,0.77500004,0.12765957,-0.013354611,-0.02208134,0.007068604,-0.02516003,-0.06345558,0.0,0.0,0.0
211.90231,352.71606,78048044,0.8125,0.12765957,602.8416,-476.24875,0.007068604,-0.02516003,-0.06345558,0.0,0.0,0.0
240.62149,333.47253,78048061,0.8125,0.08510638,1863.1833,-1333.8069,0.007068604,-0.02516003,-0.06345558,0.0,0.0,0.0
273.9766,316.00208,78048078,0.8125,0.08510638,2441.95,-1550.588,0.007068604,-0.02516003,-0.06345558,0.0,0.0,0.0
312.32806,298.41016,78048095,0.825,0.12765957,2968.205,-1562.0686,0.007068604,-0.02516003,-0.06345558,0.0,0.0,0.0
362.8794,276.4651,78048111,0.83750004,0.08510638,3319.8357,-1432.5662,0.007068604,-0.02516003,-0.06345558,0.0,0.0,0.0
420.39963,247.25244,78048128,0.825,0.12765957,3591.1267,-1525.79,0.007068604,-0.02516003,-0.06345558,0.0,0.0,0.0
481.18872,223.26721,78048145,0.8,0.08510638,4087.972,-1767.4618,0.007068604,-0.02516003,-0.06345558,0.0,0.0,0.0
532.73737,203.54517,78048161,0.7625,0.09574468,3908.5474,-1609.2706,0.007068604,-0.02516003,-0.06345558,0.0,0.0,0.0
552.7979,198.90112,78048168,0.65000004,0.09574468,3745.7708,-1447.5659,0.007068604,-0.02516003,-0.06345558,0.0,0.0,0.0
552.7979,198.90112,78048175,0.65000004,0.09574468,3745.7708,-1447.5659,0.007068604,-0.02516003,-0.06345558,0.0,0.0,0.0
458.32867,462.7865,78051490,0.6,0.08510638,0.0,0.0,-0.0010243654,0.007585019,0.005381584,0.0,0.0,0.0
458.32867,462.7865,78051520,0.65000004,0.08510638,-0.010921268,-0.011162151,-0.0010243654,0.007585019,0.005381584,0.0,0.0,0.0
458.32867,462.7865,78051534,0.675,0.08510638,0.020918768,0.019940494,-0.0010243654,0.007585019,0.005381584,0.0,0.0,0.0
458.32867,462.7865,78051554,0.6875,0.10638297,-0.008970352,-0.0070736716,-0.0010243654,0.007585019,0.005381584,0.0,0.0,0.0
458.32867,462.7865,78051570,0.71250004,0.10638297,0.025221886,0.027252091,-0.0010243654,0.007585019,0.005381584,0.0,0.0,0.0
458.32867,462.7865,78051587,0.725,0.10638297,-0.016193872,-0.015901733,-0.0010243654,0.007585019,0.005381584,0.0,0.0,0.0
458.32867,462.7865,78051604,0.7375,0.09574468,-0.0012034883,-0.0017974561,-0.0010243654,0.007585019,0.005381584,0.0,0.0,0.0
437.10266,454.53296,78051620,0.7375,0.11702127,-503.26578,-195.69292,-0.0010243654,0.007585019,0.005381584,0.0,0.0,0.0
429.13562,453.9015,78051637,0.75,0.10638297,-1033.7483,-336.71945,-0.0010243654,0.007585019,0.005381584,0.0,0.0,0.0
415.96973,454.3296,78051654,0.7375,0.10638297,-1190.9626,-202.92557,-0.0010243654,0.007585019,0.005381584,0.0,0.0,0.0
401.96857,456.6631,78051671,0.77500004,0.10638297,-1084.6764,53.622036,-0.0010243654,0.007585019,0.005381584,0.0,0.0,0.0
390.2922,459.4807,78051687,0.77500004,0.12765957,-792.892,311.77225,-0.0010243654,0.007585019,0.005381584,0.0,0.0,0.0
384.1166,463.1322,78051704,0.77500004,0.10638297,-507.6138,367.87018,-0.0010243654,0.007585019,0.005381584,0.0,0.0,0.0
379.04352,471.16064,78051721,0.77500004,0.09574468,-277.14612,380.6626,-0.0010243654,0.007585019,0.005381584,0.0,0.0,0.0
375.0296,484.27832,78051737,0.77500004,0.08510638,-59.8011,676.0275,-0.0010243654,0.007585019,0.005381584,0.0,0.0,0.0
374.356,492.88123,78051754,0.7875,0.09574468,39.68176,856.63965,-0.0010243654,0.007585019,0.005381584,0.0,0.0,0.0
375.3793,499.3413,78051771,0.77500004,0.12765957,111.55386,694.77704,-0.0010243654,0.007585019,0.005381584,0.0,0.0,0.0
377.98746,503.89343,78051788,0.7625,0.10638297,230.40009,386.77933,-0.0010243654,0.007585019,0.005381584,0.0,0.0,0.0
387.39008,511.50378,78051804,0.7625,0.09574468,482.3358,214.03903,-0.0010243654,0.007585019,0.005381584,0.0,0.0,0.0
401.1196,515.69275,78051821,0.7625,0.10638297,808.8969,215.5903,-0.0010243654,0.007585019,0.005381584,0.0,0.0,0.0
413.38214,513.99036,78051838,0.7375,0.12765957,1017.5465,92.54524,-0.0010243654,0.007585019,0.005381584,0.0,0.0,0.0
424.27557,511.36218,78051854,0.7375,0.10638297,965.94763,-183.53786,-0.0010243654,0.007585019,0.005381584,0.0,0.0,0.0
437.71713,501.3103,78051871,0.7375,0.06382979,816.778,-574.18646,-0.0010243654,0.007585019,0.005381584,0.0,0.0,0.0
449.0916,488.29272,78051888,0.75,0.06382979,722.4781,-919.1126,-0.0010243654,0.007585019,0.005381584,0.0,0.0,0.0
458.65765,475.23206,78051905,0.75,0.10638297,659.5007,-1074.5598,-0.0010243654,0.007585019,0.005381584,0.0,0.0,0.0
463.36823,467.84058,78051921,0.7375,0.12765957,442.39252,-933.6707,-0.0010243654,0.007585019,0.005381584,0.0,0.0,0.0
466.16504,463.07275,78051938,0.75,0.12765957,124.10969,-495.5198,0.031180501,0.006068021,-0.0116939545,0.0,0.0,0.0
466.82587,460.18555,78051955,0.75,0.12765957,-99.21063,-86.957695,0.031180501,0.006068021,-0.0116939545,0.0,0.0,0.0
466.82587,458.33252,78051971,0.75,0.12765957,-166.16086,74.403336,0.031180501,0.006068021,-0.0116939545,0.0,0.0,0.0
466.2812,457.45557,78051988,0.7875,0.12765957,-162.4293,84.96347,0.031180501,0.006068021,-0.0116939545,0.0,0.0,0.0
465.23816,458.50073,78052005,0.75,0.09574468,-134.2554,92.73703,0.031180501,0.006068021,-0.0116939545,0.0,0.0,0.0
464.94666,462.7522,78052022,0.77500004,0.08510638,-100.22857,221.33795,0.031180501,0.006068021,-0.0116939545,0.0,0.0,0.0
467.34003,471.41772,78052038,0.77500004,0.07446808,16.781195,458.32846,0.031180501,0.006068021,-0.0116939545,0.0,0.0,0.0
473.057,484.5249,78052055,0.77500004,0.09574468,231.27435,797.0278,0.031180501,0.006068021,-0.0116939545,0.0,0.0,0.0
479.7655,493.39,78052072,0.75,0.10638297,474.4046,897.6036,0.031180501,0.006068021,-0.0116939545,0.0,0.0,0.0
494.62335,502.58508,78052088,0.75,0.10638297,772.4764,749.6176,0.031180501,0.006068021,-0.0116939545,0.0,0.0,0.0
514.2746,509.2489,78052105,0.7375,0.12765957,1184.9952,508.10776,0.031180501,0.006068021,-0.0116939545,0.0,0.0,0.0
533.0284,510.76575,78052122,0.71250004,0.12765957,1444.1469,180.26419,0.031180501,0.006068021,-0.0116939545,0.0,0.0,0.0
554.0856,507.39246,78052139,0.475,0.10638297,1601.5751,-148.45932,0.031180501,0.006068021,-0.0116939545,0.0,0.0,0.0
554.79724,507.21167,78052140,0.1875,0.07446808,1547.2795,-184.35857,0.031180501,0.006068021,-0.0116939545,0.0,0.0,0.0
554.79724,507.21167,78052147,0.1875,0.07446808,1547.2795,-184.35857,0.031180501,0.006068021,-0.0116939545,0.0,0.0,0.0
540.30194,358.83167,78055010,0.58750004,0.10638297,0.0,0.0,0.02583322,0.009386778,-0.012253761,0.0,0.0,0.0
540.30194,358.83167,78055029,0.6375,0.10638297,0.120357476,0.08352533,0.02583322,0.009386778,-0.012253761,0.0,0.0,0.0
540.30194,358.83167,78055046,0.675,0.10638297,0.0030242994,0.0061844853,0.02583322,0.009386778,-0.012253761,0.0,0.0,0.0
540.30194,358.83167,78055063,0.7,0.08510638,0.0059230453,0.002139352,0.02583322,0.009386778,-0.012253761,0.0,0.0,0.0
540.30194,358.83167,78055079,0.725,0.08510638,-0.0017149831,-0.0026539832,0.02583322,0.009386778,-0.012253761,0.0,0.0,0.0
540.30194,358.83167,78055096,0.71250004,0.08510638,-0.014493946,-0.010216267,0.02583322,0.009386778,-0.012253761,0.0,0.0,0.0
540.30194,358.83167,78055113,0.725,0.07446808,-0.0045424225,-0.0033430455,0.02583322,0.009386778,-0.012253761,0.0,0.0,0.0
540.30194,358.83167,78055127,0.7375,0.06382979,0.027155835,0.017981099,0.02583322,0.009386778,-0.012253761,0.0,0.0,0.0
548.7427,374.72424,78055146,0.7375,0.06382979,261.22928,493.0896,-0.011333406,-0.008490592,-0.009802818,0.0,0.0,0.0
553.3013,383.71606,78055163,0.75,0.09574468,425.4631,816.3219,-0.011333406,-0.008490592,-0.009802818,0.0,0.0,0.0
556.5562,390.50586,78055180,0.7375,0.10638297,382.11572,747.4195,-0.011333406,-0.008490592,-0.009802818,0.0,0.0,0.0
559.1204,396.91785,78055196,0.75,0.10638297,239.42354,524.87885,-0.011333406,-0.008490592,-0.009802818,0.0,0.0,0.0
560.4418,404.29712,78055213,0.7375,0.09574468,75.440216,339.55304,-0.011333406,-0.008490592,-0.009802818,0.0,0.0,0.0
561.9767,410.76855,78055230,0.75,0.08510638,49.82404,394.2875,-0.011333406,-0.008490592,-0.009802818,0.0,0.0,0.0
562.7946,418.18835,78055246,0.75,0.06382979,15.062765,410.5299,-0.011333406,-0.008490592,-0.009802818,0.0,0.0,0.0
563.2945,426.05017,78055263,0.7375,0.06382979,-0.38591796,446.34354,-0.011333406,-0.008490592,-0.009802818,0.0,0.0,0.0
564.10394,433.00195,78055280,0.75,0.06382979,4.6580777,459.78128,-0.011333406,-0.008490592,-0.009802818,0.0,0.0,0.0
564.794,438.86243,78055297,0.7625,0.08510638,25.494713,416.60608,-0.011333406,-0.008490592,-0.009802818,0.0,0.0,0.0
564.794,445.03882,78055313,0.75,0.09574468,21.724167,331.95,-0.011333406,-0.008490592,-0.009802818,0.0,0.0,0.0
564.794,449.17725,78055330,0.75,0.10638297,0.569162,268.4148,-0.011333406,-0.008490592,-0.009802818,0.0,0.0,0.0
564.3394,453.6599,78055347,0.75,0.10638297,-29.102903,212.08867,-0.011333406,-0.008490592,-0.009802818,0.0,0.0,0.0
563.2881,458.37805,78055363,0.7625,0.09574468,-66.73643,228.45369,-0.011333406,-0.008490592,-0.009802818,0.0,0.0,0.0
561.6981,464.90796,78055380,0.7625,0.08510638,-95.68308,299.06918,-0.011333406,-0.008490592,-0.009802818,0.0,0.0,0.0
559.6218,471.24646,78055397,0.7375,0.06382979,-138.37648,392.40198,-0.011333406,-0.008490592,-0.009802818,0.0,0.0,0.0
557.0258,477.72424,78055414,0.7375,0.06382979,-177.33214,451.75992,-0.011333406,-0.008490592,-0.009802818,0.0,0.0,0.0
553.2006,483.04102,78055430,0.7375,0.07446808,-222.26764,405.81537,-0.011333406,-0.008490592,-0.009802818,0.0,0.0,0.0
549.9788,485.72766,78055447,0.7625,0.08510638,-241.09927,254.41202,-0.011333406,-0.008490592,-0.009802818,0.0,0.0,0.0
545.07025,490.7533,78055464,0.7375,0.09574468,-278.11798,167.57678,-0.011333406,-0.008490592,-0.009802818,0.0,0.0,0.0
539.62335,494.87854,78055480,0.75,0.09574468,-335.246,204.32225,-0.011333406,-0.008490592,-0.009802818,0.0,0.0,0.0
534.2033,498.00708,78055497,0.75,0.10638297,-377.24362,225.3531,-0.011333406,-0.008490592,-0.009802818,0.0,0.0,0.0
529.8658,499.85474,78055514,0.7375,0.10638297,-353.91776,171.68227,-0.011333406,-0.008490592,-0.009802818,0.0,0.0,0.0
526.3065,500.10364,78055525,0.5375,0.08510638,-328.1712,96.65071,-0.011333406,-0.008490592,-0.009802818,0.0,0.0,0.0
526.3065,500.10364,78055535,0.5375,0.08510638,-328.1712,96.65071,-0.011333406,-0.008490592,-0.009802818,0.0,0.0,0.0
579.7891,285.97437,78058011,0.55,0.09574468,0.0,0.0,-0.021352142,-0.0048302114,-0.023795128,0.0,0.0,0.0
579.7891,285.97437,78058037,0.6375,0.10638297,0.0016780321,-0.0018260756,-0.021352142,-0.0048302114,-0.023795128,0.0,0.0,0.0
579.7891,285.97437,78058054,0.65000004,0.09574468,0.008519865,0.0050701234,-0.021352142,-0.0048302114,-0.023795128,0.0,0.0,0.0
579.7891,285.97437,78058071,0.65000004,0.10638297,0.0023363575,-0.0012350641,-0.021352142,-0.0048302114,-0.023795128,0.0,0.0,0.0
579.7891,285.97437,78058088,0.6625,0.09574468,0.016236467,0.0075725536,-0.021352142,-0.0048302114,-0.023795128,0.0,0.0,0.0
579.7891,285.97437,78058104,0.6875,0.09574468,5.349747E-4,1.747477E-4,-0.021352142,-0.0048302114,-0.023795128,0.0,0.0,0.0
579.7891,285.97437,78058121,0.71250004,0.09574468,0.014858515,0.0075745024,-0.021352142,-0.0048302114,-0.023795128,0.0,0.0,0.0
579.7891,285.97437,78058154,0.7375,0.10638297,-0.0072593973,-0.004154912,-0.021352142,-0.0048302114,-0.023795128,0.0,0.0,0.0
579.7891,285.97437,78058167,0.725,0.10638297,-0.019881714,-0.009733652,-0.021352142,-0.0048302114,-0.023795128,0.0,0.0,0.0
579.7891,285.97437,78058188,0.7375,0.09574468,-0.03304085,-0.01581346,-0.021352142,-0.0048302114,-0.023795128,0.0,0.0,0.0
579.7891,285.97437,78058205,0.75,0.08510638,-0.012700018,-0.0065607117,-0.021352142,-0.0048302114,-0.023795128,0.0,0.0,0.0
564.84143,305.1953,78058221,0.7375,0.06382979,-436.0588,551.8599,-0.021352142,-0.0048302114,-0.023795128,0.0,0.0,0.0
559.23694,319.0581,78058238,0.725,0.06382979,-675.62024,1050.8049,-0.021352142,-0.0048302114,-0.023795128,0.0,0.0,0.0
559.5169,325.3595,78058254,0.725,0.08510638,-492.64716,1040.8986,-0.021352142,-0.0048302114,-0.023795128,0.0,0.0,0.0
561.55554,329.974,78058271,0.7375,0.08510638,50.852833,554.67834,-0.021352142,-0.0048302114,-0.023795128,0.0,0.0,0.0
563.9894,332.34998,78058288,0.7375,0.08510638,357.0452,100.61122,-0.021352142,-0.0048302114,-0.023795128,0.0,0.0,0.0
568.96533,336.03113,78058305,0.7375,0.09574468,515.4942,-129.21477,-0.021352142,-0.0048302114,-0.023795128,0.0,0.0,0.0
575.05804,338.17908,78058321,0.7375,0.10638297,423.994,40.854126,-0.021352142,-0.0048302114,-0.023795128,0.0,0.0,0.0
582.1729,340.74915,78058338,0.7375,0.11702127,489.34958,86.64464,-0.021352142,-0.0048302114,-0.023795128,0.0,0.0,0.0
590.4293,342.6803,78058355,0.75,0.10638297,558.01465,108.74491,-0.0010817051,0.0121358335,0.13296413,0.0,0.0,0.0
600.77545,342.83862,78058371,0.7625,0.09574468,627.4588,53.982056,-0.0010817051,0.0121358335,0.13296413,0.0,0.0,0.0
612.1328,342.83862,78058388,0.7625,0.09574468,727.80585,-13.917009,-0.0010817051,0.0121358335,0.13296413,0.0,0.0,0.0
622.5081,344.76025,78058405,0.75,0.12765957,748.9556,5.791603,-0.0010817051,0.0121358335,0.13296413,0.0,0.0,0.0
631.61505,345.50415,78058422,0.75,0.12765957,675.20447,34.4588,-0.0010817051,0.0121358335,0.13296413,0.0,0.0,0.0
640.0744,347.57104,78058438,0.7625,0.12765957,537.8157,97.79139,-0.0010817051,0.0121358335,0.13296413,0.0,0.0,0.0
649.25146,350.6521,78058455,0.75,0.12765957,460.09882,170.5673,-0.0010817051,0.0121358335,0.13296413,0.0,0.0,0.0
661.8849,353.92432,78058472,0.75,0.09574468,599.9292,212.86652,-0.0010817051,0.0121358335,0.13296413,0.0,0.0,0.0
672.7309,356.2379,78058488,0.75,0.09574468,727.56696,211.99275,-0.0010817051,0.0121358335,0.13296413,0.0,0.0,0.0
681.4905,358.51038,78058505,0.75,0.08510638,717.76917,176.16112,-0.0010817051,0.0121358335,0.13296413,0.0,0.0,0.0
688.9093,361.24707,78058522,0.75,0.09574468,529.4533,137.98705,-0.0010817051,0.0121358335,0.13296413,0.0,0.0,0.0
695.203,363.96777,78058538,0.77500004,0.09574468,326.43817,146.78146,-0.0010817051,0.0121358335,0.13296413,0.0,0.0,0.0
699.05896,365.8263,78058555,0.77500004,0.09574468,194.03546,143.80835,-0.0010817051,0.0121358335,0.13296413,0.0,0.0,0.0
701.20593,367.67786,78058572,0.7625,0.08510638,90.88753,114.2988,-0.0010817051,0.0121358335,0.13296413,0.0,0.0,0.0
702.24927,370.44934,78058589,0.7625,0.09574468,-0.4803472,118.43416,-0.0010817051,0.0121358335,0.13296413,0.0,0.0,0.0
700.62476,375.15796,78058605,0.7625,0.09574468,-128.49088,197.39867,-0.0010817051,0.0121358335,0.13296413,0.0,0.0,0.0
695.73315,381.59692,78058622,0.7625,0.08510638,-289.9819,355.8955,-0.0010817051,0.0121358335,0.13296413,0.0,0.0,0.0
679.48267,392.16467,78058639,0.77500004,0.10638297,-708.12445,574.60767,-0.0010817051,0.0121358335,0.13296413,0.0,0.0,0.0
660.9211,401.35217,78058655,0.77500004,0.12765957,-1212.9204,706.0863,-0.0010817051,0.0121358335,0.13296413,0.0,0.0,0.0
644.322,412.5929,78058672,0.7875,0.08510638,-1460.7565,754.5104,-0.0010817051,0.0121358335,0.13296413,0.0,0.0,0.0
625.87305,428.49133,78058689,0.7625,0.08510638,-1391.4265,878.76135,-0.0010817051,0.0121358335,0.13296413,0.0,0.0,0.0
610.81635,442.38635,78058706,0.77500004,0.10638297,-1117.7286,992.44104,-0.0010817051,0.0121358335,0.13296413,0.0,0.0,0.0
600.56305,453.97168,78058722,0.77500004,0.11702127,-771.4606,939.30316,-0.0010817051,0.0121358335,0.13296413,0.0,0.0,0.0
591.396,474.3778,78058739,0.7625,0.08510638,-504.90036,1005.37524,-0.0010817051,0.0121358335,0.13296413,0.0,0.0,0.0
588.8717,486.90454,78058756,0.77500004,0.09574468,-162.67268,971.5885,-0.0010817051,0.0121358335,0.13296413,0.0,0.0,0.0
590.1976,491.95056,78058772,0.77500004,0.09574468,164.42322,687.1938,-0.0010817051,0.0121358335,0.13296413,0.0,0.0,0.0
597.2672,496.54175,78058789,0.77500004,0.10638297,458.3886,269.03186,-0.0010817051,0.0121358335,0.13296413,0.0,0.0,0.0
617.61096,501.12695,78058806,0.77500004,0.10638297,1080.1354,-24.452068,-0.0010817051,0.0121358335,0.13296413,0.0,0.0,0.0
639.44934,500.9922,78058823,0.7625,0.08510638,1617.342,-142.09776,-0.0010817051,0.0121358335,0.13296413,0.0,0.0,0.0
672.4737,495.44946,78058839,0.65000004,0.08510638,2184.6191,-257.94513,-0.0010817051,0.0121358335,0.13296413,0.0,0.0,0.0
674.7582,494.7727,78058846,0.3125,0.09574468,2188.4116,-301.04987,-0.0010817051,0.0121358335,0.13296413,0.0,0.0,0.0
674.7582,494.7727,78058853,0.3125,0.09574468,2188.4116,-301.04987,-0.0010817051,0.0121358335,0.13296413,0.0,0.0,0.0
793.7195,455.67847,78060175,0.65000004,0.10638297,0.0,0.0,-0.016553849,0.01197353,-0.029842377,0.0,0.0,0.0
793.7195,455.67847,78060193,0.6875,0.10638297,-0.021860132,-0.0070469966,-0.016553849,0.01197353,-0.029842377,0.0,0.0,0.0
793.7195,455.67847,78060210,0.725,0.10638297,-0.08771108,-0.051130474,-0.016553849,0.01197353,-0.029842377,0.0,0.0,0.0
793.7195,455.67847,78060226,0.7375,0.09574468,0.041733794,0.022299303,-0.016553849,0.01197353,-0.029842377,0.0,0.0,0.0
793.7195,455.67847,78060243,0.75,0.09574468,9.84778E-4,0.0014973532,-0.016553849,0.01197353,-0.029842377,0.0,0.0,0.0
793.7195,455.67847,78060260,0.7625,0.09574468,0.005678305,0.0064293346,-0.016553849,0.01197353,-0.029842377,0.0,0.0,0.0
781.26025,452.91016,78060277,0.7375,0.09574468,-258.5263,-57.427692,-0.016553849,0.01197353,-0.029842377,0.0,0.0,0.0
764.6552,449.5962,78060293,0.75,0.11702127,-959.4511,-206.05373,-0.016553849,0.01197353,-0.029842377,0.0,0.0,0.0
751.643,449.45898,78060310,0.7625,0.10638297,-1267.6252,-206.52219,-0.016553849,0.01197353,-0.029842377,0.0,0.0,0.0
736.5109,451.2013,78060326,0.77500004,0.09574468,-1280.1112,-21.84331,-0.016553849,0.01197353,-0.029842377,0.0,0.0,0.0
724.0551,454.85657,78060343,0.77500004,0.12765957,-1031.0446,189.32147,-0.016553849,0.01197353,-0.029842377,0.0,0.0,0.0
716.78827,458.57568,78060360,0.7625,0.10638297,-592.54224,350.7818,-0.016553849,0.01197353,-0.029842377,0.0,0.0,0.0
710.53516,466.53552,78060377,0.77500004,0.09574468,-354.56384,454.0295,-0.016553849,0.01197353,-0.029842377,0.0,0.0,0.0
707.97363,476.68506,78060393,0.7625,0.07446808,-108.83606,608.4009,-0.016553849,0.01197353,-0.029842377,0.0,0.0,0.0
709.6191,486.65295,78060410,0.77500004,0.08510638,146.63414,749.06305,-0.016553849,0.01197353,-0.029842377,0.0,0.0,0.0
713.6388,491.8767,78060427,0.77500004,0.08510638,313.17764,654.42126,-0.016553849,0.01197353,-0.029842377,0.0,0.0,0.0
726.61926,498.3617,78060443,0.75,0.09574468,713.44476,406.72015,-0.016553849,0.01197353,-0.029842377,0.0,0.0,0.0
742.03925,500.9922,78060460,0.75,0.11702127,1096.0968,161.24478,-0.016553849,0.01197353,-0.029842377,0.0,0.0,0.0
758.6582,499.78662,78060477,0.7625,0.08510638,1312.2678,-47.313644,-0.016553849,0.01197353,-0.029842377,0.0,0.0,0.0
777.1027,493.04993,78060494,0.75,0.06382979,1364.9288,-342.28897,-0.013243079,-0.0064211786,-0.007874489,0.0,0.0,0.0
791.2136,481.6001,78060510,0.75,0.07446808,1168.7174,-737.9377,-0.013243079,-0.0064211786,-0.007874489,0.0,0.0,0.0
800.91406,470.2793,78060527,0.7375,0.12765957,828.9218,-994.79224,-0.013243079,-0.0064211786,-0.007874489,0.0,0.0,0.0
806.21045,461.90503,78060544,0.7625,0.12765957,394.1017,-924.5107,-0.013243079,-0.0064211786,-0.007874489,0.0,0.0,0.0
808.56824,457.7157,78060560,0.7625,0.11702127,18.041246,-588.2186,-0.013243079,-0.0064211786,-0.007874489,3.355443E-6,0.0,0.0
809.79156,454.6526,78060577,0.7625,0.11702127,-167.28372,-172.19809,-0.013243079,-0.0064211786,-0.007874489,3.355443E-6,0.0,0.0
809.71423,452.80505,78060594,0.7625,0.11702127,-192.48857,45.612865,-0.013243079,-0.0064211786,-0.007874489,3.355443E-6,0.0,0.0
808.55756,453.01306,78060610,0.7625,0.12765957,-185.11526,119.64355,-0.013243079,-0.0064211786,-0.007874489,3.355443E-6,0.0,0.0
806.4401,455.27905,78060627,0.75,0.10638297,-185.69615,165.39874,-0.013243079,-0.0064211786,-0.007874489,0.0,0.0,0.0
802.0154,466.99878,78060644,0.7625,0.08510638,-262.82593,483.60568,-0.013243079,-0.0064211786,-0.007874489,0.0,0.0,0.0
802.04584,481.81982,78060661,0.7375,0.07446808,-241.16269,917.1535,-0.013243079,-0.0064211786,-0.007874489,0.0,0.0,0.0
805.46704,493.44238,78060677,0.7375,0.09574468,17.463692,1178.9305,-0.013243079,-0.0064211786,-0.007874489,0.0,0.0,0.0
811.84344,499.91016,78060694,0.75,0.12765957,347.12064,891.35175,-0.013243079,-0.0064211786,-0.007874489,0.0,0.0,0.0
827.46173,507.5182,78060711,0.7375,0.12765957,828.5037,451.05176,-0.013243079,-0.0064211786,-0.007874489,0.0,0.0,0.0
846.4549,509.8772,78060727,0.725,0.12765957,1269.6145,115.61825,-0.013243079,-0.0064211786,-0.007874489,0.0,0.0,0.0
865.23303,506.46045,78060744,0.7,0.12765957,1494.4056,-147.99771,-0.013243079,-0.0064211786,-0.007874489,0.0,0.0,0.0
881.35,500.02283,78060761,0.15,0.06382979,1419.2594,-468.8762,-0.013243079,-0.0064211786,-0.007874489,0.0,0.0,0.0
881.35,500.02283,78060768,0.15,0.06382979,1419.2594,-468.8762,-0.013243079,-0.0064211786,-0.007874489,0.0,0.0,0.0
943.17084,434.3545,78062011,0.6375,0.06382979,0.0,0.0,0.017124414,0.04069045,0.052560806,0.0,0.0,0.0
943.17084,434.3545,78062031,0.6625,0.06382979,0.012798324,0.008461687,0.017124414,0.04069045,0.052560806,0.0,0.0,0.0
943.17084,434.3545,78062048,0.6875,0.06382979,-0.035052553,-0.016356247,0.017124414,0.04069045,0.052560806,0.0,0.0,0.0
943.17084,434.3545,78062064,0.71250004,0.06382979,-0.010757239,-0.004360999,0.017124414,0.04069045,0.052560806,0.0,0.0,0.0
943.17084,434.3545,78062079,0.71250004,0.06382979,0.012971926,0.0066892044,0.017124414,0.04069045,0.052560806,0.0,0.0,0.0
943.17084,434.3545,78062098,0.7375,0.07446808,0.06981446,0.032077555,-0.0023004413,0.016552389,-0.021951675,3.355443E-6,0.0,0.0
943.17084,434.3545,78062114,0.725,0.08510638,0.050036453,0.023551714,-0.0023004413,0.016552389,-0.021951675,3.355443E-6,0.0,0.0
926.34564,425.00806,78062131,0.725,0.09574468,-426.72495,-237.03946,-0.0023004413,0.016552389,-0.021951675,3.355443E-6,0.0,0.0
911.30334,420.80396,78062148,0.75,0.08510638,-1050.306,-465.36398,-0.0023004413,0.016552389,-0.021951675,3.355443E-6,0.0,0.0
894.9823,421.02686,78062165,0.7625,0.08510638,-1394.1688,-377.47763,-0.0023004413,0.016552389,-0.021951675,0.0,0.0,0.0
880.3747,422.18445,78062181,0.75,0.09574468,-1324.5231,-31.112919,-0.0023004413,0.016552389,-0.021951675,0.0,0.0,0.0
868.0941,428.36658,78062198,0.75,0.09574468,-1027.7456,317.54333,-0.0023004413,0.016552389,-0.021951675,0.0,0.0,0.0
859.81647,436.41772,78062215,0.7375,0.08510638,-566.8321,657.36035,-0.0023004413,0.016552389,-0.021951675,0.0,0.0,0.0
854.41693,445.53564,78062231,0.7375,0.12765957,-292.2543,680.55743,-0.0023004413,0.016552389,-0.021951675,0.0,0.0,0.0
851.5013,459.77222,78062248,0.75,0.10638297,-76.55206,888.8388,-0.0023004413,0.016552389,-0.021951675,0.0,0.0,0.0
855.5592,472.91003,78062265,0.7625,0.08510638,197.42548,955.3822,-0.0023004413,0.016552389,-0.021951675,0.0,0.0,0.0
865.13654,484.17957,78062282,0.7375,0.08510638,574.2649,915.04346,-0.0023004413,0.016552389,-0.021951675,0.0,0.0,0.0
888.60736,494.84204,78062298,0.7375,0.08510638,1210.533,760.2721,-0.0023004413,0.016552389,-0.021951675,0.0,0.0,0.0
912.58795,497.43823,78062315,0.725,0.09574468,1841.1395,400.00446,-0.0023004413,0.016552389,-0.021951675,0.0,0.0,0.0
941.1372,493.00427,78062332,0.71250004,0.06382979,2152.0205,-87.63998,-0.0023004413,0.016552389,-0.021951675,0.0,0.0,0.0
955.96515,488.4773,78062348,0.32500002,0.08510638,1789.7507,-551.4668,-0.0023004413,0.016552389,-0.021951675,0.0,0.0,0.0
955.96515,488.4773,78062356,0.32500002,0.08510638,1789.7507,-551.4668,-0.0023004413,0.016552389,-0.021951675,0.0,0.0,0.0
1048.1366,412.14185,78063654,0.6375,0.09574468,0.0,0.0,-0.052672297,-0.031006485,-0.014048576,0.0,0.0,0.0
1048.1366,412.14185,78063685,0.6875,0.09574468,-0.03626239,-0.01629027,-0.052672297,-0.031006485,-0.014048576,0.0,0.0,0.0
1048.1366,412.14185,78063702,0.7,0.12765957,0.07399222,0.027503984,0.0058621615,-0.024805188,0.036761284,0.0,0.0,0.0
1048.1366,412.14185,78063719,0.71250004,0.12765957,0.0050107054,0.0021778666,0.0058621615,-0.024805188,0.036761284,0.0,0.0,0.0
1020.27466,409.47632,78063735,0.725,0.09574468,-1053.6085,-108.42125,0.0058621615,-0.024805188,0.036761284,0.0,0.0,0.0
1001.5547,413.75916,78063752,0.7375,0.08510638,-1460.744,27.148542,0.0058621615,-0.024805188,0.036761284,0.0,0.0,0.0
983.7894,423.59875,78063769,0.7375,0.08510638,-1684.1832,373.27747,0.0058621615,-0.024805188,0.036761284,0.0,0.0,0.0
968.6627,435.06494,78063785,0.75,0.08510638,-1438.3392,761.649,0.0058621615,-0.024805188,0.036761284,0.0,0.0,0.0
955.9744,446.29224,78063802,0.7375,0.10638297,-660.9361,1014.8113,0.0058621615,-0.024805188,0.036761284,0.0,0.0,0.0
945.3936,457.31836,78063819,0.7375,0.10638297,-618.8601,887.28815,0.0058621615,-0.024805188,0.036761284,0.0,0.0,0.0
938.17957,470.58508,78063836,0.75,0.07446808,-371.57727,761.74475,0.0058621615,-0.024805188,0.036761284,0.0,0.0,0.0
936.1731,482.39844,78063852,0.725,0.07446808,-124.86386,744.76636,0.0058621615,-0.024805188,0.036761284,0.0,0.0,0.0
939.26044,489.78162,78063869,0.725,0.08510638,198.59584,649.86743,0.0058621615,-0.024805188,0.036761284,0.0,0.0,0.0
949.8913,497.7954,78063886,0.7375,0.09574468,617.2284,462.80847,0.0058621615,-0.024805188,0.036761284,0.0,0.0,0.0
967.33105,504.44202,78063902,0.725,0.11702127,1143.1208,310.71973,0.0058621615,-0.024805188,0.036761284,0.0,0.0,0.0
990.6079,507.24817,78063919,0.7375,0.10638297,1604.9264,170.2649,0.0058621615,-0.024805188,0.036761284,0.0,0.0,0.0
1010.2589,510.9978,78063936,0.725,0.12765957,1723.9626,128.84488,0.0058621615,-0.024805188,0.036761284,0.0,0.0,0.0
1024.0165,512.73035,78063953,0.725,0.12765957,1397.628,54.66926,0.0058621615,-0.024805188,0.036761284,0.0,0.0,0.0
1035.6327,516.57886,78063969,0.725,0.09574468,874.0535,56.97129,0.0058621615,-0.024805188,0.036761284,0.0,0.0,0.0
1045.8691,520.3346,78063986,0.7375,0.08510638,481.76953,163.89877,0.0058621615,-0.024805188,0.036761284,0.0,0.0,0.0
1050.0801,522.7108,78064003,0.725,0.08510638,209.21048,205.46164,0.0058621615,-0.024805188,0.036761284,0.0,0.0,0.0
1051.6355,526.8485,78064019,0.7375,0.06382979,31.363256,203.83885,0.0058621615,-0.024805188,0.036761284,0.0,0.0,0.0
1049.1382,533.68713,78064036,0.725,0.07446808,-235.57587,307.87943,0.0058621615,-0.024805188,0.036761284,0.0,0.0,0.0
1036.8634,543.7095,78064053,0.725,0.09574468,-639.96906,516.32214,0.0058621615,-0.024805188,0.036761284,0.0,0.0,0.0
1007.3579,556.5386,78064070,0.7375,0.09574468,-1444.484,805.077,0.0058621615,-0.024805188,0.036761284,0.0,0.0,0.0
973.4209,568.4874,78064086,0.725,0.12765957,-2340.4224,935.16034,0.0058621615,-0.024805188,0.036761284,0.0,0.0,0.0
939.43256,582.17456,78064103,0.75,0.08510638,-2837.5732,926.6794,0.0058621615,-0.024805188,0.036761284,0.0,0.0,0.0
917.1639,593.4043,78064120,0.71250004,0.07446808,-2309.6013,831.3198,0.0058621615,-0.024805188,0.036761284,0.0,0.0,0.0
904.3841,597.91504,78064136,0.2375,0.09574468,-1299.343,524.54486,0.0058621615,-0.024805188,0.036761284,0.0,0.0,0.0
904.3841,597.91504,78064143,0.2375,0.09574468,-1299.343,524.54486,0.0058621615,-0.024805188,0.036761284,0.0,0.0,0.0
