x,y,timestamp,pressure,fingerarea,velocityx,velocityy,accelx,accely,accelz,gyrox,gyroy,gyroz
347.86462,270.86987,78155749,0.71250004,0.06382979,0.0,0.0,-0.009785861,-0.025432825,0.06409073,0.0,0.0,0.0
347.86462,270.86987,78155775,0.77500004,0.06382979,0.027724212,0.020518107,-0.009785861,-0.025432825,0.06409073,0.0,0.0,0.0
347.86462,270.86987,78155792,0.8125,0.06382979,0.01814398,0.015802363,-0.009785861,-0.025432825,0.06409073,0.0,0.0,0.0
347.86462,270.86987,78155809,0.8125,0.08510638,0.036664404,0.02987809,-0.009785861,-0.025432825,0.06409073,0.0,0.0,0.0
347.86462,270.86987,78155825,0.83750004,0.08510638,0.0071244393,0.005359204,-0.009785861,-0.025432825,0.06409073,0.0,0.0,0.0
346.5139,285.27612,78155842,0.825,0.09574468,-27.06127,288.85907,-0.009785861,-0.025432825,0.06409073,0.0,0.0,0.0
344.38376,303.58447,78155859,0.83750004,0.09574468,-106.76355,1024.7599,-0.009785861,-0.025432825,0.06409073,0.0,0.0,0.0
343.8659,325.61194,78155875,0.83750004,0.09574468,-124.3843,1620.7407,-0.009785861,-0.025432825,0.06409073,0.0,0.0,0.0
342.86624,343.21338,78155892,0.83750004,0.12765957,-91.295845,1671.1145,-0.009785861,-0.025432825,0.06409073,0.0,0.0,0.0
343.481,366.33752,78155909,0.825,0.08510638,-12.445786,1528.1461,-0.009785861,-0.025432825,0.06409073,0.0,0.0,0.0
343.3661,390.87866,78155926,0.85,0.10638297,48.10343,1432.1814,-0.009785861,-0.025432825,0.06409073,0.0,0.0,0.0
344.74268,418.05554,78155942,0.825,0.08510638,79.201294,1628.9812,-0.009785861,-0.025432825,0.06409073,0.0,0.0,0.0
348.0476,446.2384,78155959,0.83750004,0.10638297,172.81392,1865.3549,-0.009785861,-0.025432825,0.06409073,0.0,0.0,0.0
349.133,472.68347,78155976,0.8125,0.08510638,183.35844,1751.4028,-0.009785861,-0.025432825,0.06409073,0.0,0.0,0.0
350.3638,494.66626,78155992,0.8,0.09574468,140.33319,1527.4496,-0.009785861,-0.025432825,0.06409073,0.0,0.0,0.0
350.3638,510.97253,78156009,0.7625,0.10638297,25.477345,1112.6128,-0.009785861,-0.025432825,0.06409073,0.0,0.0,0.0
348.9728,524.4032,78156026,0.575,0.08510638,-90.28421,729.5104,-0.009785861,-0.025432825,0.06409073,0.0,0.0,0.0
348.8643,524.9818,78156028,0.2,0.06382979,-97.05321,682.4593,-0.009785861,-0.025432825,0.06409073,0.0,0.0,0.0
348.8643,524.9818,78156035,0.2,0.06382979,-97.05321,682.4593,-0.009785861,-0.025432825,0.06409073,0.0,0.0,0.0
238.90009,341.06165,78156358,0.71250004,0.09574468,0.0,0.0,0.00817132,-0.020346254,-0.012727737,0.0,0.0,0.0
238.90009,341.06165,78156377,0.7625,0.09574468,-0.010245102,-0.015046869,0.00817132,-0.020346254,-0.012727737,0.0,0.0,0.0
238.90009,341.06165,78156393,0.825,0.09574468,-0.0051888786,-0.0060867076,0.00817132,-0.020346254,-0.012727737,0.0,0.0,0.0
238.90009,341.06165,78156410,0.8125,0.08510638,0.008490081,0.013041618,0.00817132,-0.020346254,-0.012727737,0.0,0.0,0.0
246.06064,336.06116,78156427,0.85,0.08510638,192.10223,-134.13638,0.00817132,-0.020346254,-0.012727737,0.0,0.0,0.0
270.06348,320.76514,78156444,0.83750004,0.08510638,1041.2397,-696.07263,0.00817132,-0.020346254,-0.012727737,0.0,0.0,0.0
298.59497,306.77344,78156460,0.825,0.10638297,2010.5746,-1150.5735,0.00817132,-0.020346254,-0.012727737,0.0,0.0,0.0
333.72305,288.62903,78156477,0.85,0.10638297,2529.9216,-1335.0366,0.00817132,-0.020346254,-0.012727737,0.0,0.0,0.0
370.4826,263.56555,78156494,0.83750004,0.09574468,2745.7158,-1515.9402,0.00817132,-0.020346254,-0.012727737,0.0,0.0,0.0
412.91635,239.62964,78156510,0.825,0.12765957,2785.4817,-1661.5673,0.00817132,-0.020346254,-0.012727737,0.0,0.0,0.0
466.00604,215.69653,78156527,0.825,0.09574468,3071.9893,-1675.7961,0.00817132,-0.020346254,-0.012727737,0.0,0.0,0.0
515.2881,200.92615,78156544,0.725,0.08510638,3330.4487,-1367.0013,0.00817132,-0.020346254,-0.012727737,0.0,0.0,0.0
534.8038,195.34705,78156552,0.4875,0.12765957,3373.5378,-1161.2108,0.00817132,-0.020346254,-0.012727737,0.0,0.0,0.0
534.8038,195.34705,78156559,0.4875,0.12765957,3373.5378,-1161.2108,0.00817132,-0.020346254,-0.012727737,0.0,0.0,0.0
492.81744,435.24292,78159973,0.675,0.06382979,0.0,0.0,0.008418813,1.2400746E-4,0.0011711121,0.0,0.0,0.0
492.81744,435.24292,78160003,0.7375,0.07446808,0.03522714,0.027232377,0.008418813,1.2400746E-4,0.0011711121,0.0,0.0,0.0
492.81744,435.24292,78160020,0.7625,0.07446808,-0.03260666,-0.024373526,0.008418813,1.2400746E-4,0.0011711121,0.0,0.0,0.0
492.81744,435.24292,78160036,0.7875,0.08510638,0.021662213,0.017922869,0.008418813,1.2400746E-4,0.0011711121,0.0,0.0,0.0
492.81744,435.24292,78160053,0.7875,0.08510638,-0.0013181877,-6.97026E-4,0.008418813,1.2400746E-4,0.0011711121,0.0,0.0,0.0
492.81744,435.24292,78160070,0.8,0.08510638,0.009594958,0.0065527223,0.008418813,1.2400746E-4,0.0011711121,0.0,0.0,0.0
492.81744,435.24292,78160086,0.8,0.09574468,-0.0012986388,-0.001777265,0.008418813,1.2400746E-4,0.0011711121,0.0,0.0,0.0
492.81744,435.24292,78160103,0.8,0.09574468,0.01309781,0.011388086,0.008418813,1.2400746E-4,0.0011711121,0.0,0.0,0.0
462.98578,419.15955,78160120,0.8125,0.09574468,-865.50073,-478.64832,0.008418813,1.2400746E-4,0.0011711121,0.0,0.0,0.0
447.84448,418.36133,78160137,0.825,0.08510638,-1420.2533,-583.28064,0.008418813,1.2400746E-4,0.0011711121,0.0,0.0,0.0
434.3061,421.85535,78160153,0.825,0.09574468,-1510.9983,-276.81964,0.008418813,1.2400746E-4,0.0011711121,0.0,0.0,0.0
424.24597,427.1454,78160170,0.8125,0.08510638,-945.5571,354.79504,0.008418813,1.2400746E-4,0.0011711121,0.0,0.0,0.0
412.45,436.03687,78160187,0.8125,0.08510638,-451.6581,820.98303,0.008418813,1.2400746E-4,0.0011711121,0.0,0.0,0.0
404.205,443.2124,78160203,0.8125,0.10638297,-508.253,728.77576,0.008418813,1.2400746E-4,0.0011711121,0.0,0.0,0.0
397.13416,455.50122,78160220,0.825,0.10638297,-395.2501,728.633,0.008418813,1.2400746E-4,0.0011711121,0.0,0.0,0.0
395.34915,468.61963,78160237,0.8125,0.08510638,-193.09526,825.43884,0.008418813,1.2400746E-4,0.0011711121,0.0,0.0,0.0
398.13675,480.88135,78160254,0.8125,0.08510638,166.98553,881.1919,0.008418813,1.2400746E-4,0.0011711121,0.0,0.0,0.0
402.30573,488.49817,78160270,0.8,0.08510638,428.98212,774.1623,0.008418813,1.2400746E-4,0.0011711121,0.0,0.0,0.0
410.0876,494.9348,78160287,0.8,0.11702127,608.1762,461.7955,0.008418813,1.2400746E-4,0.0011711121,0.0,0.0,0.0
422.23672,499.4602,78160304,0.7875,0.10638297,797.06256,186.94807,0.008418813,1.2400746E-4,0.0011711121,0.0,0.0,0.0
438.37445,499.76172,78160320,0.8,0.08510638,1017.19714,-9.077341,0.008418813,1.2400746E-4,0.0011711121,0.0,0.0,0.0
454.09674,494.79797,78160337,0.77500004,0.08510638,1181.0945,-257.20996,0.008418813,1.2400746E-4,0.0011711121,0.0,0.0,0.0
464.2788,485.6577,78160354,0.7875,0.09574468,1063.8662,-570.9069,0.008418813,1.2400746E-4,0.0011711121,0.0,0.0,0.0
472.69696,473.67432,78160371,0.77500004,0.11702127,634.54156,-917.66077,0.008418813,1.2400746E-4,0.0011711121,0.0,0.0,0.0
478.42615,462.60168,78160387,0.7875,0.10638297,269.47638,-984.8205,0.008418813,1.2400746E-4,0.0011711121,0.0,0.0,0.0
485.85284,446.87683,78160404,0.8,0.08510638,188.80214,-999.3774,0.022735044,9.921193E-5,-0.03106308,0.0,0.0,0.0
488.1571,437.8828,78160421,0.7875,0.07446808,161.67172,-871.02203,0.022735044,9.921193E-5,-0.03106308,0.0,0.0,0.0
488.81873,433.67505,78160437,0.8,0.08510638,40.82303,-501.80057,0.022735044,9.921193E-5,-0.03106308,0.0,0.0,0.0
488.81873,431.83008,78160454,0.8125,0.08510638,-106.28781,-91.65234,0.022735044,9.921193E-5,-0.03106308,0.0,0.0,0.0
488.81873,431.24475,78160459,0.8125,0.08510638,-125.53671,-18.898527,0.022735044,9.921193E-5,-0.03106308,0.0,0.0,0.0
487.8145,437.052,78160487,0.8125,0.10638297,-129.65678,399.98294,0.022735044,9.921193E-5,-0.03106308,0.0,0.0,0.0
487.3192,447.19507,78160504,0.8,0.12765957,-74.6414,598.6029,0.022735044,9.921193E-5,-0.03106308,0.0,0.0,0.0
489.49353,458.38892,78160521,0.8125,0.10638297,27.080751,834.7302,0.022735044,9.921193E-5,-0.03106308,0.0,0.0,0.0
493.17914,465.20654,78160538,0.8,0.08510638,185.26729,813.74506,0.022735044,9.921193E-5,-0.03106308,0.0,0.0,0.0
502.69342,475.7035,78160554,0.7875,0.08510638,421.82782,703.882,0.022735044,9.921193E-5,-0.03106308,0.0,0.0,0.0
515.7283,486.78967,78160571,0.7875,0.08510638,816.97186,595.94586,0.022735044,9.921193E-5,-0.03106308,0.0,0.0,0.0
527.9594,492.96924,78160588,0.8,0.09574468,985.2226,547.7226,0.022735044,9.921193E-5,-0.03106308,0.0,0.0,0.0
541.5653,496.16626,78160604,0.7875,0.08510638,1007.9486,339.23795,0.022735044,9.921193E-5,-0.03106308,0.0,0.0,0.0
555.1761,497.43823,78160621,0.8,0.08510638,936.55585,31.855722,0.022735044,9.921193E-5,-0.03106308,0.0,0.0,0.0
565.18976,497.43823,78160638,0.8,0.08510638,760.8042,-192.75656,0.022735044,9.921193E-5,-0.03106308,0.0,0.0,0.0
572.15356,495.99817,78160655,0.7875,0.08510638,540.0464,-200.43987,0.022735044,9.921193E-5,-0.03106308,0.0,0.0,0.0
577.5459,493.99255,78160671,0.7875,0.09574468,281.15244,-209.62737,0.022735044,9.921193E-5,-0.03106308,0.0,0.0,0.0
581.71625,492.13928,78160688,0.8,0.09574468,99.20717,-208.98021,0.022735044,9.921193E-5,-0.03106308,0.0,0.0,0.0
584.3289,490.29358,78160705,0.7875,0.08510638,58.131397,-167.78038,0.022735044,9.921193E-5,-0.03106308,0.0,0.0,0.0
585.84656,488.4475,78160721,0.77500004,0.08510638,26.7085,-134.52728,0.022735044,9.921193E-5,-0.03106308,0.0,0.0,0.0
587.38947,486.59338,78160738,0.7875,0.08510638,5.0551834,-109.68009,0.022735044,9.921193E-5,-0.03106308,0.0,0.0,0.0
588.2864,484.77283,78160755,0.7875,0.08510638,-1.7743089,-109.072525,0.022735044,9.921193E-5,-0.03106308,0.0,0.0,0.0
588.9553,482.9215,78160772,0.8,0.08510638,-5.8955016,-110.40493,0.022735044,9.921193E-5,-0.03106308,0.0,0.0,0.0
589.7859,481.44507,78160788,0.7875,0.08510638,15.946528,-105.05918,0.022735044,9.921193E-5,-0.03106308,0.0,0.0,0.0
589.7859,481.44507,78160805,0.8,0.09574468,10.325251,-50.009407,0.022735044,9.921193E-5,-0.03106308,0.0,0.0,0.0
589.7859,481.44507,78160822,0.8,0.08510638,-6.3710713,19.962831,0.022735044,9.921193E-5,-0.03106308,0.0,0.0,0.0
589.7859,481.44507,78160838,0.7875,0.09574468,-20.035313,52.30962,0.022735044,9.921193E-5,-0.03106308,0.0,0.0,0.0
589.7859,481.44507,78160845,0.8,0.09574468,-21.440592,50.969788,0.022735044,9.921193E-5,-0.03106308,0.0,0.0,0.0
589.7859,481.44507,78160889,0.7875,0.09574468,-0.01477832,-0.013759563,0.022735044,9.921193E-5,-0.03106308,0.0,0.0,0.0
589.7859,481.44507,78160902,0.7875,0.09574468,0.016054617,0.015406157,0.022735044,9.921193E-5,-0.03106308,0.0,0.0,0.0
589.7859,481.44507,78160922,0.8,0.09574468,0.011951605,0.009588867,0.022735044,9.921193E-5,-0.03106308,0.0,0.0,0.0
589.7859,479.4447,78160955,0.8,0.09574468,0.016931469,-73.43726,0.0021880567,7.9363585E-5,-0.024850845,0.0,0.0,0.0
589.7859,479.6681,78160968,0.7875,0.09574468,0.010415844,-59.295406,0.0021880567,7.9363585E-5,-0.024850845,0.0,0.0,0.0
589.7859,478.33545,78160987,0.7875,0.09574468,-0.054950494,-64.72504,0.0021880567,7.9363585E-5,-0.024850845,0.0,0.0,0.0
589.7859,477.48438,78161005,0.7875,0.09574468,0.01343574,-48.367302,0.0021880567,7.9363585E-5,-0.024850845,0.0,0.0,0.0
589.7859,475.6338,78161022,0.77500004,0.09574468,0.010430423,-93.50168,0.0021880567,7.9363585E-5,-0.024850845,0.0,0.0,0.0
589.7859,473.8357,78161039,0.7875,0.09574468,0.04488156,-120.1008,0.0021880567,7.9363585E-5,-0.024850845,0.0,0.0,0.0
588.96716,471.9933,78161056,0.7875,0.09574468,-21.288942,-133.52939,0.0021880567,7.9363585E-5,-0.024850845,0.0,0.0,0.0
588.7862,470.1344,78161072,0.77500004,0.11702127,-37.321407,-134.45236,0.0021880567,7.9363585E-5,-0.024850845,0.0,0.0,0.0
588.2864,468.25,78161089,0.77500004,0.11702127,-41.517105,-112.34841,0.0021880567,7.9363585E-5,-0.024850845,0.0,0.0,0.0
587.7865,466.3971,78161106,0.77500004,0.12765957,-38.276184,-113.523964,0.0021880567,7.9363585E-5,-0.024850845,0.0,0.0,0.0
587.2867,462.75928,78161122,0.77500004,0.12765957,-29.746098,-164.33049,0.0021880567,7.9363585E-5,-0.024850845,0.0,0.0,0.0
586.7379,459.05847,78161139,0.77500004,0.12765957,-26.518707,-226.60988,0.0021880567,7.9363585E-5,-0.024850845,0.0,0.0,0.0
586.78687,455.3507,78161156,0.77500004,0.11702127,-18.315443,-265.66248,0.0021880567,7.9363585E-5,-0.024850845,0.0,0.0,0.0
586.78687,449.58142,78161173,0.77500004,0.09574468,1.8679826,-323.26553,0.0021880567,7.9363585E-5,-0.024850845,0.0,0.0,0.0
586.78687,441.34753,78161189,0.7625,0.08510638,11.029741,-432.59293,0.0021880567,7.9363585E-5,-0.024850845,0.0,0.0,0.0
586.5866,430.79773,78161206,0.7625,0.08510638,8.922275,-604.72156,0.0021880567,7.9363585E-5,-0.024850845,0.0,0.0,0.0
585.7872,421.94006,78161223,0.77500004,0.11702127,-27.873358,-726.52405,0.0021880567,7.9363585E-5,-0.024850845,0.0,0.0,0.0
585.28735,414.54492,78161239,0.7625,0.12765957,-50.687557,-625.1673,0.0021880567,7.9363585E-5,-0.024850845,0.0,0.0,0.0
584.463,406.28088,78161256,0.7625,0.10638297,-57.092415,-488.90707,0.0021880567,7.9363585E-5,-0.024850845,0.0,0.0,0.0
583.424,396.4696,78161273,0.75,0.08510638,-64.00917,-463.34787,0.0021880567,7.9363585E-5,-0.024850845,0.0,0.0,0.0
582.4827,382.25378,78161290,0.75,0.08510638,-59.67817,-675.1642,0.0021880567,7.9363585E-5,-0.024850845,0.0,0.0,0.0
581.78845,368.4779,78161306,0.75,0.08510638,-67.692924,-908.30743,0.0021880567,7.9363585E-5,-0.024850845,0.0,0.0,0.0
582.2883,356.3617,78161323,0.75,0.12765957,-17.644903,-948.6238,0.0021880567,7.9363585E-5,-0.024850845,0.0,0.0,0.0
583.3337,343.36157,78161340,0.6125,0.09574468,53.400093,-839.94696,0.0021880567,7.9363585E-5,-0.024850845,0.0,0.0,0.0
585.28735,332.1765,78161347,0.26250002,0.09574468,101.80737,-894.7123,0.0021880567,7.9363585E-5,-0.024850845,0.0,0.0,0.0
585.28735,332.1765,78161355,0.26250002,0.09574468,101.80737,-894.7123,0.0021880567,7.9363585E-5,-0.024850845,0.0,0.0,0.0
652.2655,267.3158,78163900,0.52500004,0.07446808,0.0,0.0,-0.015948623,-0.0023291707,0.0067310333,0.0,0.0,0.0
652.2655,267.3158,78163930,0.6375,0.07446808,-0.005786493,-6.528198E-4,-0.015948623,-0.0023291707,0.0067310333,0.0,0.0,0.0
652.2655,267.3158,78163947,0.675,0.07446808,-0.02475606,-0.0075312196,-0.015948623,-0.0023291707,0.0067310333,0.0,0.0,0.0
652.2655,267.3158,78163963,0.7,0.07446808,0.011803306,0.004180805,-0.015948623,-0.0023291707,0.0067310333,0.0,0.0,0.0
652.2655,267.3158,78163980,0.7,0.07446808,-0.010349844,-0.0034432935,-0.015948623,-0.0023291707,0.0067310333,0.0,0.0,0.0
652.2655,267.3158,78163996,0.71250004,0.08510638,-8.9978903E-7,3.2316695E-4,-0.015948623,-0.0023291707,0.0067310333,0.0,0.0,0.0
652.2655,267.3158,78164013,0.725,0.07446808,0.02417537,0.010115046,-0.015948623,-0.0023291707,0.0067310333,0.0,0.0,0.0
632.733,276.78516,78164030,0.725,0.08510638,-468.11426,226.96889,-0.015948623,-0.0023291707,0.0067310333,0.0,0.0,0.0
615.4073,285.43616,78164047,0.7375,0.10638297,-1173.7314,573.5322,-0.015948623,-0.0023291707,0.0067310333,0.0,0.0,0.0
603.2017,292.6493,78164063,0.75,0.11702127,-1436.08,735.96893,-0.015948623,-0.0023291707,0.0067310333,0.0,0.0,0.0
594.4084,301.5244,78164080,0.7625,0.09574468,-1158.1522,725.701,-0.015948623,-0.0023291707,0.0067310333,0.0,0.0,0.0
584.28503,318.41028,78164097,0.7625,0.07446808,-506.72363,787.224,-0.015948623,-0.0023291707,0.0067310333,0.0,0.0,0.0
579.93536,328.8683,78164114,0.77500004,0.08510638,-150.24706,872.3528,-0.015948623,-0.0023291707,0.0067310333,0.0,0.0,0.0
578.7894,334.20813,78164130,0.77500004,0.10638297,-63.295456,720.49725,-0.015948623,-0.0023291707,0.0067310333,0.0,0.0,0.0
579.98895,337.8629,78164147,0.77500004,0.10638297,165.96017,276.49832,0.0032411069,-0.017863363,-0.026615143,0.0,0.0,0.0
585.5078,341.60376,78164164,0.7625,0.12765957,425.82736,-60.278854,0.0032411069,-0.017863363,-0.026615143,0.0,0.0,0.0
597.9719,345.29822,78164180,0.77500004,0.12765957,709.6034,-37.410732,0.0032411069,-0.017863363,-0.026615143,0.0,0.0,0.0
617.9628,348.11096,78164197,0.77500004,0.12765957,1137.5286,107.24994,0.0032411069,-0.017863363,-0.026615143,0.0,0.0,0.0
633.4272,349.9679,78164214,0.7625,0.12765957,1412.4436,131.29477,0.0032411069,-0.017863363,-0.026615143,3.355443E-6,0.0,0.0
651.95734,351.84827,78164231,0.7625,0.12765957,1416.013,91.911575,0.0032411069,-0.017863363,-0.026615143,3.355443E-6,0.0,0.0
671.7728,353.68896,78164247,0.7625,0.12765957,1304.2118,70.74052,0.0032411069,-0.017863363,-0.026615143,3.355443E-6,0.0,0.0
685.97656,355.43286,78164264,0.75,0.11702127,1069.3005,76.34935,0.0032411069,-0.017863363,-0.026615143,3.355443E-6,0.0,0.0
695.87604,357.41565,78164281,0.7625,0.11702127,775.5387,96.67813,0.0032411069,-0.017863363,-0.026615143,0.0,0.0,0.0
703.5405,358.83167,78164297,0.7625,0.08510638,411.72366,104.876945,0.0032411069,-0.017863363,-0.026615143,0.0,0.0,0.0
708.03253,360.18518,78164314,0.7625,0.08510638,122.713585,80.796684,0.0032411069,-0.017863363,-0.026615143,0.0,0.0,0.0
710.3466,362.03027,78164331,0.7875,0.08510638,-13.772376,83.92628,0.0032411069,-0.017863363,-0.026615143,0.0,0.0,0.0
711.58,362.97888,78164348,0.77500004,0.08510638,-78.12866,72.8169,0.0032411069,-0.017863363,-0.026615143,0.0,0.0,0.0
712.6224,366.38916,78164364,0.7875,0.08510638,-95.74476,123.06289,0.0032411069,-0.017863363,-0.026615143,0.0,0.0,0.0
711.0174,370.78918,78164381,0.77500004,0.08510638,-109.358154,223.61397,0.0032411069,-0.017863363,-0.026615143,0.0,0.0,0.0
707.42554,378.12573,78164398,0.7625,0.09574468,-193.622,383.3537,0.0032411069,-0.017863363,-0.026615143,0.0,0.0,0.0
703.7651,381.9182,78164414,0.7875,0.09574468,-308.58322,451.57874,0.0032411069,-0.017863363,-0.026615143,0.0,0.0,0.0
696.4303,388.3966,78164431,0.7625,0.10638297,-444.9094,417.43283,0.0032411069,-0.017863363,-0.026615143,0.0,0.0,0.0
686.98706,393.93774,78164448,0.7875,0.10638297,-592.5421,363.35538,0.0032411069,-0.017863363,-0.026615143,0.0,0.0,0.0
675.5036,399.48303,78164465,0.7875,0.12765957,-740.3104,329.5686,0.0032411069,-0.017863363,-0.026615143,0.0,0.0,0.0
666.6212,404.22803,78164481,0.7875,0.10638297,-755.3377,304.19516,0.0032411069,-0.017863363,-0.026615143,0.0,0.0,0.0
658.868,409.65063,78164498,0.8125,0.09574468,-646.1657,309.75998,0.0032411069,-0.017863363,-0.026615143,0.0,0.0,0.0
653.06146,415.63025,78164515,0.8,0.09574468,-405.53244,328.67603,0.0032411069,-0.017863363,-0.026615143,0.0,0.0,0.0
646.34827,427.60718,78164531,0.7875,0.09574468,-296.2696,532.75696,0.0032411069,-0.017863363,-0.026615143,0.0,0.0,0.0
642.3124,437.187,78164548,0.8125,0.09574468,-248.0439,718.2738,0.0032411069,-0.017863363,-0.026615143,0.0,0.0,0.0
640.9332,443.25378,78164565,0.8,0.11702127,-109.06541,641.7831,0.0032411069,-0.017863363,-0.026615143,0.0,0.0,0.0
641.55774,448.89587,78164581,0.7875,0.12765957,47.708855,426.77988,0.0032411069,-0.017863363,-0.026615143,0.0,0.0,0.0
645.88776,455.22852,78164598,0.8,0.12765957,260.3018,237.02792,0.0032411069,-0.017863363,-0.026615143,0.0,0.0,0.0
657.9378,464.33203,78164615,0.8,0.08510638,600.4829,296.99527,0.0032411069,-0.017863363,-0.026615143,0.0,0.0,0.0
677.66034,474.50757,78164632,0.7875,0.08510638,1133.385,572.94604,0.0032411069,-0.017863363,-0.026615143,0.0,0.0,0.0
694.2527,481.88965,78164648,0.7875,0.09574468,1432.7218,628.7429,0.0032411069,-0.017863363,-0.026615143,0.0,0.0,0.0
711.62036,489.2932,78164665,0.77500004,0.08510638,1433.8384,542.9315,0.0032411069,-0.017863363,-0.026615143,0.0,0.0,0.0
731.048,494.6327,78164682,0.7625,0.08510638,1281.951,367.5224,0.0025928915,0.017709315,-0.0052928925,0.0,0.0,0.0
744.807,499.38123,78164698,0.71250004,0.11702127,1041.1436,228.57442,0.0025928915,0.017709315,-0.0052928925,0.0,0.0,0.0
752.7328,500.9922,78164712,0.3,0.12765957,852.7764,158.24948,0.0025928915,0.017709315,-0.0052928925,0.0,0.0,0.0
752.7328,500.9922,78164719,0.3,0.12765957,852.7764,158.24948,0.0025928915,0.017709315,-0.0052928925,0.0,0.0,0.0
830.2076,443.2395,78165770,0.6625,0.08510638,0.0,0.0,-0.030340552,-0.030266047,-0.03218746,0.0,0.0,0.0
830.2076,443.2395,78165801,0.7,0.08510638,0.019625844,0.010491404,-0.030340552,-0.030266047,-0.03218746,0.0,0.0,0.0
830.2076,443.2395,78165818,0.7375,0.06382979,0.002335183,0.0018614946,-0.030340552,-0.030266047,-0.03218746,0.0,0.0,0.0
830.2076,443.2395,78165835,0.75,0.07446808,-0.0043606623,7.1490934E-4,-0.030340552,-0.030266047,-0.03218746,0.0,0.0,0.0
830.2076,443.2395,78165868,0.7625,0.09574468,-0.025765298,-0.014116501,-0.030340552,-0.030266047,-0.03218746,0.0,0.0,0.0
805.3217,427.71448,78165885,0.7625,0.08510638,-687.74725,-431.4602,-0.030340552,-0.030266047,-0.03218746,0.0,0.0,0.0
792.0021,423.28394,78165902,0.7625,0.08510638,-1414.5605,-762.3235,-0.030340552,-0.030266047,-0.03218746,0.0,0.0,0.0
779.49316,423.28235,78165918,0.77500004,0.08510638,-1330.7611,-450.75467,-0.030340552,-0.030266047,-0.03218746,0.0,0.0,0.0
767.94073,425.68152,78165935,0.77500004,0.09574468,-612.48096,345.03964,-0.030340552,-0.030266047,-0.03218746,0.0,0.0,0.0
758.9712,431.47534,78165952,0.77500004,0.09574468,-485.18246,535.3449,-0.030340552,-0.030266047,-0.03218746,0.0,0.0,0.0
752.5156,438.75818,78165968,0.77500004,0.10638297,-383.46924,591.82263,-0.030340552,-0.030266047,-0.03218746,0.0,0.0,0.0
746.68866,447.0099,78165985,0.77500004,0.12765957,-252.09845,649.6669,-0.030340552,-0.030266047,-0.03218746,0.0,0.0,0.0
739.9231,464.79065,78166002,0.7875,0.08510638,-236.27177,882.9046,-0.030340552,-0.030266047,-0.03218746,0.0,0.0,0.0
739.2458,478.90198,78166018,0.77500004,0.08510638,-147.2495,1086.6055,-0.030340552,-0.030266047,-0.03218746,0.0,0.0,0.0
742.3827,487.1233,78166035,0.7625,0.08510638,105.507095,942.2903,-0.030340552,-0.030266047,-0.03218746,0.0,0.0,0.0
745.4995,492.4204,78166052,0.77500004,0.11702127,337.68948,563.21796,-0.030340552,-0.030266047,-0.03218746,0.0,0.0,0.0
753.9453,497.2682,78166069,0.7625,0.10638297,567.17334,159.1223,-0.030340552,-0.030266047,-0.03218746,0.0,0.0,0.0
770.63525,499.48267,78166085,0.77500004,0.08510638,903.6974,-55.21578,-0.030340552,-0.030266047,-0.03218746,0.0,0.0,0.0
785.9629,496.04663,78166102,0.7625,0.08510638,1154.3777,-163.40411,-0.030340552,-0.030266047,-0.03218746,0.0,0.0,0.0
800.75415,486.09412,78166119,0.75,0.08510638,1255.4095,-508.00067,-0.030340552,-0.030266047,-0.03218746,0.0,0.0,0.0
812.6841,473.64307,78166135,0.7625,0.10638297,995.3314,-919.4264,-0.030340552,-0.030266047,-0.03218746,0.0,0.0,0.0
822.65045,462.74158,78166152,0.75,0.12765957,634.83234,-1075.6733,-0.030340552,-0.030266047,-0.03218746,0.0,0.0,0.0
828.6432,454.9054,78166169,0.7625,0.08510638,381.2218,-844.151,-0.030340552,-0.030266047,-0.03218746,0.0,0.0,0.0
831.0161,449.0802,78166186,0.77500004,0.08510638,115.31325,-455.16724,-0.030340552,-0.030266047,-0.03218746,0.0,0.0,0.0
831.7071,445.1156,78166202,0.75,0.08510638,-98.51979,-189.62506,-0.030340552,-0.030266047,-0.03218746,0.0,0.0,0.0
831.7071,443.27502,78166219,0.7875,0.08510638,-207.4658,-21.202318,-0.030340552,-0.030266047,-0.03218746,0.0,0.0,0.0
831.7071,441.90674,78166233,0.77500004,0.08510638,-200.01903,32.36598,-0.030340552,-0.030266047,-0.03218746,0.0,0.0,0.0
830.64124,444.3634,78166253,0.77500004,0.10638297,-118.02875,141.63914,-0.030340552,-0.030266047,-0.03218746,0.0,0.0,0.0
830.2076,451.11072,78166269,0.77500004,0.12765957,-83.461105,350.72397,-0.030340552,-0.030266047,-0.03218746,0.0,0.0,0.0
830.2076,462.5719,78166286,0.7625,0.08510638,-40.76062,666.37305,0.0077275634,0.02378717,0.0062503815,0.0,0.0,0.0
834.5542,478.23938,78166303,0.7625,0.07446808,108.04509,1012.9367,0.0077275634,0.02378717,0.0062503815,0.0,0.0,0.0
839.99536,486.98828,78166319,0.7375,0.08510638,334.9452,1020.94824,0.0077275634,0.02378717,0.0062503815,0.0,0.0,0.0
848.0444,495.73425,78166336,0.7625,0.10638297,530.2629,733.1182,0.0077275634,0.02378717,0.0062503815,0.0,0.0,0.0
857.16766,501.1588,78166353,0.7375,0.12765957,654.4812,380.5394,0.0077275634,0.02378717,0.0062503815,0.0,0.0,0.0
868.83954,502.20264,78166370,0.71250004,0.10638297,741.112,57.290066,0.0077275634,0.02378717,0.0062503815,0.0,0.0,0.0
878.36316,498.51147,78166386,0.3625,0.08510638,747.05945,-216.64767,0.0077275634,0.02378717,0.0062503815,0.0,0.0,0.0
879.69147,497.43823,78166388,0.16250001,0.06382979,743.0404,-266.3634,0.0077275634,0.02378717,0.0062503815,0.0,0.0,0.0
879.69147,497.43823,78166396,0.16250001,0.06382979,743.0404,-266.3634,0.0077275634,0.02378717,0.0062503815,0.0,0.0,0.0
965.1637,440.57397,78167400,0.58750004,0.07446808,0.0,0.0,-0.030254364,-0.00717625,-0.015199661,0.0,0.0,0.0
965.1637,440.57397,78167423,0.625,0.07446808,0.04630689,0.031230506,-0.030254364,-0.00717625,-0.015199661,0.0,0.0,0.0
965.1637,440.57397,78167437,0.6625,0.08510638,-0.052395083,-0.024784071,-0.030254364,-0.00717625,-0.015199661,0.0,0.0,0.0
965.1637,440.57397,78167456,0.675,0.08510638,0.060085468,0.027242687,-0.030254364,-0.00717625,-0.015199661,0.0,0.0,0.0
965.1637,440.57397,78167473,0.6875,0.08510638,-0.021135079,-0.008723803,-0.030254364,-0.00717625,-0.015199661,0.0,0.0,0.0
965.1637,440.57397,78167489,0.7,0.08510638,0.014991569,0.007350128,-0.030254364,-0.00717625,-0.015199661,0.0,0.0,0.0
965.1637,440.57397,78167506,0.725,0.08510638,-0.009428934,-0.0050779055,-0.030254364,-0.00717625,-0.015199661,0.0,0.0,0.0
965.1637,440.57397,78167522,0.7375,0.08510638,0.04257486,0.01743188,-0.030254364,-0.00717625,-0.015199661,0.0,0.0,0.0
965.1637,440.57397,78167539,0.725,0.09574468,-0.031218372,-0.014972802,-0.030254364,-0.00717625,-0.015199661,0.0,0.0,0.0
965.1637,440.57397,78167550,0.7375,0.09574468,-0.05909785,-0.02407328,-0.030254364,-0.00717625,-0.015199661,0.0,0.0,0.0
965.1637,440.57397,78167573,0.7375,0.08510638,0.03205662,0.014606487,-0.030254364,-0.00717625,-0.015199661,0.0,0.0,0.0
965.1637,440.57397,78167589,0.7625,0.10638297,0.044691216,0.019583939,-0.030254364,-0.00717625,-0.015199661,0.0,0.0,0.0
940.252,424.81506,78167606,0.75,0.08510638,-768.0014,-507.4491,-0.030254364,-0.00717625,-0.015199661,0.0,0.0,0.0
925.6444,422.80396,78167623,0.7625,0.09574468,-1381.3589,-676.1661,-0.030254364,-0.00717625,-0.015199661,0.0,0.0,0.0
915.3819,426.53442,78167639,0.75,0.08510638,-1404.0027,-333.15146,-0.030254364,-0.00717625,-0.015199661,0.0,0.0,0.0
906.0539,434.38306,78167656,0.7625,0.08510638,-943.9163,319.57645,-0.030254364,-0.00717625,-0.015199661,0.0,0.0,0.0
897.2839,446.61914,78167673,0.75,0.12765957,-199.51366,1052.7727,-0.030254364,-0.00717625,-0.015199661,0.0,0.0,0.0
892.2088,462.63452,78167690,0.75,0.09574468,-142.22346,1284.3323,-0.030254364,-0.00717625,-0.015199661,0.0,0.0,0.0
894.8001,477.40613,78167706,0.7375,0.06382979,-9.222346,1207.172,-0.030254364,-0.00717625,-0.015199661,0.0,0.0,0.0
898.8882,486.2483,78167723,0.7375,0.08510638,334.76053,978.85364,-0.030254364,-0.00717625,-0.015199661,0.0,0.0,0.0
909.36,497.69165,78167740,0.7375,0.11702127,715.04346,696.8986,-0.030254364,-0.00717625,-0.015199661,0.0,0.0,0.0
935.81244,506.703,78167756,0.7375,0.12765957,1313.999,463.71155,-0.030254364,-0.00717625,-0.015199661,0.0,0.0,0.0
959.29517,508.10022,78167773,0.7375,0.12765957,1802.3335,225.22513,-0.030254364,-0.00717625,-0.015199661,0.0,0.0,0.0
980.76965,507.70532,78167790,0.725,0.10638297,1941.3198,-48.184887,-0.030254364,-0.00717625,-0.015199661,0.0,0.0,0.0
999.0918,505.85315,78167807,0.725,0.09574468,1600.6536,-301.5779,-0.030254364,-0.00717625,-0.015199661,0.0,0.0,0.0
1005.15063,504.54614,78167819,0.45000002,0.08510638,1182.2677,-401.8536,-0.030254364,-0.00717625,-0.015199661,0.0,0.0,0.0
1005.15063,504.54614,78167826,0.45000002,0.08510638,1182.2677,-401.8536,-0.030254364,-0.00717625,-0.015199661,0.0,0.0,0.0
1066.1307,427.24646,78168936,0.625,0.06382979,0.0,0.0,-0.012962788,-0.020592779,-0.03212738,0.0,0.0,0.0
1066.1307,427.24646,78168960,0.7,0.06382979,-0.058221254,-0.02012807,0.005629778,0.03152579,0.02229786,0.0,0.0,0.0
1066.1307,427.24646,78168968,0.71250004,0.08510638,0.02158476,0.011585453,0.005629778,0.03152579,0.02229786,0.0,0.0,0.0
1066.1307,427.24646,78168989,0.7375,0.08510638,0.069980904,0.028145045,0.005629778,0.03152579,0.02229786,0.0,0.0,0.0
1043.4015,427.24646,78169010,0.725,0.08510638,-887.4891,-0.0018778413,0.005629778,0.03152579,0.02229786,0.0,0.0,0.0
1031.2887,430.73535,78169026,0.7375,0.09574468,-1056.0361,95.38848,0.005629778,0.03152579,0.02229786,0.0,0.0,0.0
1013.5156,438.57825,78169043,0.725,0.08510638,-1216.8969,375.6805,0.005629778,0.03152579,0.02229786,0.0,0.0,0.0
993.8296,448.56592,78169060,0.7375,0.10638297,-1302.8052,641.5956,0.005629778,0.03152579,0.02229786,0.0,0.0,0.0
981.4448,457.22424,78169077,0.725,0.11702127,-1052.177,787.18896,0.005629778,0.03152579,0.02229786,0.0,0.0,0.0
970.5272,469.16565,78169093,0.7375,0.07446808,-823.94635,782.11957,0.005629778,0.03152579,0.02229786,0.0,0.0,0.0
961.1344,486.1305,78169110,0.7375,0.08510638,-527.406,904.98303,0.005629778,0.03152579,0.02229786,0.0,0.0,0.0
957.98254,494.5359,78169127,0.7375,0.10638297,-181.18875,871.78345,0.005629778,0.03152579,0.02229786,0.0,0.0,0.0
959.44885,500.85876,78169143,0.725,0.12765957,104.03772,635.4054,0.005629778,0.03152579,0.02229786,0.0,0.0,0.0
964.3893,505.6349,78169160,0.725,0.12765957,371.52667,301.5097,0.005629778,0.03152579,0.02229786,0.0,0.0,0.0
982.8185,512.7632,78169177,0.7375,0.12765957,921.51105,140.42834,0.005629778,0.03152579,0.02229786,0.0,0.0,0.0
1004.3397,515.20825,78169194,0.7375,0.12765957,1535.8324,157.74338,0.005629778,0.03152579,0.02229786,0.0,0.0,0.0
1022.82227,515.71936,78169210,0.7375,0.12765957,1729.0995,89.181496,0.005629778,0.03152579,0.02229786,0.0,0.0,0.0
1039.0647,517.5217,78169227,0.7375,0.10638297,1483.6692,-27.7619,0.005629778,0.03152579,0.02229786,0.0,0.0,0.0
1051.2588,519.3789,78169244,0.75,0.09574468,924.2503,-57.486626,0.005629778,0.03152579,0.02229786,0.0,0.0,0.0
1057.1808,521.22656,78169260,0.7375,0.08510638,398.67322,60.52006,0.005629778,0.03152579,0.02229786,0.0,0.0,0.0
1059.0797,523.10986,78169277,0.7375,0.08510638,29.397318,142.99489,0.005629778,0.03152579,0.02229786,0.0,0.0,0.0
1058.1558,529.3447,78169294,0.7375,0.06382979,-260.06085,223.84402,0.005629778,0.03152579,0.02229786,3.355443E-6,0.0,0.0
1049.7999,537.7195,78169310,0.7375,0.08510638,-549.6637,442.14008,0.005629778,0.03152579,0.02229786,3.355443E-6,0.0,0.0
1029.703,551.5625,78169327,0.7375,0.10638297,-1069.441,778.41583,0.005629778,0.03152579,0.02229786,3.355443E-6,0.0,0.0
998.64746,563.4038,78169344,0.7625,0.12765957,-1847.1501,968.0535,0.005629778,0.03152579,0.02229786,3.355443E-6,0.0,0.0
967.1631,574.73804,78169360,0.75,0.10638297,-2295.99,907.3452,0.005629778,0.03152579,0.02229786,3.355443E-6,0.0,0.0
937.5945,584.89465,78169377,0.75,0.07446808,-2486.0583,751.00726,0.005629778,0.03152579,0.02229786,3.355443E-6,0.0,0.0
915.4547,594.08875,78169394,0.7375,0.07446808,-1923.6364,560.8648,0.005629778,0.03152579,0.02229786,3.355443E-6,0.0,0.0
897.8327,598.3093,78169411,0.6875,0.06382979,-1326.7128,418.56058,0.005629778,0.03152579,0.02229786,3.355443E-6,0.0,0.0
886.1894,596.062,78169423,0.2125,0.08510638,-959.2118,176.46307,0.005629778,0.03152579,0.02229786,-3.183252E-5,-1.0610839E-5,0.0
886.1894,596.062,78169430,0.2125,0.08510638,-959.2118,176.46307,0.005629778,0.03152579,0.02229786,-3.183252E-5,-1.0610839E-5,0.0
