x,y,timestamp,pressure,fingerarea,velocityx,velocityy,accelx,accely,accelz,gyrox,gyroy,gyroz
354.3625,205.1206,78739225,1.1125001,0.08510638,0.0,0.0,0.0056131557,-0.006005764,-0.037216187,0.0011792959,0.0,0.0
354.3625,205.1206,78739254,1.025,0.08510638,0.028936144,0.018800262,0.0056131557,-0.006005764,-0.037216187,0.0011792959,0.0,0.0
361.05573,236.9834,78739271,0.8125,0.10638297,448.01025,2173.369,0.0056131557,-0.006005764,-0.037216187,0.0011725331,-0.0010259665,0.0
377.10025,287.0398,78739287,0.7875,0.09574468,1015.4165,3674.63,0.0056131557,-0.006005764,-0.037216187,0.0011725331,-0.0010259665,0.0
402.6063,344.47876,78739304,0.7625,0.06382979,1581.5985,4402.0913,0.0056131557,-0.006005764,-0.037216187,0.0011725331,-0.0010259665,0.0
423.0119,382.2379,78739321,0.71250004,0.08510638,1863.2152,4312.9307,0.0056131557,-0.006005764,-0.037216187,0.0011725331,-0.0010259665,0.0
449.44147,426.75098,78739337,0.71250004,0.06382979,1967.1244,3446.3818,0.0056131557,-0.006005764,-0.037216187,0.0011725331,-0.0010259665,0.0
474.91608,476.31702,78739354,0.725,0.08510638,1813.1556,2706.685,0.0056131557,-0.006005764,-0.037216187,-3.8110412E-4,1.9055206E-4,0.0
489.7273,503.57275,78739371,0.75,0.10638297,1294.0585,2038.3231,0.0056131557,-0.006005764,-0.037216187,-3.8110412E-4,1.9055206E-4,0.0
500.01996,530.10156,78739387,0.725,0.06382979,772.2589,1618.7955,0.0056131557,-0.006005764,-0.037216187,-3.8110412E-4,1.9055206E-4,0.0
504.825,544.5698,78739404,0.7,0.08510638,243.77989,934.37756,0.0056131557,-0.006005764,-0.037216187,-3.8110412E-4,1.9055206E-4,0.0
510.2583,563.33386,78739421,0.65000004,0.10638297,-99.05066,400.9024,0.0056131557,-0.006005764,-0.037216187,-0.0,-0.0,0.0
515.3101,579.1804,78739428,0.375,0.07446808,-73.666985,521.0296,0.0056131557,-0.006005764,-0.037216187,-0.0,-0.0,0.0
515.3101,579.1804,78739434,0.375,0.07446808,-73.666985,521.0296,0.0056131557,-0.006005764,-0.037216187,-0.0,-0.0,0.0
140.43214,255.76526,78739635,1.0875,0.08510638,0.0,0.0,-0.45950946,0.33119535,-0.21377277,0.008872918,0.0019288952,0.0
140.43214,255.76526,78739655,1.0375,0.11702127,-0.023467962,-0.043745965,-0.45950946,0.33119535,-0.21377277,0.008872918,0.0019288952,0.0
147.6382,249.58142,78739672,0.925,0.12765957,504.75885,-433.1449,-0.45950946,0.33119535,-0.21377277,0.0024700912,-0.004631421,0.0
182.07495,225.04395,78739688,0.85,0.08510638,2271.6233,-1702.7932,-0.45950946,0.33119535,-0.21377277,0.0024700912,-0.004631421,0.0
228.70172,198.62268,78739705,0.83750004,0.08510638,3390.9453,-2153.9395,-0.45950946,0.33119535,-0.21377277,0.0024700912,-0.004631421,0.0
279.64758,173.03503,78739722,0.8,0.10638297,3994.344,-2228.422,-0.45950946,0.33119535,-0.21377277,0.0024700912,-0.004631421,0.0
330.04425,145.46997,78739738,0.7875,0.08510638,3964.4617,-2006.9854,-0.45950946,0.33119535,-0.21377277,-6.6025637E-4,0.0017331729,0.0
384.01227,117.4834,78739755,0.77500004,0.11702127,3783.2925,-1832.7308,-0.45950946,0.33119535,-0.21377277,-6.6025637E-4,0.0017331729,0.0
432.02222,95.96033,78739772,0.75,0.08510638,3299.3896,-1583.9341,-0.45950946,0.33119535,-0.21377277,-6.6025637E-4,0.0017331729,0.0
481.28625,79.225464,78739789,0.71250004,0.12765957,2987.726,-1179.9639,-0.45950946,0.33119535,-0.21377277,-6.6025637E-4,0.0017331729,0.0
527.15015,69.5022,78739805,0.6875,0.11702127,2811.8606,-671.13873,-0.45950946,0.33119535,-0.21377277,2.86708E-4,4.0958283E-4,0.0
548.96466,70.956665,78739822,0.275,0.12765957,2095.6196,32.595146,-0.45950946,0.33119535,-0.21377277,2.86708E-4,4.0958283E-4,0.0
548.96466,70.956665,78739828,0.275,0.12765957,2095.6196,32.595146,-0.45950946,0.33119535,-0.21377277,2.86708E-4,4.0958283E-4,0.0
660.76276,445.01648,78740127,0.725,0.08510638,0.0,0.0,-0.45950946,0.33119535,-0.21377277,-5.1541644E-4,-3.2799228E-4,0.0
660.76276,445.01648,78740156,0.85,0.08510638,0.020055786,0.012184314,0.2643924,-0.11904383,0.24498177,4.5205047E-4,-8.219099E-5,0.0
660.76276,445.01648,78740173,0.8875,0.08510638,-6.3939946E-4,-0.0013352557,0.2643924,-0.11904383,0.24498177,4.5205047E-4,-8.219099E-5,0.0
660.76276,445.01648,78740179,0.875,0.08510638,-0.009029992,-0.008280197,0.2643924,-0.11904383,0.24498177,4.5205047E-4,-8.219099E-5,0.0
634.6268,436.22095,78740206,0.83750004,0.07446808,-978.3523,-356.317,0.2643924,-0.11904383,0.24498177,0.002372542,0.0015816946,0.0
614.9456,441.39148,78740223,0.8,0.08510638,-1343.9711,-192.84431,0.2643924,-0.11904383,0.24498177,0.002372542,0.0015816946,0.0
591.30096,457.83813,78740240,0.8125,0.10638297,-1746.1582,587.12524,0.2643924,-0.11904383,0.24498177,0.002372542,0.0015816946,0.0
578.49457,472.6991,78740256,0.8125,0.06382979,-1440.2888,1226.6082,0.2643924,-0.11904383,0.24498177,0.002372542,0.0015816946,0.0
569.0398,490.97046,78740273,0.8125,0.09574468,-890.8197,1542.7349,0.2643924,-0.11904383,0.24498177,-9.63777E-5,-3.855108E-5,0.0
565.3774,501.58337,78740290,0.8125,0.10638297,-158.35794,1119.5652,0.2643924,-0.11904383,0.24498177,-9.63777E-5,-3.855108E-5,0.0
566.47076,511.76758,78740307,0.7875,0.09574468,256.99808,753.6128,0.2643924,-0.11904383,0.24498177,-9.63777E-5,-3.855108E-5,0.0
569.8701,515.52136,78740323,0.75,0.08510638,427.3952,278.5464,0.2643924,-0.11904383,0.24498177,-9.63777E-5,-3.855108E-5,0.0
585.5955,520.14636,78740340,0.725,0.09574468,777.0962,43.218716,0.2643924,-0.11904383,0.24498177,-3.4047232E-4,2.8372693E-4,0.0
614.4322,518.5685,78740357,0.7875,0.09574468,1584.0164,-56.410275,0.2643924,-0.11904383,0.24498177,-3.4047232E-4,2.8372693E-4,0.0
635.9307,507.51282,78740373,0.8,0.11702127,2068.218,-501.86554,0.2643924,-0.11904383,0.24498177,-3.4047232E-4,2.8372693E-4,0.0
649.4491,494.48535,78740390,0.8125,0.07446808,1774.5852,-976.31946,0.2643924,-0.11904383,0.24498177,-3.4047232E-4,2.8372693E-4,0.0
656.36993,483.92273,78740407,0.8125,0.06382979,849.7798,-1168.803,0.2643924,-0.11904383,0.24498177,-0.0014855767,-0.0013205127,0.0
660.64795,476.31824,78740424,0.825,0.09574468,-13.818673,-939.57135,0.2643924,-0.11904383,0.24498177,-0.0014855767,-0.0013205127,0.0
662.2642,472.5531,78740440,0.875,0.09574468,-247.96863,-372.33115,0.2643924,-0.11904383,0.24498177,-0.0014855767,-0.0013205127,0.0
662.8046,470.7074,78740457,0.925,0.08510638,-238.35202,-26.842567,0.2643924,-0.11904383,0.24498177,-0.0014855767,-0.0013205127,0.0
663.3449,472.85486,78740474,0.825,0.06382979,-166.04193,196.73659,0.2643924,-0.11904383,0.24498177,-0.0,-0.0,0.0
664.38,479.62183,78740490,0.71250004,0.06382979,-69.55822,435.17645,0.2643924,-0.11904383,0.24498177,-0.0,-0.0,0.0
667.7517,491.18762,78740507,0.675,0.08510638,73.48307,732.2182,0.2643924,-0.11904383,0.24498177,-0.0,-0.0,0.0
674.548,498.31653,78740524,0.675,0.10638297,285.60587,817.57733,0.2643924,-0.11904383,0.24498177,-0.0,-0.0,0.0
686.8282,504.5094,78740541,0.7,0.12765957,633.14374,655.22174,0.2643924,-0.11904383,0.24498177,0.0017919206,0.0011647484,0.0
702.82874,503.55115,78740557,0.7625,0.10638297,1042.4249,209.55235,0.2643924,-0.11904383,0.24498177,0.0017919206,0.0011647484,0.0
713.3032,494.9181,78740574,0.7875,0.06382979,1103.6982,-386.2049,0.2643924,-0.11904383,0.24498177,0.0017919206,0.0011647484,0.0
722.70447,478.4558,78740591,0.8,0.08510638,833.54614,-988.46344,0.2643924,-0.11904383,0.24498177,0.0017919206,0.0011647484,0.0
728.5242,447.2793,78740607,0.8,0.09574468,452.438,-1791.2972,0.2643924,-0.11904383,0.24498177,3.889984E-4,2.4312398E-4,0.0
718.74445,388.37708,78740624,0.7875,0.10638297,-176.95428,-2990.4995,0.2643924,-0.11904383,0.24498177,3.889984E-4,2.4312398E-4,0.0
693.2505,314.73145,78740641,0.7375,0.11702127,-1174.2808,-4704.4233,0.2643924,-0.11904383,0.24498177,3.889984E-4,2.4312398E-4,0.0
675.0905,275.97754,78740658,0.4625,0.06382979,-1917.088,-4743.881,0.2643924,-0.11904383,0.24498177,3.889984E-4,2.4312398E-4,0.0
657.50775,255.3783,78740674,0.6125,0.12765957,-1863.3403,-2893.8345,-0.25248608,-0.031234741,0.14798546,1.4219992E-4,-0.0012797993,0.0
640.19293,240.39563,78740691,0.90000004,0.10638297,-1394.4369,-739.42847,-0.25248608,-0.031234741,0.14798546,1.4219992E-4,-0.0012797993,0.0
623.1949,235.75623,78740708,0.85,0.09574468,-962.9912,720.1987,-0.25248608,-0.031234741,0.14798546,1.4219992E-4,-0.0012797993,0.0
607.7215,234.44116,78740724,0.825,0.12765957,-865.0065,864.1073,-0.25248608,-0.031234741,0.14798546,1.4219992E-4,-0.0012797993,0.0
598.76764,236.6029,78740741,0.825,0.12765957,-771.2512,577.66907,-0.25248608,-0.031234741,0.14798546,0.0050540203,-0.0016846734,0.0
594.32526,238.4032,78740758,0.825,0.12765957,-296.78436,526.08636,-0.25248608,-0.031234741,0.14798546,0.0050540203,-0.0016846734,0.0
593.2847,242.09155,78740775,0.83750004,0.11702127,68.22676,379.88403,-0.25248608,-0.031234741,0.14798546,0.0050540203,-0.0016846734,0.0
597.91,249.7976,78740791,0.7875,0.08510638,381.06854,421.911,-0.25248608,-0.031234741,0.14798546,0.0050540203,-0.0016846734,0.0
622.2671,265.8302,78740808,0.725,0.06382979,1016.19257,728.5405,-0.25248608,-0.031234741,0.14798546,0.0044270093,0.0033202572,0.0
664.26135,281.7959,78740825,0.725,0.08510638,2255.6345,1152.9194,-0.25248608,-0.031234741,0.14798546,0.0044270093,0.0033202572,0.0
711.46844,296.60657,78740841,0.6875,0.12765957,3404.6316,1273.8341,-0.25248608,-0.031234741,0.14798546,0.0044270093,0.0033202572,0.0
752.0222,309.01587,78740858,0.675,0.08510638,3767.5825,1096.682,-0.25248608,-0.031234741,0.14798546,0.0044270093,0.0033202572,0.0
775.3638,316.41028,78740875,0.7,0.053191487,2688.9988,643.69556,-0.25248608,-0.031234741,0.14798546,-0.0014235819,-7.11791E-5,0.0
791.25714,323.78284,78740891,0.71250004,0.07446808,1270.4745,328.2792,-0.25248608,-0.031234741,0.14798546,-0.0014235819,-7.11791E-5,0.0
798.99915,329.21765,78740908,0.7,0.09574468,178.67653,207.5085,-0.25248608,-0.031234741,0.14798546,-0.0014235819,-7.11791E-5,0.0
802.3588,341.04443,78740925,0.7,0.12765957,-367.42703,285.92273,-0.25248608,-0.031234741,0.14798546,-0.0014235819,-7.11791E-5,0.0
797.80884,370.64978,78740942,0.65000004,0.07446808,-583.23016,1064.3383,-0.25248608,-0.031234741,0.14798546,-0.0028346337,-9.448779E-4,0.0
781.50366,404.28467,78740958,0.6875,0.10638297,-990.06946,2160.5623,-0.25248608,-0.031234741,0.14798546,-0.0028346337,-9.448779E-4,0.0
770.1388,425.5741,78740975,0.675,0.07446808,-1319.6904,2440.6475,-0.25248608,-0.031234741,0.14798546,-0.0028346337,-9.448779E-4,0.0
762.9251,441.19202,78740992,0.7,0.11702127,-1090.316,1615.8394,-0.25248608,-0.031234741,0.14798546,-0.0028346337,-9.448779E-4,0.0
760.23035,455.75745,78741008,0.7,0.11702127,-500.524,670.4531,-0.25248608,-0.031234741,0.14798546,-0.0,-0.0,0.0
761.8982,462.19714,78741025,0.6875,0.08510638,156.87738,182.14427,-0.25248608,-0.031234741,0.14798546,-0.0,-0.0,0.0
783.9848,468.53955,78741042,0.65000004,0.053191487,827.99304,50.718296,-0.25248608,-0.031234741,0.14798546,-0.0,-0.0,0.0
813.1928,463.16162,78741059,0.6375,0.11702127,1814.7175,-126.8937,-0.25248608,-0.031234741,0.14798546,-0.0,-0.0,0.0
814.21277,462.7865,78741059,0.3375,0.12765957,1884.4773,-182.46857,-0.25248608,-0.031234741,0.14798546,-0.0,-0.0,0.0
814.21277,462.7865,78741067,0.3375,0.12765957,1884.4773,-182.46857,-0.25248608,-0.031234741,0.14798546,-0.0,-0.0,0.0
899.1851,342.83862,78741252,0.875,0.10638297,0.0,0.0,0.55001116,-0.24098778,0.20638752,-5.337133E-4,-6.40456E-4,0.0
899.1851,342.83862,78741276,0.9125,0.10638297,-0.08190605,-0.029290615,0.55001116,-0.24098778,0.20638752,1.0133205E-4,-1.0133205E-4,0.0
899.1851,342.83862,78741293,0.875,0.09574468,0.04772152,0.020090941,0.55001116,-0.24098778,0.20638752,1.0133205E-4,-1.0133205E-4,0.0
899.1851,342.83862,78741309,0.8125,0.09574468,-0.011103223,-0.0036085078,0.55001116,-0.24098778,0.20638752,1.0133205E-4,-1.0133205E-4,0.0
875.7524,348.71814,78741326,0.75,0.12765957,-984.89667,236.15851,0.55001116,-0.24098778,0.20638752,1.0133205E-4,-1.0133205E-4,0.0
861.13715,357.57434,78741343,0.77500004,0.08510638,-1285.8287,476.3793,0.55001116,-0.24098778,0.20638752,-3.321713E-5,2.9895417E-4,0.0
852.5729,365.9702,78741359,0.77500004,0.06382979,-1217.9165,680.55164,0.55001116,-0.24098778,0.20638752,-3.321713E-5,2.9895417E-4,0.0
846.15375,377.4336,78741376,0.77500004,0.06382979,-819.70074,795.98724,0.55001116,-0.24098778,0.20638752,-3.321713E-5,2.9895417E-4,0.0
842.7065,389.0249,78741393,0.7625,0.10638297,-70.36031,833.24243,0.55001116,-0.24098778,0.20638752,-3.321713E-5,2.9895417E-4,0.0
842.9844,401.8097,78741410,0.7375,0.09574468,93.911896,854.9932,0.55001116,-0.24098778,0.20638752,-3.4827084E-4,-1.5478703E-4,0.0
845.68,409.74585,78741426,0.7,0.08510638,272.41293,742.2348,0.55001116,-0.24098778,0.20638752,-3.4827084E-4,-1.5478703E-4,0.0
854.25745,414.27637,78741443,0.7,0.08510638,508.78442,396.1945,0.55001116,-0.24098778,0.20638752,-3.4827084E-4,-1.5478703E-4,0.0
869.2252,415.0083,78741460,0.7625,0.08510638,906.7396,28.688818,0.55001116,-0.24098778,0.20638752,-3.4827084E-4,-1.5478703E-4,0.0
883.9482,409.02734,78741476,0.8,0.10638297,1191.1244,-344.12302,0.55001116,-0.24098778,0.20638752,-1.8304792E-4,-4.576198E-5,0.0
895.5792,399.80664,78741493,0.77500004,0.09574468,1170.5354,-700.55206,0.55001116,-0.24098778,0.20638752,-1.8304792E-4,-4.576198E-5,0.0
902.89624,391.4369,78741510,0.7625,0.08510638,762.06464,-824.77563,0.55001116,-0.24098778,0.20638752,-1.8304792E-4,-4.576198E-5,0.0
906.95325,385.00586,78741526,0.7625,0.08510638,290.49063,-736.2107,0.55001116,-0.24098778,0.20638752,-1.8304792E-4,-4.576198E-5,0.0
909.9031,380.65088,78741543,0.8125,0.08510638,17.540394,-458.61337,0.55001116,-0.24098778,0.20638752,-0.0,-0.0,0.0
910.82605,379.01,78741560,0.8875,0.08510638,-97.796135,-155.67384,0.55001116,-0.24098778,0.20638752,-0.0,-0.0,0.0
910.6814,378.37878,78741577,0.925,0.08510638,-140.29854,40.14845,0.55001116,-0.24098778,0.20638752,-0.0,-0.0,0.0
910.6814,380.95007,78741593,0.925,0.09574468,-111.32599,195.136,0.55001116,-0.24098778,0.20638752,-0.0,-0.0,0.0
910.6814,384.65662,78741610,0.8625,0.09574468,-83.09044,316.50446,0.55001116,-0.24098778,0.20638752,-2.4997382E-4,-6.999267E-4,0.0
910.98883,388.3568,78741627,0.7875,0.11702127,-23.821287,355.85144,0.55001116,-0.24098778,0.20638752,-2.4997382E-4,-6.999267E-4,0.0
912.87305,392.0481,78741643,0.71250004,0.12765957,55.00265,341.47565,0.55001116,-0.24098778,0.20638752,-2.4997382E-4,-6.999267E-4,0.0
921.3133,399.58093,78741660,0.675,0.12765957,276.8035,360.15027,0.55001116,-0.24098778,0.20638752,-2.4997382E-4,-6.999267E-4,0.0
935.17474,407.2898,78741677,0.6625,0.09574468,719.7543,489.1147,0.55001116,-0.24098778,0.20638752,0.0036981876,0.007564475,0.0
948.2725,409.47632,78741694,0.71250004,0.09574468,1066.5895,444.6707,0.55001116,-0.24098778,0.20638752,0.0036981876,0.007564475,0.0
956.69116,407.69385,78741710,0.725,0.12765957,960.03754,90.114235,0.55001116,-0.24098778,0.20638752,0.0036981876,0.007564475,0.0
966.1786,401.0636,78741727,0.71250004,0.11702127,684.24744,-350.36502,0.55001116,-0.24098778,0.20638752,0.0036981876,0.007564475,0.0
973.6609,391.7063,78741742,0.3125,0.08510638,488.01572,-731.8074,0.048008934,-0.056789875,0.4771099,-0.008913682,-0.0058792373,0.0
973.6609,391.7063,78741750,0.3125,0.08510638,488.01572,-731.8074,0.048008934,-0.056789875,0.4771099,-0.008913682,-0.0058792373,0.0
995.6537,309.07544,78741879,0.9125,0.08510638,0.0,0.0,0.048008934,-0.056789875,0.4771099,1.5558522E-4,-1.5558522E-4,0.0
995.6537,309.07544,78741911,0.90000004,0.08510638,-0.00645884,-0.0013009708,0.048008934,-0.056789875,0.4771099,1.5558522E-4,-1.5558522E-4,0.0
995.6537,309.07544,78741928,0.77500004,0.08510638,0.034803838,0.009972695,0.048008934,-0.056789875,0.4771099,1.5558522E-4,-1.5558522E-4,0.0
977.728,321.41016,78741944,0.725,0.08510638,-729.37213,501.88016,0.048008934,-0.056789875,0.4771099,1.874221E-4,0.0024364875,0.0
971.5167,328.49805,78741961,0.71250004,0.10638297,-947.3381,748.9024,0.048008934,-0.056789875,0.4771099,1.874221E-4,0.0024364875,0.0
964.7731,343.80164,78741978,0.71250004,0.12765957,-866.6662,980.4946,0.048008934,-0.056789875,0.4771099,1.874221E-4,0.0024364875,0.0
963.6642,358.63672,78741994,0.6875,0.07446808,-441.0731,1168.138,0.048008934,-0.056789875,0.4771099,1.874221E-4,0.0024364875,0.0
966.8085,367.59277,78742011,0.6375,0.08510638,80.143,1007.29535,0.048008934,-0.056789875,0.4771099,-4.639485E-4,-2.530628E-4,0.0
977.9634,377.36353,78742028,0.6375,0.07446808,719.54474,568.7695,0.048008934,-0.056789875,0.4771099,-4.639485E-4,-2.530628E-4,0.0
1001.84045,388.64233,78742045,0.65000004,0.09574468,1322.0321,516.7625,0.048008934,-0.056789875,0.4771099,-4.639485E-4,-2.530628E-4,0.0
1036.153,385.82068,78742061,0.475,0.08510638,2161.578,199.80815,0.048008934,-0.056789875,0.4771099,-4.639485E-4,-2.530628E-4,0.0
1044.6378,383.70972,78742072,0.175,0.06382979,2304.9934,-73.5105,0.048008934,-0.056789875,0.4771099,-0.0,-0.0,0.0
1044.6378,383.70972,78742079,0.175,0.06382979,2304.9934,-73.5105,0.048008934,-0.056789875,0.4771099,-0.0,-0.0,0.0
1017.6466,285.97437,78742217,0.83750004,0.11702127,0.0,0.0,0.048008934,-0.056789875,0.4771099,3.036993E-4,3.036993E-4,0.0
1017.6466,285.97437,78742245,0.825,0.10638297,-0.034552112,-0.009564577,0.048008934,-0.056789875,0.4771099,3.036993E-4,3.036993E-4,0.0
1017.6466,285.97437,78742262,0.77500004,0.12765957,-0.02232998,-0.006067324,0.048008934,-0.056789875,0.4771099,3.036993E-4,3.036993E-4,0.0
1032.3102,300.86914,78742278,0.6875,0.12765957,547.84924,556.46893,0.09440714,-0.02943182,-0.5863123,2.86708E-4,3.276663E-4,0.0
1070.3811,323.7743,78742295,0.6875,0.06382979,1949.3131,1509.8552,0.09440714,-0.02943182,-0.5863123,2.86708E-4,3.276663E-4,0.0
1101.2028,331.78357,78742312,0.71250004,0.08510638,2676.0256,1498.1824,0.09440714,-0.02943182,-0.5863123,2.86708E-4,3.276663E-4,0.0
1122.385,335.60132,78742329,0.725,0.08510638,2680.4495,981.5715,0.09440714,-0.02943182,-0.5863123,2.86708E-4,3.276663E-4,0.0
1133.1289,338.40112,78742345,0.725,0.11702127,1480.0352,140.75616,0.09440714,-0.02943182,-0.5863123,0.0014259162,0.005846257,0.0
1134.6543,339.28455,78742362,0.77500004,0.12765957,82.06346,-359.99994,0.09440714,-0.02943182,-0.5863123,0.0014259162,0.005846257,0.0
1134.0663,340.2484,78742379,0.75,0.12765957,-582.99255,-203.0092,0.09440714,-0.02943182,-0.5863123,0.0014259162,0.005846257,0.0
1110.6572,358.90002,78742395,0.65000004,0.08510638,-1168.3147,359.8769,0.09440714,-0.02943182,-0.5863123,0.0014259162,0.005846257,0.0
1082.368,374.59094,78742412,0.32500002,0.07446808,-1996.219,1002.2762,0.09440714,-0.02943182,-0.5863123,-1.2821042E-4,-0.001217999,0.0
1073.1285,377.49023,78742418,0.1875,0.06382979,-2224.732,1166.258,0.09440714,-0.02943182,-0.5863123,-1.2821042E-4,-0.001217999,0.0
1073.1285,377.49023,78742425,0.1875,0.06382979,-2224.732,1166.258,0.09440714,-0.02943182,-0.5863123,-1.2821042E-4,-0.001217999,0.0
