x,y,timestamp,pressure,fingerarea,velocityx,velocityy,accelx,accely,accelz,gyrox,gyroy,gyroz
380.85388,204.23206,78347558,0.7,0.08510638,0.0,0.0,0.02833128,0.015738845,0.04292965,0.0,0.0,0.0
380.85388,204.23206,78347575,0.725,0.08510638,0.0068111154,0.002314075,0.02833128,0.015738845,0.04292965,0.0,0.0,0.0
380.85388,204.23206,78347592,0.77500004,0.08510638,-0.018873041,-0.010883008,0.02833128,0.015738845,0.04292965,0.0,0.0,0.0
380.85388,204.23206,78347609,0.7875,0.08510638,-0.023591276,-0.011349841,0.02833128,0.015738845,0.04292965,0.0,0.0,0.0
380.85388,204.23206,78347625,0.7875,0.07446808,-0.026245866,-0.01373749,0.02833128,0.015738845,0.04292965,0.0,0.0,0.0
380.85388,204.23206,78347642,0.7875,0.08510638,0.0034875702,0.0018751733,0.02833128,0.015738845,0.04292965,0.0,0.0,0.0
381.17606,225.43823,78347659,0.7875,0.10638297,6.265219,647.0324,0.02833128,0.015738845,0.04292965,0.0,0.0,0.0
381.35373,237.38623,78347675,0.77500004,0.12765957,19.979174,1205.0054,0.02833128,0.015738845,0.04292965,0.0,0.0,0.0
380.94934,250.854,78347692,0.7875,0.08510638,8.280518,1293.1462,0.02833128,0.015738845,0.04292965,0.0,0.0,0.0
380.85388,267.38147,78347709,0.7875,0.08510638,-13.918911,1203.6157,0.02833128,0.015738845,0.04292965,0.0,0.0,0.0
380.37842,280.3833,78347726,0.8125,0.10638297,-29.649935,917.29114,0.02833128,0.015738845,0.04292965,0.0,0.0,0.0
380.35403,295.14465,78347742,0.7875,0.10638297,-28.294846,813.67053,0.02833128,0.015738845,0.04292965,0.0,0.0,0.0
380.35403,313.98352,78347759,0.8125,0.07446808,-6.705074,981.25806,0.02833128,0.015738845,0.04292965,0.0,0.0,0.0
380.35403,331.838,78347776,0.8125,0.10638297,4.923968,1101.0497,0.02833128,0.015738845,0.04292965,0.0,0.0,0.0
381.50317,349.04895,78347792,0.8125,0.10638297,37.187145,1149.4353,0.02833128,0.015738845,0.04292965,0.0,0.0,0.0
381.85355,372.21204,78347809,0.8,0.08510638,58.94473,1278.64,0.02833128,0.015738845,0.04292965,0.0,0.0,0.0
382.3534,390.16064,78347826,0.8,0.12765957,51.156277,1279.7544,0.02833128,0.015738845,0.04292965,0.0,0.0,0.0
383.09015,407.88965,78347842,0.8,0.08510638,39.67465,1176.6637,0.02833128,0.015738845,0.04292965,0.0,0.0,0.0
382.85324,432.15552,78347859,0.8,0.07446808,11.488521,1288.3258,0.02833128,0.015738845,0.04292965,0.0,0.0,0.0
382.85324,448.44006,78347876,0.7875,0.12765957,-6.7716193,1162.773,0.02833128,0.015738845,0.04292965,0.0,0.0,0.0
383.6075,464.37756,78347893,0.8,0.08510638,-2.6783795,1029.4849,0.02833128,0.015738845,0.04292965,0.0,0.0,0.0
384.26318,481.94824,78347909,0.7875,0.07446808,25.549944,950.20654,0.02833128,0.015738845,0.04292965,0.0,0.0,0.0
385.35242,495.1825,78347926,0.7875,0.09574468,73.18195,795.9417,0.02833128,0.015738845,0.04292965,0.0,0.0,0.0
387.848,506.31042,78347943,0.75,0.10638297,124.07674,681.7444,0.02833128,0.015738845,0.04292965,0.0,0.0,0.0
388.35144,508.98877,78347951,0.4375,0.08510638,135.1439,608.25586,0.02833128,0.015738845,0.04292965,0.0,0.0,0.0
388.35144,508.98877,78347958,0.4375,0.08510638,135.1439,608.25586,0.02833128,0.015738845,0.04292965,0.0,0.0,0.0
345.86526,255.76526,78349935,0.725,0.08510638,0.0,0.0,0.009812504,-0.011857361,0.056879997,0.0,0.0,0.0
345.86526,255.76526,78349962,0.77500004,0.09574468,0.026954846,0.017348079,0.009812504,-0.011857361,0.056879997,0.0,0.0,0.0
345.86526,255.76526,78349981,0.8,0.09574468,-0.0077879447,-0.004606177,0.009812504,-0.011857361,0.056879997,0.0,0.0,0.0
345.86526,255.76526,78349998,0.77500004,0.10638297,-0.0062377616,-0.0050011044,0.009812504,-0.011857361,0.056879997,0.0,0.0,0.0
345.86526,255.76526,78350015,0.77500004,0.10638297,-0.014242374,-0.010438382,0.009812504,-0.011857361,0.056879997,0.0,0.0,0.0
368.48093,236.18018,78350031,0.77500004,0.08510638,576.2365,-499.02347,0.009812504,-0.011857361,0.056879997,0.0,0.0,0.0
381.78073,226.9375,78350048,0.7625,0.06382979,1174.0898,-959.48083,0.009812504,-0.011857361,0.056879997,0.0,0.0,0.0
398.53418,216.56091,78350065,0.75,0.06382979,1515.6473,-1110.9135,0.009812504,-0.011857361,0.056879997,0.0,0.0,0.0
410.70746,210.3468,78350082,0.7625,0.08510638,1336.9591,-839.1136,0.009812504,-0.011857361,0.056879997,0.0,0.0,0.0
421.8531,206.08582,78350098,0.7625,0.08510638,736.4646,-234.31319,-0.04014997,-0.03348589,-0.0024967194,0.0,0.0,0.0
432.7657,205.1206,78350115,0.7625,0.08510638,482.26062,69.435005,-0.04014997,-0.03348589,-0.0024967194,0.0,0.0,0.0
442.43527,206.2229,78350132,0.75,0.06382979,484.49124,163.32713,-0.04014997,-0.03348589,-0.0024967194,0.0,0.0,0.0
450.6563,209.8551,78350148,0.75,0.06382979,438.39154,334.19815,-0.04014997,-0.03348589,-0.0024967194,0.0,0.0,0.0
457.65955,215.87817,78350165,0.75,0.07446808,398.262,457.7128,-0.04014997,-0.03348589,-0.0024967194,0.0,0.0,0.0
463.029,222.49329,78350182,0.7625,0.10638297,300.31012,542.5244,-0.04014997,-0.03348589,-0.0024967194,0.0,0.0,0.0
467.12848,231.28479,78350199,0.7375,0.12765957,195.37743,577.7207,-0.04014997,-0.03348589,-0.0024967194,0.0,0.0,0.0
469.3324,241.61414,78350215,0.75,0.08510638,102.946335,677.4447,-0.04014997,-0.03348589,-0.0024967194,0.0,0.0,0.0
467.72717,252.73608,78350232,0.75,0.07446808,-59.569344,744.9296,-0.04014997,-0.03348589,-0.0024967194,0.0,0.0,0.0
463.3769,264.8816,78350249,0.7375,0.06382979,-271.8231,793.23315,-0.04014997,-0.03348589,-0.0024967194,0.0,0.0,0.0
457.5194,275.8623,78350265,0.77500004,0.08510638,-460.05237,780.8268,-0.04014997,-0.03348589,-0.0024967194,0.0,0.0,0.0
449.70068,281.9314,78350282,0.7625,0.12765957,-586.5951,568.72705,-0.04014997,-0.03348589,-0.0024967194,0.0,0.0,0.0
438.3965,288.7849,78350299,0.7625,0.12765957,-722.6787,403.18927,-0.04014997,-0.03348589,-0.0024967194,0.0,0.0,0.0
425.6825,294.8153,78350315,0.7625,0.12765957,-845.11664,251.76431,-0.04014997,-0.03348589,-0.0024967194,0.0,0.0,0.0
407.34177,300.30237,78350332,0.7625,0.09574468,-1088.0609,254.35316,-0.04014997,-0.03348589,-0.0024967194,0.0,0.0,0.0
392.9652,303.43127,78350349,0.7875,0.10638297,-1174.0035,229.65018,-0.04014997,-0.03348589,-0.0024967194,0.0,0.0,0.0
383.7572,304.63293,78350366,0.77500004,0.08510638,-912.8574,79.79033,-0.04014997,-0.03348589,-0.0024967194,0.0,0.0,0.0
379.13263,305.52148,78350382,0.675,0.09574468,-452.3248,-35.70456,-0.04014997,-0.03348589,-0.0024967194,0.0,0.0,0.0
378.85452,305.52148,78350384,0.35,0.11702127,-397.9699,-39.20275,-0.04014997,-0.03348589,-0.0024967194,0.0,0.0,0.0
378.85452,305.52148,78350391,0.35,0.11702127,-397.9699,-39.20275,-0.04014997,-0.03348589,-0.0024967194,0.0,0.0,0.0
438.835,487.66467,78353405,0.6375,0.06382979,0.0,0.0,0.009227872,-0.009208232,0.026953697,0.0,0.0,0.0
438.835,487.66467,78353424,0.6625,0.06382979,-0.018639581,-0.013691919,0.009227872,-0.009208232,0.026953697,0.0,0.0,0.0
438.835,487.66467,78353441,0.71250004,0.07446808,-0.025647325,-0.029186107,0.009227872,-0.009208232,0.026953697,0.0,0.0,0.0
438.835,487.66467,78353457,0.725,0.07446808,0.012672549,0.013756271,0.009227872,-0.009208232,0.026953697,0.0,0.0,0.0
438.835,487.66467,78353491,0.7375,0.07446808,-0.009620553,-0.013005836,0.009227872,-0.009208232,0.026953697,0.0,0.0,0.0
438.835,487.66467,78353507,0.7375,0.08510638,-0.0053198226,-0.0045847613,0.009227872,-0.009208232,0.026953697,0.0,0.0,0.0
444.4726,474.55994,78353524,0.77500004,0.09574468,122.70912,-285.07922,0.009227872,-0.009208232,0.026953697,0.0,0.0,0.0
449.20508,464.78857,78353541,0.7375,0.10638297,381.4972,-860.0611,0.009227872,-0.009208232,0.026953697,0.0,0.0,0.0
456.44202,454.64685,78353558,0.7625,0.08510638,538.1472,-959.18805,0.009227872,-0.009208232,0.026953697,0.0,0.0,0.0
464.21307,444.52612,78353574,0.7625,0.07446808,591.62396,-884.227,0.009227872,-0.009208232,0.026953697,0.0,0.0,0.0
470.3009,434.39673,78353591,0.77500004,0.09574468,529.7774,-681.76544,0.009227872,-0.009208232,0.026953697,0.0,0.0,0.0
477.46375,425.00586,78353608,0.77500004,0.10638297,431.7766,-503.33954,0.009227872,-0.009208232,0.026953697,0.0,0.0,0.0
486.98053,415.1084,78353624,0.7625,0.12765957,494.38782,-592.5028,0.009227872,-0.009208232,0.026953697,0.0,0.0,0.0
497.5182,407.4535,78353641,0.75,0.10638297,589.18475,-524.4947,0.009227872,-0.009208232,0.026953697,0.0,0.0,0.0
507.3376,401.91077,78353658,0.7625,0.09574468,697.35693,-381.03967,0.009227872,-0.009208232,0.026953697,0.0,0.0,0.0
516.68,397.76135,78353674,0.7625,0.10638297,673.6132,-227.91742,0.009227872,-0.009208232,0.026953697,0.0,0.0,0.0
525.084,394.71204,78353691,0.7625,0.09574468,543.0219,-99.3395,0.009227872,-0.009208232,0.026953697,0.0,0.0,0.0
535.0347,392.8203,78353708,0.77500004,0.08510638,510.35883,-38.82875,0.009227872,-0.009208232,0.026953697,0.0,0.0,0.0
546.1587,391.7063,78353725,0.77500004,0.08510638,577.4522,-12.838846,0.009227872,-0.009208232,0.026953697,0.0,0.0,0.0
558.23425,391.7063,78353741,0.77500004,0.08510638,705.4916,39.74514,0.009227872,-0.009208232,0.026953697,0.0,0.0,0.0
568.23206,392.5829,78353758,0.77500004,0.10638297,754.9648,81.57506,0.009227872,-0.009208232,0.026953697,0.0,0.0,0.0
575.99164,394.4314,78353775,0.7625,0.11702127,599.9252,141.35603,0.009227872,-0.009208232,0.026953697,0.0,0.0,0.0
581.1666,396.28308,78353791,0.7625,0.12765957,367.96628,173.89735,0.009227872,-0.009208232,0.026953697,0.0,0.0,0.0
585.7482,398.1306,78353808,0.75,0.12765957,180.21281,168.62198,0.009227872,-0.009208232,0.026953697,0.0,0.0,0.0
590.4852,400.01355,78353825,0.7875,0.12765957,129.16403,146.11787,0.009227872,-0.009208232,0.026953697,0.0,0.0,0.0
593.3106,401.79126,78353842,0.7625,0.12765957,127.12941,119.640884,0.023382306,-0.015366599,-0.0424366,0.0,0.0,0.0
595.7426,403.66443,78353858,0.77500004,0.10638297,131.17143,111.203316,0.023382306,-0.015366599,-0.0424366,0.0,0.0,0.0
597.052,404.1454,78353875,0.7625,0.10638297,60.10477,77.51289,0.023382306,-0.015366599,-0.0424366,0.0,0.0,0.0
598.08984,405.0338,78353892,0.77500004,0.10638297,7.2749395,34.720562,0.023382306,-0.015366599,-0.0424366,0.0,0.0,0.0
598.2831,405.0338,78353908,0.77500004,0.10638297,-23.940716,-3.3844302,0.023382306,-0.015366599,-0.0424366,0.0,0.0,0.0
598.2831,405.92236,78353959,0.77500004,0.10638297,-0.011603349,-0.010843214,0.023382306,-0.015366599,-0.0424366,0.0,0.0,0.0
598.2831,405.92236,78353975,0.77500004,0.10638297,0.04362714,0.028890384,0.023382306,-0.015366599,-0.0424366,0.0,0.0,0.0
597.2337,405.92236,78353992,0.75,0.11702127,-77.906845,0.009001818,0.023382306,-0.015366599,-0.0424366,0.0,0.0,0.0
595.60254,405.92236,78354009,0.7625,0.11702127,-119.187,-0.0051080696,0.023382306,-0.015366599,-0.0424366,0.0,0.0,0.0
592.8963,405.92236,78354025,0.7625,0.11702127,-177.2322,-0.0010505803,0.023382306,-0.015366599,-0.0424366,0.0,0.0,0.0
586.8598,405.92236,78354042,0.7625,0.12765957,-310.23874,0.015001614,0.023382306,-0.015366599,-0.0424366,0.0,0.0,0.0
577.7938,406.27698,78354059,0.7625,0.10638297,-492.8305,5.0980024,0.023382306,-0.015366599,-0.0424366,0.0,0.0,0.0
568.0883,406.8108,78354076,0.7875,0.10638297,-704.1401,32.424892,0.023382306,-0.015366599,-0.0424366,0.0,0.0,0.0
559.0145,407.31763,78354092,0.7625,0.10638297,-744.47394,37.724625,0.023382306,-0.015366599,-0.0424366,0.0,0.0,0.0
549.881,407.69934,78354109,0.77500004,0.10638297,-658.9031,43.23038,0.023382306,-0.015366599,-0.0424366,0.0,0.0,0.0
543.1874,408.32532,78354126,0.77500004,0.11702127,-503.28497,29.371454,0.023382306,-0.015366599,-0.0424366,0.0,0.0,0.0
535.6196,410.1836,78354142,0.7875,0.10638297,-382.63495,64.89074,0.023382306,-0.015366599,-0.0424366,0.0,0.0,0.0
527.78357,412.03577,78354159,0.7875,0.10638297,-389.9885,124.243484,0.023382306,-0.015366599,-0.0424366,0.0,0.0,0.0
517.9721,414.74304,78354176,0.8125,0.08510638,-482.79227,164.81671,0.023382306,-0.015366599,-0.0424366,0.0,0.0,0.0
508.15045,418.41895,78354192,0.7875,0.08510638,-601.81757,230.5426,0.023382306,-0.015366599,-0.0424366,0.0,0.0,0.0
498.79285,424.00195,78354209,0.7875,0.08510638,-644.78296,309.43237,0.023382306,-0.015366599,-0.0424366,0.0,0.0,0.0
492.75922,429.61865,78354226,0.77500004,0.09574468,-520.6173,386.25073,0.023382306,-0.015366599,-0.0424366,0.0,0.0,0.0
487.11475,435.99402,78354243,0.7875,0.11702127,-357.42908,443.2624,0.023382306,-0.015366599,-0.0424366,0.0,0.0,0.0
481.25342,445.13696,78354259,0.7875,0.12765957,-247.70692,501.7908,0.023382306,-0.015366599,-0.0424366,0.0,0.0,0.0
477.17828,453.651,78354276,0.77500004,0.10638297,-202.18298,578.8441,0.023382306,-0.015366599,-0.0424366,0.0,0.0,0.0
474.8086,461.51904,78354293,0.7875,0.08510638,-165.45512,585.7615,0.023382306,-0.015366599,-0.0424366,0.0,0.0,0.0
473.3238,471.24548,78354309,0.77500004,0.07446808,-71.6035,577.8364,0.023382306,-0.015366599,-0.0424366,0.0,0.0,0.0
473.6549,481.1339,78354326,0.77500004,0.07446808,49.725304,602.6542,0.023382306,-0.015366599,-0.0424366,0.0,0.0,0.0
475.56818,489.42456,78354343,0.77500004,0.09574468,158.62245,568.68646,0.023382306,-0.015366599,-0.0424366,0.0,0.0,0.0
478.48492,493.5846,78354360,0.77500004,0.09574468,229.33743,433.25513,0.023382306,-0.015366599,-0.0424366,0.0,0.0,0.0
485.40106,499.77295,78354376,0.7625,0.10638297,364.61084,250.06276,-0.029294163,-0.012293294,-0.017950058,0.0,0.0,0.0
495.7558,504.52222,78354393,0.75,0.10638297,601.41046,185.6232,-0.029294163,-0.012293294,-0.017950058,0.0,0.0,0.0
507.19818,507.27393,78354410,0.7375,0.10638297,805.5286,165.27313,-0.029294163,-0.012293294,-0.017950058,0.0,0.0,0.0
516.4621,508.229,78354426,0.75,0.10638297,825.1504,78.604576,-0.029294163,-0.012293294,-0.017950058,0.0,0.0,0.0
524.6285,506.11475,78354443,0.7625,0.11702127,678.89264,-94.03811,-0.029294163,-0.012293294,-0.017950058,0.0,0.0,0.0
532.92377,503.1604,78354460,0.7625,0.08510638,499.00742,-266.60428,-0.029294163,-0.012293294,-0.017950058,0.0,0.0,0.0
541.28613,498.22595,78354477,0.75,0.07446808,428.42606,-364.04724,-0.029294163,-0.012293294,-0.017950058,0.0,0.0,0.0
549.66376,492.64148,78354493,0.7625,0.06382979,460.9708,-429.00836,-0.029294163,-0.012293294,-0.017950058,0.0,0.0,0.0
557.6528,487.13928,78354510,0.75,0.06382979,488.90308,-440.09692,-0.029294163,-0.012293294,-0.017950058,0.0,0.0,0.0
564.1292,481.5918,78354527,0.75,0.06382979,442.6149,-405.8248,-0.029294163,-0.012293294,-0.017950058,0.0,0.0,0.0
569.7828,476.12256,78354543,0.7625,0.08510638,342.55994,-350.82315,-0.029294163,-0.012293294,-0.017950058,0.0,0.0,0.0
574.62024,470.6095,78354560,0.7625,0.10638297,255.92088,-323.13788,-0.029294163,-0.012293294,-0.017950058,0.0,0.0,0.0
578.4107,466.67712,78354577,0.7375,0.12765957,189.50351,-285.6775,-0.029294163,-0.012293294,-0.017950058,0.0,0.0,0.0
581.22736,462.8954,78354594,0.75,0.12765957,149.61829,-229.59708,-0.029294163,-0.012293294,-0.017950058,0.0,0.0,0.0
582.798,459.19763,78354610,0.75,0.11702127,83.10139,-187.0637,-0.029294163,-0.012293294,-0.017950058,0.0,0.0,0.0
584.8893,455.49744,78354627,0.75,0.09574468,47.517292,-180.16133,-0.029294163,-0.012293294,-0.017950058,0.0,0.0,0.0
586.96686,451.80457,78354644,0.7625,0.09574468,59.654213,-199.73654,-0.029294163,-0.012293294,-0.017950058,0.0,0.0,0.0
588.7658,447.9314,78354660,0.75,0.08510638,83.82385,-222.07642,-0.029294163,-0.012293294,-0.017950058,0.0,0.0,0.0
591.5846,443.59607,78354677,0.75,0.08510638,139.80493,-249.20917,-0.029294163,-0.012293294,-0.017950058,0.0,0.0,0.0
593.67487,436.86816,78354694,0.77500004,0.08510638,151.17036,-327.0708,-0.029294163,-0.012293294,-0.017950058,0.0,0.0,0.0
595.2686,431.286,78354710,0.7625,0.09574468,123.84368,-398.9057,-0.029294163,-0.012293294,-0.017950058,0.0,0.0,0.0
596.5695,425.72253,78354727,0.77500004,0.08510638,86.55447,-401.08136,-0.029294163,-0.012293294,-0.017950058,0.0,0.0,0.0
597.10004,421.67896,78354744,0.77500004,0.09574468,29.070257,-323.59418,-0.029294163,-0.012293294,-0.017950058,0.0,0.0,0.0
597.28345,418.91016,78354761,0.75,0.10638297,-1.1567746,-190.68982,-0.029294163,-0.012293294,-0.017950058,0.0,0.0,0.0
597.28345,416.76807,78354777,0.7625,0.10638297,-29.738495,-89.41108,-0.029294163,-0.012293294,-0.017950058,0.0,0.0,0.0
597.28345,414.90588,78354794,0.7625,0.10638297,-32.62085,-43.545727,-0.029294163,-0.012293294,-0.017950058,0.0,0.0,0.0
597.28345,413.0609,78354811,0.8,0.11702127,-19.771526,-44.4453,-0.029294163,-0.012293294,-0.017950058,0.0,0.0,0.0
597.28345,411.21094,78354827,0.7625,0.10638297,-7.3512993,-79.92286,-0.029294163,-0.012293294,-0.017950058,0.0,0.0,0.0
597.28345,410.36487,78354844,0.7875,0.11702127,0.0059856265,-73.154915,-0.029294163,-0.012293294,-0.017950058,0.0,0.0,0.0
597.28345,410.36487,78354861,0.7625,0.11702127,-0.016103357,-24.17135,-0.029294163,-0.012293294,-0.017950058,0.0,0.0,0.0
597.28345,410.36487,78354878,0.7625,0.11702127,-0.0064804987,29.042286,-0.029294163,-0.012293294,-0.017950058,0.0,0.0,0.0
597.28345,410.36487,78354889,0.77500004,0.11702127,0.011168334,49.696068,-0.029294163,-0.012293294,-0.017950058,0.0,0.0,0.0
597.28345,410.36487,78354911,0.7875,0.11702127,0.046415906,35.984417,-0.023435324,-0.001834631,-0.046360016,0.0,0.0,0.0
597.28345,410.36487,78354928,0.7875,0.10638297,0.08130905,0.056161664,-0.023435324,-0.001834631,-0.046360016,0.0,0.0,0.0
597.28345,410.36487,78354944,0.7875,0.11702127,0.021914518,0.016418207,-0.023435324,-0.001834631,-0.046360016,0.0,0.0,0.0
597.28345,410.36487,78354961,0.7875,0.11702127,0.026364438,0.01772504,-0.023435324,-0.001834631,-0.046360016,0.0,0.0,0.0
596.78357,410.36487,78354995,0.77500004,0.10638297,-17.208757,0.0051560877,-0.023435324,-0.001834631,-0.046360016,0.0,0.0,0.0
596.78357,410.36487,78355011,0.7875,0.11702127,-14.427096,0.027891364,-0.023435324,-0.001834631,-0.046360016,0.0,0.0,0.0
596.78357,410.36487,78355016,0.8,0.11702127,-11.329281,0.019537853,-0.023435324,-0.001834631,-0.046360016,0.0,0.0,0.0
596.78357,410.36487,78355044,0.7875,0.11702127,4.06347,0.02527554,-0.023435324,-0.001834631,-0.046360016,0.0,0.0,0.0
596.2467,410.36487,78355061,0.7875,0.09574468,-20.578371,-0.006304648,-0.023435324,-0.001834631,-0.046360016,0.0,0.0,0.0
596.28375,411.69775,78355073,0.7875,0.09574468,-17.92253,39.89041,-0.023435324,-0.001834631,-0.046360016,0.0,0.0,0.0
596.28375,411.51233,78355095,0.7875,0.09574468,-4.7917857,30.449104,-0.023435324,-0.001834631,-0.046360016,0.0,0.0,0.0
595.9396,412.14185,78355112,0.8,0.09574468,-5.1293645,41.354267,-0.023435324,-0.001834631,-0.046360016,0.0,0.0,0.0
595.78394,412.55078,78355128,0.8,0.09574468,-12.366925,20.619562,-0.023435324,-0.001834631,-0.046360016,0.0,0.0,0.0
595.78394,414.40137,78355145,0.7875,0.09574468,-13.69455,66.38789,-0.023435324,-0.001834631,-0.046360016,0.0,0.0,0.0
595.3765,414.80737,78355162,0.8,0.09574468,-13.0066,93.1622,-0.023435324,-0.001834631,-0.046360016,0.0,0.0,0.0
595.28406,416.3086,78355178,0.77500004,0.09574468,-11.715057,79.384834,-0.023435324,-0.001834631,-0.046360016,0.0,0.0,0.0
594.89874,418.1577,78355195,0.7875,0.09574468,-12.937111,104.09924,-0.023435324,-0.001834631,-0.046360016,0.0,0.0,0.0
594.78424,420.0011,78355212,0.77500004,0.09574468,-20.635359,113.223755,-0.023435324,-0.001834631,-0.046360016,0.0,0.0,0.0
594.78424,422.68652,78355228,0.77500004,0.09574468,-7.681425,152.88414,-0.023435324,-0.001834631,-0.046360016,0.0,0.0,0.0
594.78424,426.38477,78355245,0.77500004,0.09574468,3.1276252,216.68158,-0.023435324,-0.001834631,-0.046360016,0.0,0.0,0.0
593.7394,431.9297,78355262,0.7625,0.09574468,-23.714933,300.60245,-0.023435324,-0.001834631,-0.046360016,0.0,0.0,0.0
592.69666,436.6023,78355279,0.77500004,0.09574468,-58.019363,357.28046,-0.023435324,-0.001834631,-0.046360016,0.0,0.0,0.0
591.6637,441.89453,78355295,0.77500004,0.11702127,-87.65314,378.96127,-0.023435324,-0.001834631,-0.046360016,0.0,0.0,0.0
590.62524,445.5863,78355312,0.7625,0.12765957,-88.99494,315.53244,-0.023435324,-0.001834631,-0.046360016,0.0,0.0,0.0
589.5817,449.65906,78355329,0.7625,0.12765957,-74.82257,242.32819,-0.023435324,-0.001834631,-0.046360016,0.0,0.0,0.0
588.7862,455.21082,78355345,0.7625,0.11702127,-58.306515,253.52467,-0.023435324,-0.001834631,-0.046360016,0.0,0.0,0.0
588.7862,460.75708,78355362,0.7625,0.09574468,-24.384241,311.01035,-0.023435324,-0.001834631,-0.046360016,0.0,0.0,0.0
589.1071,468.30444,78355379,0.7625,0.09574468,17.420105,419.14572,-0.023435324,-0.001834631,-0.046360016,0.0,0.0,0.0
590.1482,477.55713,78355396,0.75,0.08510638,68.98373,546.58435,-0.023435324,-0.001834631,-0.046360016,0.0,0.0,0.0
592.4842,485.88525,78355412,0.77500004,0.08510638,126.79154,598.2518,-0.023435324,-0.001834631,-0.046360016,0.0,0.0,0.0
594.65686,491.76758,78355429,0.7625,0.09574468,174.70253,535.8469,-0.023435324,-0.001834631,-0.046360016,0.0,0.0,0.0
596.2415,494.69763,78355446,0.75,0.10638297,173.68701,315.7448,0.029251754,0.014532268,0.058912277,0.0,0.0,0.0
600.3586,498.3943,78355462,0.7625,0.10638297,200.06938,116.5521,0.029251754,0.014532268,0.058912277,0.0,0.0,0.0
605.0881,503.09668,78355479,0.7375,0.10638297,265.64093,108.824165,0.029251754,0.014532268,0.058912277,0.0,0.0,0.0
610.88245,506.68066,78355496,0.75,0.10638297,355.57495,173.66225,0.029251754,0.014532268,0.058912277,0.0,0.0,0.0
616.45734,510.1189,78355513,0.75,0.10638297,419.0232,230.43411,0.029251754,0.014532268,0.058912277,0.0,0.0,0.0
620.9554,511.95605,78355529,0.7375,0.12765957,383.70694,176.8857,0.029251754,0.014532268,0.058912277,0.0,0.0,0.0
625.9152,513.4313,78355546,0.75,0.10638297,323.54846,84.17189,0.029251754,0.014532268,0.058912277,0.0,0.0,0.0
629.5478,513.4313,78355563,0.7375,0.12765957,229.37537,-15.529806,0.029251754,0.014532268,0.058912277,0.0,0.0,0.0
632.86395,513.4313,78355579,0.7375,0.12765957,177.25314,-61.73122,0.029251754,0.014532268,0.058912277,0.0,0.0,0.0
636.1134,511.9463,78355596,0.7375,0.12765957,147.05823,-98.027824,0.029251754,0.014532268,0.058912277,0.0,0.0,0.0
640.27386,510.0974,78355613,0.7375,0.12765957,179.50938,-146.38155,0.029251754,0.014532268,0.058912277,0.0,0.0,0.0
644.9014,506.64893,78355630,0.7625,0.10638297,254.06317,-201.46202,0.029251754,0.014532268,0.058912277,0.0,0.0,0.0
649.00836,502.22485,78355646,0.75,0.08510638,284.2808,-279.57068,0.029251754,0.014532268,0.058912277,0.0,0.0,0.0
653.2385,496.5852,78355663,0.7375,0.07446808,287.01343,-367.63593,0.029251754,0.014532268,0.058912277,0.0,0.0,0.0
656.8573,491.05286,78355680,0.75,0.06382979,242.44421,-406.95026,0.029251754,0.014532268,0.058912277,0.0,0.0,0.0
659.98224,483.59106,78355696,0.7375,0.08510638,195.91385,-458.35355,0.029251754,0.014532268,0.058912277,0.0,0.0,0.0
663.48724,474.62488,78355713,0.7375,0.10638297,184.07019,-546.3319,0.029251754,0.014532268,0.058912277,0.0,0.0,0.0
667.71246,462.0686,78355730,0.75,0.09574468,205.76245,-694.0613,0.029251754,0.014532268,0.058912277,0.0,0.0,0.0
671.2457,450.1079,78355747,0.7375,0.08510638,219.46027,-809.13617,0.029251754,0.014532268,0.058912277,0.0,0.0,0.0
673.7117,437.26965,78355763,0.7375,0.06382979,193.62982,-858.13495,0.029251754,0.014532268,0.058912277,0.0,0.0,0.0
674.25836,427.53064,78355780,0.7375,0.08510638,82.936615,-756.9417,0.029251754,0.014532268,0.058912277,0.0,0.0,0.0
674.7582,418.8346,78355797,0.75,0.09574468,-14.882381,-593.3733,0.029251754,0.014532268,0.058912277,0.0,0.0,0.0
674.7582,412.96338,78355813,0.75,0.10638297,-64.56671,-381.15482,0.029251754,0.014532268,0.058912277,0.0,0.0,0.0
674.7582,409.12354,78355830,0.75,0.10638297,-59.35003,-178.82666,0.029251754,0.014532268,0.058912277,0.0,0.0,0.0
674.7582,406.95776,78355847,0.75,0.10638297,-28.951445,-50.795067,0.029251754,0.014532268,0.058912277,0.0,0.0,0.0
674.7582,405.10303,78355863,0.7625,0.12765957,-8.796135,20.780815,0.029251754,0.014532268,0.058912277,0.0,0.0,0.0
674.7582,405.0338,78355880,0.77500004,0.12765957,-4.821864,53.707912,0.029251754,0.014532268,0.058912277,0.0,0.0,0.0
674.7582,405.0338,78355897,0.7625,0.10638297,-0.028773202,67.41722,0.029251754,0.014532268,0.058912277,0.0,0.0,0.0
674.7582,406.07166,78355914,0.7875,0.09574468,0.016792756,91.6615,0.029251754,0.014532268,0.058912277,0.0,0.0,0.0
674.7582,409.9265,78355930,0.77500004,0.08510638,0.061894026,190.93854,0.029251754,0.014532268,0.058912277,0.0,0.0,0.0
674.0951,418.03552,78355947,0.7875,0.06382979,-15.772756,398.54703,0.029251754,0.014532268,0.058912277,0.0,0.0,0.0
672.55817,432.40942,78355964,0.7625,0.08510638,-66.94177,757.98926,0.029251754,0.014532268,0.058912277,0.0,0.0,0.0
671.04126,444.86548,78355980,0.77500004,0.10638297,-113.46358,1036.1995,-0.024598598,-0.0043741763,-8.69751E-4,0.0,0.0,0.0
667.9152,459.68347,78355997,0.7625,0.09574468,-173.58931,1086.8883,-0.024598598,-0.0043741763,-8.69751E-4,0.0,0.0,0.0
664.6173,479.7445,78356014,0.7625,0.07446808,-229.79897,1166.1151,-0.024598598,-0.0043741763,-8.69751E-4,0.0,0.0,0.0
661.19055,496.93384,78356031,0.7625,0.10638297,-250.58798,1209.3925,-0.024598598,-0.0043741763,-8.69751E-4,0.0,0.0,0.0
657.2837,516.5454,78356047,0.7625,0.10638297,-260.62122,1257.8414,-0.024598598,-0.0043741763,-8.69751E-4,0.0,0.0,0.0
654.3984,537.8928,78356064,0.7625,0.07446808,-230.51772,1303.4054,-0.024598598,-0.0043741763,-8.69751E-4,0.0,0.0,0.0
651.34186,555.6741,78356081,0.75,0.11702127,-192.22545,1234.7286,-0.024598598,-0.0043741763,-8.69751E-4,0.0,0.0,0.0
648.72705,575.16064,78356097,0.7375,0.08510638,-163.65126,1164.6501,-0.024598598,-0.0043741763,-8.69751E-4,0.0,0.0,0.0
646.18,595.87305,78356114,0.725,0.09574468,-137.3098,1218.6688,-0.024598598,-0.0043741763,-8.69751E-4,0.0,0.0,0.0
644.06116,610.86096,78356131,0.7375,0.12765957,-118.16743,1052.3966,-0.024598598,-0.0043741763,-8.69751E-4,0.0,0.0,0.0
642.0041,622.5873,78356148,0.725,0.08510638,-113.47278,821.916,-0.024598598,-0.0043741763,-8.69751E-4,0.0,0.0,0.0
639.25146,635.8351,78356164,0.725,0.07446808,-118.33965,633.6246,-0.024598598,-0.0043741763,-8.69751E-4,0.0,0.0,0.0
637.55695,644.29004,78356181,0.725,0.07446808,-130.7847,463.02173,-0.024598598,-0.0043741763,-8.69751E-4,0.0,0.0,0.0
636.5148,648.0499,78356198,0.75,0.07446808,-95.831726,328.42874,-0.024598598,-0.0043741763,-8.69751E-4,0.0,0.0,0.0
635.47516,649.3722,78356214,0.7375,0.07446808,-43.935383,24.89421,-0.024598598,-0.0043741763,-8.69751E-4,0.0,0.0,0.0
634.44135,648.19946,78356231,0.7375,0.07446808,-19.678032,-239.46004,-0.024598598,-0.0043741763,-8.69751E-4,0.0,0.0,0.0
633.4013,639.4343,78356248,0.7375,0.08510638,-33.24273,-503.07968,-0.024598598,-0.0043741763,-8.69751E-4,0.0,0.0,0.0
633.2717,625.8573,78356265,0.7375,0.12765957,-39.539024,-843.0703,-0.024598598,-0.0043741763,-8.69751E-4,0.0,0.0,0.0
634.12854,609.00903,78356281,0.7375,0.08510638,13.355139,-1162.6525,-0.024598598,-0.0043741763,-8.69751E-4,0.0,0.0,0.0
638.2329,585.5818,78356298,0.725,0.08510638,156.1245,-1568.3297,-0.024598598,-0.0043741763,-8.69751E-4,0.0,0.0,0.0
641.3379,565.4453,78356315,0.7375,0.09574468,279.9773,-1627.3503,-0.024598598,-0.0043741763,-8.69751E-4,0.0,0.0,0.0
645.55725,537.2688,78356331,0.725,0.09574468,331.67392,-1706.9637,-0.024598598,-0.0043741763,-8.69751E-4,0.0,0.0,0.0
652.68115,513.6559,78356348,0.725,0.10638297,395.66055,-1696.7339,-0.024598598,-0.0043741763,-8.69751E-4,0.0,0.0,0.0
663.0396,483.24463,78356365,0.7375,0.08510638,554.3959,-1748.3132,-0.024598598,-0.0043741763,-8.69751E-4,0.0,0.0,0.0
672.30695,457.61926,78356381,0.7375,0.09574468,690.76025,-1777.0715,-0.024598598,-0.0043741763,-8.69751E-4,0.0,0.0,0.0
681.3437,437.8352,78356398,0.75,0.07446808,718.2845,-1470.703,-0.024598598,-0.0043741763,-8.69751E-4,0.0,0.0,0.0
686.3153,426.66687,78356415,0.7625,0.10638297,499.94443,-936.30884,-0.024598598,-0.0043741763,-8.69751E-4,0.0,0.0,0.0
691.0461,416.9519,78356432,0.75,0.12765957,234.67255,-351.26147,-0.024598598,-0.0043741763,-8.69751E-4,0.0,0.0,0.0
699.0042,405.80615,78356448,0.7375,0.10638297,228.94554,-188.68542,-0.024598598,-0.0043741763,-8.69751E-4,0.0,0.0,0.0
711.6955,394.84985,78356465,0.7625,0.08510638,476.2055,-351.04993,-0.024598598,-0.0043741763,-8.69751E-4,0.0,0.0,0.0
724.2728,387.73352,78356482,0.7625,0.08510638,828.48145,-475.75568,-0.024598598,-0.0043741763,-8.69751E-4,0.0,0.0,0.0
734.8818,384.6775,78356498,0.75,0.07446808,936.85864,-355.29153,-0.024598598,-0.0043741763,-8.69751E-4,0.0,0.0,0.0
743.11304,385.45557,78356515,0.7625,0.08510638,747.7113,12.542046,-0.01967889,0.012500644,-6.952286E-4,0.0,0.0,0.0
749.4607,387.33093,78356532,0.7625,0.09574468,421.68655,290.70276,-0.01967889,0.012500644,-6.952286E-4,0.0,0.0,0.0
755.121,391.09424,78356549,0.77500004,0.11702127,229.40562,408.6851,-0.01967889,0.012500644,-6.952286E-4,0.0,0.0,0.0
759.21747,395.90894,78356565,0.7875,0.12765957,167.16138,418.08682,-0.01967889,0.012500644,-6.952286E-4,0.0,0.0,0.0
763.8214,406.8756,78356582,0.77500004,0.08510638,160.92134,552.90393,-0.01967889,0.012500644,-6.952286E-4,0.0,0.0,0.0
766.2284,419.23425,78356599,0.77500004,0.07446808,154.30101,787.19226,-0.01967889,0.012500644,-6.952286E-4,0.0,0.0,0.0
764.7838,432.2848,78356615,0.7625,0.09574468,14.47883,981.7415,-0.01967889,0.012500644,-6.952286E-4,0.0,0.0,0.0
761.92316,439.75256,78356632,0.7625,0.11702127,-202.33286,854.14777,-0.01967889,0.012500644,-6.952286E-4,0.0,0.0,0.0
757.344,444.02783,78356649,0.77500004,0.12765957,-383.62482,410.26614,-0.01967889,0.012500644,-6.952286E-4,0.0,0.0,0.0
748.81177,450.87854,78356666,0.7625,0.12765957,-542.0292,144.41893,-0.01967889,0.012500644,-6.952286E-4,0.0,0.0,0.0
735.5288,458.38416,78356682,0.77500004,0.09574468,-744.8496,202.92992,-0.01967889,0.012500644,-6.952286E-4,0.0,0.0,0.0
723.6893,461.7578,78356699,0.7625,0.10638297,-932.2542,300.08453,-0.01967889,0.012500644,-6.952286E-4,0.0,0.0,0.0
714.0072,463.6234,78356716,0.7875,0.11702127,-903.4954,225.53491,-0.01967889,0.012500644,-6.952286E-4,0.0,0.0,0.0
708.16925,463.67505,78356732,0.77500004,0.11702127,-584.19543,-12.559502,-0.01967889,0.012500644,-6.952286E-4,0.0,0.0,0.0
704.5957,463.67505,78356749,0.77500004,0.11702127,-233.5487,-143.02351,-0.01967889,0.012500644,-6.952286E-4,0.0,0.0,0.0
702.069,463.67505,78356766,0.7625,0.11702127,-15.19008,-123.785576,-0.01967889,0.012500644,-6.952286E-4,0.0,0.0,0.0
700.66705,463.67505,78356783,0.7875,0.11702127,51.826313,-56.16779,-0.01967889,0.012500644,-6.952286E-4,0.0,0.0,0.0
699.61847,463.67505,78356799,0.7875,0.11702127,56.25265,-22.150087,-0.01967889,0.012500644,-6.952286E-4,0.0,0.0,0.0
698.54,463.67505,78356816,0.77500004,0.11702127,23.52683,-0.025429806,-0.01967889,0.012500644,-6.952286E-4,0.0,0.0,0.0
697.75073,463.67505,78356833,0.8,0.11702127,-16.925385,0.0153081175,-0.01967889,0.012500644,-6.952286E-4,0.0,0.0,0.0
697.4603,463.67505,78356849,0.7875,0.11702127,-15.735409,0.032267913,-0.01967889,0.012500644,-6.952286E-4,0.0,0.0,0.0
696.42377,463.67505,78356866,0.7875,0.11702127,-26.86311,0.018051283,-0.01967889,0.012500644,-6.952286E-4,0.0,0.0,0.0
696.00134,463.67505,78356873,0.77500004,0.11702127,-33.92891,0.0026023337,-0.01967889,0.012500644,-6.952286E-4,0.0,0.0,0.0
696.2512,463.67505,78356899,0.7875,0.11702127,-7.112132,-0.00947732,-0.01967889,0.012500644,-6.952286E-4,0.0,0.0,0.0
696.2512,463.67505,78356904,0.77500004,0.11702127,-0.49008507,0.0036633927,-0.01967889,0.012500644,-6.952286E-4,0.0,0.0,0.0
696.2512,463.67505,78356933,0.7875,0.11702127,24.820343,-0.055014394,-0.01967889,0.012500644,-6.952286E-4,0.0,0.0,0.0
696.2512,463.67505,78356950,0.77500004,0.11702127,13.194581,0.04068356,-0.01967889,0.012500644,-6.952286E-4,0.0,0.0,0.0
696.2512,463.67505,78356966,0.7875,0.11702127,-1.6532755,2.5390054E-4,-0.01967889,0.012500644,-6.952286E-4,0.0,0.0,0.0
696.2512,463.67505,78356983,0.7625,0.11702127,0.012114097,0.007570965,-0.01967889,0.012500644,-6.952286E-4,0.0,0.0,0.0
696.2512,463.67505,78356993,0.77500004,0.11702127,0.046297073,0.031577602,-0.01967889,0.012500644,-6.952286E-4,0.0,0.0,0.0
696.2512,463.67505,78357014,0.7875,0.11702127,0.04128416,0.0282255,-0.01967889,0.012500644,-6.952286E-4,0.0,0.0,0.0
696.2512,463.67505,78357033,0.8,0.11702127,0.007474463,0.0061237835,-0.01967889,0.012500644,-6.952286E-4,0.0,0.0,0.0
696.2512,463.67505,78357050,0.77500004,0.11702127,-0.038108174,-0.022926908,-0.015743107,0.010000497,-0.032556534,0.0,0.0,0.0
696.2512,463.67505,78357058,0.7875,0.11702127,-0.061485842,-0.04162915,-0.015743107,0.010000497,-0.032556534,0.0,0.0,0.0
696.2512,463.67505,78357114,0.7875,0.11702127,-9.2365505E-4,-0.0027946334,-0.015743107,0.010000497,-0.032556534,0.0,0.0,0.0
696.2512,463.67505,78357133,0.77500004,0.11702127,-0.003792063,-0.0038380274,-0.015743107,0.010000497,-0.032556534,0.0,0.0,0.0
696.2512,463.67505,78357150,0.7875,0.11702127,0.04442008,0.029481051,-0.015743107,0.010000497,-0.032556534,0.0,0.0,0.0
696.2512,463.67505,78357154,0.77500004,0.11702127,0.031884268,0.020601656,-0.015743107,0.010000497,-0.032556534,0.0,0.0,0.0
696.2512,463.67505,78357182,0.7875,0.11702127,0.021963704,0.014662621,-0.015743107,0.010000497,-0.032556534,0.0,0.0,0.0
696.2512,463.67505,78357195,0.77500004,0.11702127,-0.043048512,-0.028166002,-0.015743107,0.010000497,-0.032556534,0.0,0.0,0.0
696.2512,463.67505,78357214,0.7875,0.11702127,-0.05245045,-0.035512593,-0.015743107,0.010000497,-0.032556534,0.0,0.0,0.0
696.2512,463.67505,78357231,0.77500004,0.11702127,0.061010804,0.039373558,-0.015743107,0.010000497,-0.032556534,0.0,0.0,0.0
696.2512,463.67505,78357250,0.7875,0.11702127,6.404405E-5,5.671181E-4,-0.015743107,0.010000497,-0.032556534,0.0,0.0,0.0
696.2512,463.67505,78357267,0.7875,0.11702127,-0.015203704,-0.009313198,-0.015743107,0.010000497,-0.032556534,0.0,0.0,0.0
696.2512,463.67505,78357284,0.77500004,0.11702127,0.0139842685,0.008229061,-0.015743107,0.010000497,-0.032556534,0.0,0.0,0.0
696.2512,463.67505,78357301,0.7875,0.11702127,-0.019331835,-0.013778975,-0.015743107,0.010000497,-0.032556534,0.0,0.0,0.0
696.2512,463.67505,78357317,0.77500004,0.11702127,0.022735711,0.014740331,-0.015743107,0.010000497,-0.032556534,0.0,0.0,0.0
696.2512,463.67505,78357334,0.7875,0.11702127,-0.026151972,-0.01722238,-0.015743107,0.010000497,-0.032556534,0.0,0.0,0.0
696.2512,463.67505,78357351,0.71250004,0.09574468,0.01773029,0.014113755,-0.015743107,0.010000497,-0.032556534,0.0,0.0,0.0
696.2512,463.67505,78357359,0.275,0.11702127,0.026473803,0.019144963,-0.015743107,0.010000497,-0.032556534,0.0,0.0,0.0
696.2512,463.67505,78357366,0.275,0.11702127,0.026473803,0.019144963,-0.015743107,0.010000497,-0.032556534,0.0,0.0,0.0
809.2144,405.0338,78357859,0.6125,0.12765957,0.0,0.0,-0.028594479,0.024000406,-0.026044846,0.0,0.0,0.0
809.2144,405.0338,78357885,0.6875,0.12765957,0.0017980709,-0.0030115051,-0.028594479,0.024000406,-0.026044846,0.0,0.0,0.0
809.2144,405.0338,78357902,0.71250004,0.12765957,0.018978018,0.0087805735,-0.028594479,0.024000406,-0.026044846,0.0,0.0,0.0
809.2144,405.0338,78357919,0.725,0.12765957,0.0058126445,0.0023481639,-0.028594479,0.024000406,-0.026044846,0.0,0.0,0.0
809.2144,405.0338,78357936,0.75,0.12765957,-0.009240735,-0.0065950565,-0.028594479,0.024000406,-0.026044846,0.0,0.0,0.0
809.2144,405.0338,78357952,0.725,0.12765957,0.04896146,0.024839042,-0.028594479,0.024000406,-0.026044846,0.0,0.0,0.0
809.2144,405.0338,78357969,0.75,0.11702127,-0.04053401,-0.018411921,-0.028594479,0.024000406,-0.026044846,0.0,0.0,0.0
809.2144,405.0338,78357986,0.7375,0.08510638,-0.096902445,-0.049950585,-0.028594479,0.024000406,-0.026044846,0.0,0.0,0.0
803.31946,420.00354,78358002,0.7375,0.07446808,-109.74401,278.62396,-0.028594479,0.024000406,-0.026044846,0.0,0.0,0.0
799.28687,434.8739,78358019,0.7375,0.08510638,-342.67657,978.6011,-0.028594479,0.024000406,-0.026044846,0.0,0.0,0.0
796.71857,444.1278,78358036,0.7375,0.10638297,-377.55045,1210.5215,-0.028594479,0.024000406,-0.026044846,0.0,0.0,0.0
795.1743,454.2987,78358052,0.7375,0.10638297,-237.21487,973.1001,-0.028594479,0.024000406,-0.026044846,0.0,0.0,0.0
791.9653,464.58057,78358069,0.75,0.08510638,-115.30364,627.6272,-0.028594479,0.024000406,-0.026044846,0.0,0.0,0.0
787.97925,479.82715,78358086,0.75,0.06382979,-116.42011,562.7533,-0.028594479,0.024000406,-0.026044846,0.0,0.0,0.0
785.7491,493.7882,78358103,0.75,0.09574468,-198.70915,885.431,-0.028594479,0.024000406,-0.026044846,0.0,0.0,0.0
783.14185,506.0669,78358119,0.75,0.10638297,-183.32243,922.7883,0.009124428,-0.020799682,0.011164665,0.0,0.0,0.0
780.4876,518.5654,78358136,0.75,0.08510638,-143.16362,807.02386,0.009124428,-0.020799682,0.011164665,0.0,0.0,0.0
777.38666,534.3887,78358153,0.7625,0.06382979,-140.45871,774.41046,0.009124428,-0.020799682,0.011164665,0.0,0.0,0.0
774.9087,547.90784,78358169,0.7875,0.09574468,-181.6814,874.4631,0.009124428,-0.020799682,0.011164665,0.0,0.0,0.0
772.1524,559.00806,78358186,0.75,0.12765957,-164.39398,834.4607,0.009124428,-0.020799682,0.011164665,0.0,0.0,0.0
768.6327,571.52136,78358203,0.7625,0.08510638,-177.79018,695.4428,0.009124428,-0.020799682,0.011164665,0.0,0.0,0.0
765.42554,587.90454,78358220,0.7625,0.07446808,-202.81287,742.1856,0.009124428,-0.020799682,0.011164665,0.0,0.0,0.0
763.27716,601.1382,78358236,0.7625,0.08510638,-182.77704,868.2794,0.009124428,-0.020799682,0.011164665,0.0,0.0,0.0
761.199,609.4999,78358253,0.7625,0.12765957,-141.1633,773.7538,0.009124428,-0.020799682,0.011164665,0.0,0.0,0.0
759.677,616.87805,78358270,0.75,0.11702127,-81.56794,488.84106,0.009124428,-0.020799682,0.011164665,0.0,0.0,0.0
759.2307,622.3026,78358286,0.71250004,0.09574468,-29.02285,214.95592,0.009124428,-0.020799682,0.011164665,0.0,0.0,0.0
758.59625,625.8612,78358303,0.55,0.09574468,0.9277201,78.24741,0.009124428,-0.020799682,0.011164665,0.0,0.0,0.0
758.73083,626.2711,78358309,0.2375,0.12765957,11.894656,58.33245,0.009124428,-0.020799682,0.011164665,0.0,0.0,0.0
758.73083,626.2711,78358316,0.2375,0.12765957,11.894656,58.33245,0.009124428,-0.020799682,0.011164665,0.0,0.0,0.0
775.22546,418.36133,78358600,0.6375,0.08510638,0.0,0.0,0.009124428,-0.020799682,0.011164665,0.0,0.0,0.0
775.22546,418.36133,78358621,0.6875,0.08510638,0.03622447,0.014246382,0.009124428,-0.020799682,0.011164665,0.0,0.0,0.0
775.22546,418.36133,78358636,0.725,0.10638297,-0.015793573,-0.009085149,0.009124428,-0.020799682,0.011164665,0.0,0.0,0.0
775.22546,418.36133,78358654,0.7375,0.12765957,0.028694868,0.015907513,0.02329953,0.039360255,-0.08706856,0.0,0.0,0.0
775.22546,418.36133,78358671,0.75,0.12765957,0.00745234,0.006032823,0.02329953,0.039360255,-0.08706856,0.0,0.0,0.0
775.22546,418.36133,78358687,0.75,0.09574468,7.639793E-4,-0.0014600601,0.02329953,0.039360255,-0.08706856,0.0,0.0,0.0
784.6919,395.32812,78358704,0.725,0.08510638,296.53915,-726.6055,0.02329953,0.039360255,-0.08706856,0.0,0.0,0.0
791.4622,385.1183,78358721,0.725,0.07446808,517.7713,-1083.4799,0.02329953,0.039360255,-0.08706856,0.0,0.0,0.0
799.77155,375.0979,78358737,0.7375,0.09574468,666.299,-1076.696,0.02329953,0.039360255,-0.08706856,0.0,0.0,0.0
810.4878,366.89355,78358754,0.7375,0.08510638,717.8476,-777.92834,0.02329953,0.039360255,-0.08706856,0.0,0.0,0.0
822.7634,363.0232,78358771,0.7375,0.08510638,761.87695,-284.76562,0.02329953,0.039360255,-0.08706856,0.0,0.0,0.0
835.36237,361.4972,78358788,0.75,0.08510638,831.0531,14.456344,0.02329953,0.039360255,-0.08706856,0.0,0.0,0.0
844.7041,361.89233,78358804,0.7625,0.08510638,774.60785,144.22958,0.02329953,0.039360255,-0.08706856,0.0,0.0,0.0
852.53534,364.2058,78358821,0.75,0.09574468,563.5701,263.16107,0.02329953,0.039360255,-0.08706856,0.0,0.0,0.0
860.1233,369.333,78358838,0.7625,0.09574468,368.2895,363.80334,0.02329953,0.039360255,-0.08706856,0.0,0.0,0.0
867.3136,376.62476,78358854,0.75,0.08510638,318.27106,481.8621,0.02329953,0.039360255,-0.08706856,0.0,0.0,0.0
873.07684,383.72144,78358871,0.75,0.10638297,319.9137,587.3394,0.02329953,0.039360255,-0.08706856,0.0,0.0,0.0
878.56134,391.66113,78358888,0.7375,0.10638297,294.34753,583.2865,0.02329953,0.039360255,-0.08706856,0.0,0.0,0.0
884.0485,403.72632,78358904,0.7375,0.09574468,290.8935,671.69727,0.02329953,0.039360255,-0.08706856,0.0,0.0,0.0
886.18146,413.8484,78358921,0.75,0.08510638,200.75668,727.27606,0.02329953,0.039360255,-0.08706856,0.0,0.0,0.0
886.6892,425.00024,78358938,0.75,0.07446808,48.285164,735.63983,0.02329953,0.039360255,-0.08706856,0.0,0.0,0.0
885.0334,435.0492,78358954,0.7375,0.08510638,-117.73156,704.66724,0.02329953,0.039360255,-0.08706856,0.0,0.0,0.0
882.2628,441.33423,78358971,0.7375,0.10638297,-264.3577,509.30875,0.02329953,0.039360255,-0.08706856,0.0,0.0,0.0
878.77185,447.53967,78358988,0.75,0.12765957,-321.8563,362.1806,0.02329953,0.039360255,-0.08706856,0.0,0.0,0.0
874.95056,451.89563,78359005,0.75,0.12765957,-326.55545,227.54872,0.02329953,0.039360255,-0.08706856,0.0,0.0,0.0
869.85583,455.9796,78359021,0.75,0.11702127,-317.65967,131.62032,0.02329953,0.039360255,-0.08706856,0.0,0.0,0.0
862.3318,461.50964,78359038,0.7375,0.08510638,-392.26794,201.39108,0.02329953,0.039360255,-0.08706856,0.0,0.0,0.0
848.8868,466.5216,78359055,0.75,0.08510638,-656.69836,273.67563,0.02329953,0.039360255,-0.08706856,0.0,0.0,0.0
834.9647,468.11755,78359071,0.75,0.08510638,-957.7108,240.48718,0.02329953,0.039360255,-0.08706856,0.0,0.0,0.0
823.94525,468.11755,78359088,0.75,0.08510638,-1013.40265,62.41822,0.02329953,0.039360255,-0.08706856,0.0,0.0,0.0
816.0659,466.4453,78359105,0.75,0.11702127,-762.3908,-150.23732,0.02329953,0.039360255,-0.08706856,0.0,0.0,0.0
810.8257,466.34058,78359122,0.75,0.11702127,-366.87897,-210.9639,0.02329953,0.039360255,-0.08706856,0.0,0.0,0.0
807.174,466.34058,78359139,0.7375,0.10638297,-103.39493,-105.7995,0.02329953,0.039360255,-0.08706856,0.0,0.0,0.0
805.09454,466.34058,78359155,0.5625,0.08510638,0.77940154,-11.503436,0.02329953,0.039360255,-0.08706856,0.0,0.0,0.0
804.21606,466.34058,78359163,0.25,0.11702127,27.800755,11.841075,0.02329953,0.039360255,-0.08706856,0.0,0.0,0.0
804.21606,466.34058,78359170,0.25,0.11702127,27.800755,11.841075,0.02329953,0.039360255,-0.08706856,0.0,0.0,0.0
