x,y,timestamp,pressure,fingerarea,velocityx,velocityy,accelx,accely,accelz,gyrox,gyroy,gyroz
388.8513,237.10669,78260277,0.725,0.10638297,0.0,0.0,0.008875087,0.048597306,0.04851246,0.0,0.0,0.0
388.8513,237.10669,78260298,0.75,0.10638297,-0.030600607,-0.021226045,0.008875087,0.048597306,0.04851246,0.0,0.0,0.0
388.8513,237.10669,78260314,0.8125,0.12765957,0.03319083,0.019517062,0.008875087,0.048597306,0.04851246,0.0,0.0,0.0
388.8513,237.10669,78260331,0.8,0.12765957,-0.021566698,-0.013835519,0.008875087,0.048597306,0.04851246,0.0,0.0,0.0
388.8513,237.10669,78260364,0.8125,0.12765957,0.0061615473,0.003842867,0.023100063,-0.025122136,-0.08918953,0.0,0.0,0.0
388.8513,237.10669,78260381,0.8125,0.10638297,-0.029109165,-0.017929113,0.023100063,-0.025122136,-0.08918953,0.0,0.0,0.0
388.8513,237.10669,78260398,0.8125,0.08510638,0.030101247,0.018126767,0.023100063,-0.025122136,-0.08918953,0.0,0.0,0.0
382.24426,252.76611,78260415,0.83750004,0.08510638,-175.17316,415.23285,0.023100063,-0.025122136,-0.08918953,0.0,0.0,0.0
379.57562,256.09534,78260431,0.825,0.09574468,-360.11188,751.40607,0.023100063,-0.025122136,-0.08918953,0.0,0.0,0.0
378.71622,258.67664,78260448,0.83750004,0.09574468,-280.96686,581.1377,0.023100063,-0.025122136,-0.08918953,0.0,0.0,0.0
377.6633,258.4308,78260465,0.85,0.09574468,-154.43979,241.7371,0.023100063,-0.025122136,-0.08918953,0.0,0.0,0.0
377.355,258.4308,78260481,0.85,0.09574468,5.2569747,-135.32207,0.023100063,-0.025122136,-0.08918953,0.0,0.0,0.0
377.355,258.4308,78260498,0.83750004,0.08510638,86.52937,-244.25313,0.023100063,-0.025122136,-0.08918953,0.0,0.0,0.0
377.355,258.4308,78260515,0.8625,0.09574468,32.090736,-69.18228,0.023100063,-0.025122136,-0.08918953,0.0,0.0,0.0
377.355,258.4308,78260531,0.8625,0.08510638,29.939568,-9.552079,0.023100063,-0.025122136,-0.08918953,0.0,0.0,0.0
377.355,258.4308,78260548,0.85,0.09574468,20.077475,2.6787524,0.023100063,-0.025122136,-0.08918953,0.0,0.0,0.0
377.355,261.80554,78260582,0.8625,0.09574468,-7.371983E-4,96.19406,0.023100063,-0.025122136,-0.08918953,0.0,0.0,0.0
377.83932,266.3446,78260598,0.85,0.09574468,10.772828,235.8052,0.023100063,-0.025122136,-0.08918953,0.0,0.0,0.0
377.85486,274.8015,78260615,0.85,0.10638297,18.481127,454.58032,0.023100063,-0.025122136,-0.08918953,0.0,0.0,0.0
378.42715,282.04712,78260632,0.83750004,0.12765957,26.624006,594.431,0.023100063,-0.025122136,-0.08918953,0.0,0.0,0.0
378.85452,293.59155,78260648,0.825,0.10638297,36.686756,708.8767,0.023100063,-0.025122136,-0.08918953,0.0,0.0,0.0
378.85452,303.7943,78260665,0.825,0.08510638,23.437809,754.85266,0.023100063,-0.025122136,-0.08918953,0.0,0.0,0.0
379.35437,315.07886,78260682,0.83750004,0.08510638,20.201523,756.4409,0.023100063,-0.025122136,-0.08918953,0.0,0.0,0.0
379.35437,326.56873,78260699,0.825,0.08510638,3.4855433,753.9479,0.023100063,-0.025122136,-0.08918953,0.0,0.0,0.0
379.8542,334.93896,78260715,0.825,0.12765957,8.069931,661.39545,0.023100063,-0.025122136,-0.08918953,0.0,0.0,0.0
379.8542,343.21423,78260732,0.825,0.12765957,15.082209,512.7689,0.023100063,-0.025122136,-0.08918953,0.0,0.0,0.0
380.18204,351.38928,78260749,0.825,0.10638297,7.354292,400.88022,0.023100063,-0.025122136,-0.08918953,0.0,0.0,0.0
380.35403,360.80237,78260765,0.83750004,0.08510638,17.445856,399.9285,0.023100063,-0.025122136,-0.08918953,0.0,0.0,0.0
380.35403,372.9148,78260782,0.8125,0.08510638,6.138189,597.8056,0.023100063,-0.025122136,-0.08918953,0.0,0.0,0.0
380.35403,384.16675,78260799,0.83750004,0.08510638,-0.88493025,753.7982,0.023100063,-0.025122136,-0.08918953,0.0,0.0,0.0
381.35828,392.6151,78260816,0.83750004,0.12765957,19.927477,691.855,0.023100063,-0.025122136,-0.08918953,0.0,0.0,0.0
381.85355,402.86365,78260832,0.83750004,0.10638297,44.96615,605.1455,0.023100063,-0.025122136,-0.08918953,0.0,0.0,0.0
382.4402,413.95593,78260849,0.825,0.08510638,56.23725,576.6527,0.023100063,-0.025122136,-0.08918953,0.0,0.0,0.0
382.85324,429.18567,78260866,0.83750004,0.08510638,48.252457,744.49054,-0.013519943,-0.00409773,0.008648872,0.0,0.0,0.0
383.35306,441.63098,78260882,0.825,0.10638297,31.138521,884.8424,-0.013519943,-0.00409773,0.008648872,0.0,0.0,0.0
384.549,452.7898,78260899,0.8125,0.12765957,36.759304,846.72107,-0.013519943,-0.00409773,0.008648872,0.0,0.0,0.0
385.076,464.28088,78260916,0.8125,0.08510638,53.03749,704.0698,-0.013519943,-0.00409773,0.008648872,0.0,0.0,0.0
386.1369,478.38477,78260933,0.825,0.08510638,55.207607,690.82666,-0.013519943,-0.00409773,0.008648872,0.0,0.0,0.0
386.6658,491.01062,78260949,0.8125,0.08510638,50.715633,783.2525,-0.013519943,-0.00409773,0.008648872,0.0,0.0,0.0
387.21082,500.62793,78260966,0.8125,0.10638297,33.0116,738.32513,-0.013519943,-0.00409773,0.008648872,0.0,0.0,0.0
387.8516,509.85876,78260983,0.825,0.12765957,33.080196,562.0313,-0.013519943,-0.00409773,0.008648872,0.0,0.0,0.0
388.35144,519.8511,78260999,0.825,0.08510638,30.658983,466.4285,-0.013519943,-0.00409773,0.008648872,0.0,0.0,0.0
388.82898,532.70056,78261016,0.8125,0.06382979,23.193874,549.6594,-0.013519943,-0.00409773,0.008648872,0.0,0.0,0.0
389.3511,543.8972,78261033,0.825,0.08510638,29.265837,724.33673,-0.013519943,-0.00409773,0.008648872,0.0,0.0,0.0
390.41672,551.21704,78261050,0.825,0.09574468,43.19775,651.00574,-0.013519943,-0.00409773,0.008648872,0.0,0.0,0.0
390.85062,558.667,78261066,0.8,0.10638297,50.973186,476.96082,-0.013519943,-0.00409773,0.008648872,0.0,0.0,0.0
392.0141,566.129,78261083,0.825,0.09574468,58.094788,341.6835,-0.013519943,-0.00409773,0.008648872,0.0,0.0,0.0
393.08337,577.22705,78261100,0.7875,0.08510638,62.672398,413.6344,-0.013519943,-0.00409773,0.008648872,0.0,0.0,0.0
393.34982,589.5652,78261116,0.75,0.06382979,51.92241,662.842,-0.013519943,-0.00409773,0.008648872,0.0,0.0,0.0
394.61383,597.8904,78261133,0.675,0.08510638,49.089516,767.5261,-0.013519943,-0.00409773,0.008648872,0.0,0.0,0.0
394.84933,598.72754,78261137,0.4375,0.10638297,52.4488,720.15985,-0.013519943,-0.00409773,0.008648872,0.0,0.0,0.0
394.84933,598.72754,78261145,0.4375,0.10638297,52.4488,720.15985,-0.013519943,-0.00409773,0.008648872,0.0,0.0,0.0
364.35925,271.7583,78261732,0.6875,0.07446808,0.0,0.0,0.0051840544,0.02872184,0.03891945,0.0,0.0,0.0
364.35925,271.7583,78261751,0.7375,0.07446808,-0.02685882,-0.02066466,0.0051840544,0.02872184,0.03891945,0.0,0.0,0.0
364.35925,271.7583,78261768,0.7625,0.08510638,-0.03657019,-0.028022725,0.0051840544,0.02872184,0.03891945,0.0,0.0,0.0
364.35925,271.7583,78261784,0.7875,0.09574468,0.0029692387,0.0018161412,0.0051840544,0.02872184,0.03891945,0.0,0.0,0.0
364.35925,271.7583,78261802,0.7625,0.09574468,0.021157246,0.016197585,0.0051840544,0.02872184,0.03891945,0.0,0.0,0.0
364.35925,271.7583,78261817,0.7875,0.08510638,-6.895244E-4,-0.0021116114,0.0051840544,0.02872184,0.03891945,0.0,0.0,0.0
364.35925,271.7583,78261835,0.7625,0.08510638,0.016937336,0.013358174,0.0051840544,0.02872184,0.03891945,0.0,0.0,0.0
386.65085,253.6189,78261852,0.7875,0.09574468,611.81055,-502.27753,0.0051840544,0.02872184,0.03891945,0.0,0.0,0.0
393.74585,248.71875,78261868,0.7875,0.10638297,1019.2783,-809.72424,0.0051840544,0.02872184,0.03891945,0.0,0.0,0.0
403.0996,245.00342,78261885,0.8,0.12765957,922.4411,-589.47424,0.0051840544,0.02872184,0.03891945,0.0,0.0,0.0
410.26807,244.21472,78261902,0.7875,0.12765957,664.3095,-241.79623,0.0051840544,0.02872184,0.03891945,0.0,0.0,0.0
416.98428,244.21472,78261919,0.8,0.12765957,198.91394,266.12747,0.0051840544,0.02872184,0.03891945,0.0,0.0,0.0
422.8505,245.40247,78261935,0.7875,0.10638297,202.31783,280.54248,-0.027852759,-0.009022564,-0.016864777,0.0,0.0,0.0
429.68787,247.28003,78261952,0.77500004,0.10638297,331.63254,195.82382,-0.027852759,-0.009022564,-0.016864777,0.0,0.0,0.0
435.58807,251.6018,78261969,0.77500004,0.08510638,319.85916,262.85623,-0.027852759,-0.009022564,-0.016864777,0.0,0.0,0.0
443.39423,258.5027,78261985,0.77500004,0.06382979,427.11984,395.21274,-0.027852759,-0.009022564,-0.016864777,0.0,0.0,0.0
451.22192,267.3058,78262002,0.7625,0.08510638,482.12958,571.5219,-0.027852759,-0.009022564,-0.016864777,0.0,0.0,0.0
458.21844,274.88562,78262019,0.7625,0.08510638,477.91116,634.7561,-0.027852759,-0.009022564,-0.016864777,0.0,0.0,0.0
463.25507,281.65808,78262035,0.7625,0.12765957,398.73068,561.33057,-0.027852759,-0.009022564,-0.016864777,0.0,0.0,0.0
467.42035,287.91956,78262052,0.7625,0.12765957,250.37906,409.57736,-0.027852759,-0.009022564,-0.016864777,0.0,0.0,0.0
472.14624,298.82776,78262069,0.75,0.11702127,188.26979,440.60867,-0.027852759,-0.009022564,-0.016864777,0.0,0.0,0.0
474.31537,306.38135,78262086,0.75,0.09574468,130.91393,528.6554,-0.027852759,-0.009022564,-0.016864777,0.0,0.0,0.0
476.35938,313.713,78262102,0.7625,0.08510638,99.51876,546.5377,-0.027852759,-0.009022564,-0.016864777,0.0,0.0,0.0
476.82263,320.1565,78262119,0.7625,0.08510638,27.472395,457.96753,-0.027852759,-0.009022564,-0.016864777,0.0,0.0,0.0
476.1953,325.74866,78262136,0.7875,0.09574468,-67.98555,313.9064,-0.027852759,-0.009022564,-0.016864777,0.0,0.0,0.0
473.8908,330.28015,78262152,0.8,0.08510638,-156.16943,228.05005,-0.027852759,-0.009022564,-0.016864777,0.0,0.0,0.0
471.43066,333.41492,78262169,0.77500004,0.10638297,-217.05824,183.81238,-0.027852759,-0.009022564,-0.016864777,0.0,0.0,0.0
468.3806,336.56995,78262186,0.77500004,0.12765957,-239.72939,134.6699,-0.027852759,-0.009022564,-0.016864777,0.0,0.0,0.0
463.5105,340.22034,78262203,0.7875,0.10638297,-288.7324,144.5214,-0.027852759,-0.009022564,-0.016864777,0.0,0.0,0.0
456.69006,345.3562,78262219,0.7875,0.10638297,-382.62686,218.2111,-0.027852759,-0.009022564,-0.016864777,0.0,0.0,0.0
448.49097,349.43176,78262236,0.7875,0.10638297,-522.63495,295.66782,-0.027852759,-0.009022564,-0.016864777,0.0,0.0,0.0
439.8859,353.08545,78262253,0.7875,0.10638297,-605.2728,280.53375,-0.027852759,-0.009022564,-0.016864777,0.0,0.0,0.0
431.4002,356.04114,78262269,0.77500004,0.09574468,-616.9272,215.13275,-0.027852759,-0.009022564,-0.016864777,0.0,0.0,0.0
421.63034,358.78015,78262286,0.8,0.08510638,-598.6428,146.49208,-0.027852759,-0.009022564,-0.016864777,0.0,0.0,0.0
411.18033,360.63513,78262303,0.8125,0.08510638,-617.05365,92.94921,-0.027852759,-0.009022564,-0.016864777,0.0,0.0,0.0
400.321,362.47937,78262320,0.8125,0.08510638,-679.6096,81.161255,-0.027852759,-0.009022564,-0.016864777,0.0,0.0,0.0
390.5263,364.32556,78262336,0.8125,0.08510638,-683.5317,74.31685,-0.027852759,-0.009022564,-0.016864777,0.0,0.0,0.0
381.6473,365.05115,78262353,0.7875,0.09574468,-610.1162,62.595688,-0.027852759,-0.009022564,-0.016864777,0.0,0.0,0.0
375.86917,365.05115,78262370,0.8,0.09574468,-438.78088,13.049093,-0.027852759,-0.009022564,-0.016864777,0.0,0.0,0.0
370.30698,365.05115,78262386,0.8,0.08510638,-283.16528,-31.338133,-0.027852759,-0.009022564,-0.016864777,0.0,0.0,0.0
365.1827,365.05115,78262403,0.8,0.08510638,-216.05519,-49.717873,-0.027852759,-0.009022564,-0.016864777,0.0,0.0,0.0
360.00485,365.05115,78262420,0.7625,0.08510638,-227.84198,-25.335821,-0.027852759,-0.009022564,-0.016864777,0.0,0.0,0.0
357.3615,365.05115,78262432,0.32500002,0.10638297,-223.46127,-12.961471,-0.027852759,-0.009022564,-0.016864777,0.0,0.0,0.0
357.3615,365.05115,78262438,0.32500002,0.10638297,-223.46127,-12.961471,-0.027852759,-0.009022564,-0.016864777,0.0,0.0,0.0
452.83044,559.6334,78264408,0.6875,0.09574468,0.0,0.0,0.0072795004,0.036048353,0.016004562,0.0,0.0,0.0
452.83044,559.6334,78264425,0.7,0.09574468,-0.10903186,-0.13991413,0.0072795004,0.036048353,0.016004562,0.0,0.0,0.0
452.83044,559.6334,78264442,0.7375,0.09574468,0.006822843,0.011083442,0.0072795004,0.036048353,0.016004562,0.0,0.0,0.0
452.83044,559.6334,78264458,0.75,0.09574468,0.023861391,0.031730745,0.0072795004,0.036048353,0.016004562,0.0,0.0,0.0
452.83044,559.6334,78264475,0.7625,0.08510638,-0.006788558,-0.008088085,0.0072795004,0.036048353,0.016004562,0.0,0.0,0.0
452.83044,559.6334,78264492,0.7625,0.08510638,-9.725826E-4,0.0010869665,0.0072795004,0.036048353,0.016004562,0.0,0.0,0.0
452.83044,559.6334,78264509,0.7625,0.08510638,-1.9158315E-4,-0.0011082152,0.0072795004,0.036048353,0.016004562,0.0,0.0,0.0
452.83044,559.6334,78264525,0.7625,0.06382979,-0.016242096,-0.018884549,0.0072795004,0.036048353,0.016004562,0.0,0.0,0.0
452.83044,559.6334,78264542,0.7875,0.07446808,-0.0129265925,-0.015887754,0.0072795004,0.036048353,0.016004562,0.0,0.0,0.0
452.83044,559.6334,78264559,0.7875,0.07446808,0.04300306,0.05497846,0.0072795004,0.036048353,0.016004562,0.0,0.0,0.0
467.96313,540.8036,78264575,0.7625,0.09574468,446.60052,-555.7522,0.0072795004,0.036048353,0.016004562,0.0,0.0,0.0
474.10406,532.57947,78264592,0.7875,0.09574468,708.4226,-896.55475,0.0072795004,0.036048353,0.016004562,0.0,0.0,0.0
480.24634,526.38135,78264609,0.7875,0.10638297,703.05066,-858.9535,0.021823585,0.0128386915,0.060803413,0.0,0.0,0.0
489.03925,520.7047,78264626,0.7875,0.10638297,588.9426,-560.64813,0.021823585,0.0128386915,0.060803413,0.0,0.0,0.0
497.95807,514.2355,78264642,0.77500004,0.10638297,456.44855,-236.37968,0.021823585,0.0128386915,0.060803413,0.0,0.0,0.0
506.79877,508.7456,78264659,0.7875,0.09574468,497.5418,-168.22412,0.021823585,0.0128386915,0.060803413,0.0,0.0,0.0
514.53064,503.23608,78264676,0.77500004,0.08510638,578.424,-320.2979,0.021823585,0.0128386915,0.060803413,0.0,0.0,0.0
522.1939,497.30005,78264692,0.77500004,0.08510638,477.4726,-327.0151,0.021823585,0.0128386915,0.060803413,0.0,0.0,0.0
529.8106,489.88123,78264709,0.77500004,0.08510638,415.90936,-378.00626,0.021823585,0.0128386915,0.060803413,0.0,0.0,0.0
536.86426,482.39844,78264726,0.77500004,0.08510638,402.77518,-464.36008,0.021823585,0.0128386915,0.060803413,0.0,0.0,0.0
543.2237,475.73853,78264743,0.7875,0.08510638,391.55383,-483.47012,0.021823585,0.0128386915,0.060803413,0.0,0.0,0.0
549.9345,469.32983,78264759,0.7875,0.09574468,367.6899,-434.04782,0.021823585,0.0128386915,0.060803413,0.0,0.0,0.0
555.7172,463.74597,78264776,0.77500004,0.10638297,340.12973,-349.3366,0.021823585,0.0128386915,0.060803413,0.0,0.0,0.0
561.44257,458.18665,78264793,0.7875,0.09574468,329.97958,-303.18964,0.021823585,0.0128386915,0.060803413,0.0,0.0,0.0
566.063,452.65393,78264809,0.7875,0.08510638,300.4577,-299.9634,0.021823585,0.0128386915,0.060803413,0.0,0.0,0.0
570.24335,448.16968,78264826,0.7875,0.08510638,244.15117,-287.54498,0.021823585,0.0128386915,0.060803413,0.0,0.0,0.0
573.6354,443.51624,78264843,0.7625,0.07446808,194.13412,-264.09836,0.021823585,0.0128386915,0.060803413,0.0,0.0,0.0
576.1652,439.01917,78264860,0.7875,0.08510638,137.68445,-249.09584,0.021823585,0.0128386915,0.060803413,0.0,0.0,0.0
578.74,435.3308,78264876,0.7875,0.08510638,105.98298,-216.67076,0.021823585,0.0128386915,0.060803413,0.0,0.0,0.0
580.82007,431.6333,78264893,0.7875,0.09574468,92.98568,-204.31235,0.021823585,0.0128386915,0.060803413,0.0,0.0,0.0
582.376,427.97913,78264910,0.77500004,0.09574468,78.837654,-197.13998,0.021823585,0.0128386915,0.060803413,0.0,0.0,0.0
583.1285,425.75293,78264926,0.77500004,0.09574468,57.064625,-163.69841,0.021823585,0.0128386915,0.060803413,0.0,0.0,0.0
583.78784,423.91443,78264943,0.7875,0.09574468,16.523504,-111.09395,0.021823585,0.0128386915,0.060803413,0.0,0.0,0.0
583.78784,422.11157,78264960,0.7875,0.09574468,-18.811087,-63.76244,0.021823585,0.0128386915,0.060803413,0.0,0.0,0.0
583.78784,420.656,78264976,0.7875,0.09574468,-31.820162,-50.1713,0.021823585,0.0128386915,0.060803413,0.0,0.0,0.0
583.78784,419.71643,78264993,0.7875,0.09574468,-28.3495,-48.15218,0.021823585,0.0128386915,0.060803413,0.0,0.0,0.0
583.78784,420.13843,78265010,0.7875,0.09574468,-15.499727,-4.998674,0.021823585,0.0128386915,0.060803413,0.0,0.0,0.0
583.78784,420.13843,78265027,0.7875,0.09574468,-5.5161433,35.76933,0.021823585,0.0128386915,0.060803413,0.0,0.0,0.0
583.78784,420.13843,78265043,0.7875,0.09574468,0.052982114,43.04517,0.021823585,0.0128386915,0.060803413,0.0,0.0,0.0
584.9767,420.13843,78265060,0.8125,0.09574468,32.313606,24.217894,0.021823585,0.0128386915,0.060803413,0.0,0.0,0.0
584.7875,420.13843,78265077,0.8125,0.09574468,37.194576,-2.4751415,0.021823585,0.0128386915,0.060803413,0.0,0.0,0.0
584.7875,420.13843,78265093,0.8,0.09574468,20.68335,0.009184714,0.021823585,0.0128386915,0.060803413,0.0,0.0,0.0
584.7875,420.13843,78265110,0.7875,0.09574468,-6.1373577,-0.008303787,0.021823585,0.0128386915,0.060803413,0.0,0.0,0.0
584.7875,420.13843,78265118,0.8125,0.09574468,-8.836274,-0.037799995,0.021823585,0.0128386915,0.060803413,0.0,0.0,0.0
585.68567,422.62354,78265160,0.8,0.09574468,22.230183,70.0882,0.0014588833,0.026270956,0.03264332,0.0,0.0,0.0
586.287,425.21887,78265177,0.8125,0.09574468,48.38195,134.63533,0.0014588833,0.026270956,0.03264332,0.0,0.0,0.0
587.2631,428.09302,78265194,0.8,0.09574468,64.60581,216.33871,0.0014588833,0.026270956,0.03264332,0.0,0.0,0.0
587.2867,431.77185,78265210,0.7875,0.09574468,43.518456,247.41925,0.0014588833,0.026270956,0.03264332,0.0,0.0,0.0
587.8479,435.46118,78265227,0.8,0.09574468,8.333467,248.48328,0.0014588833,0.026270956,0.03264332,0.0,0.0,0.0
587.7865,437.1925,78265244,0.8,0.09574468,-0.44080853,202.03883,0.0014588833,0.026270956,0.03264332,0.0,0.0,0.0
587.7865,439.0681,78265261,0.8,0.09574468,-7.022011,124.371605,0.0014588833,0.026270956,0.03264332,0.0,0.0,0.0
587.7865,439.68542,78265277,0.8,0.09574468,-10.618314,50.653587,0.0014588833,0.026270956,0.03264332,0.0,0.0,0.0
587.7865,441.90332,78265294,0.8,0.09574468,-6.7871284,29.182077,0.0014588833,0.026270956,0.03264332,0.0,0.0,0.0
587.7865,441.9181,78265311,0.8125,0.11702127,-4.964311,26.538294,0.0014588833,0.026270956,0.03264332,0.0,0.0,0.0
587.7865,442.79517,78265319,0.8,0.11702127,-4.178971,29.370304,0.0014588833,0.026270956,0.03264332,0.0,0.0,0.0
587.7865,443.2395,78265355,0.8,0.11702127,0.018661242,7.7609415,0.0014588833,0.026270956,0.03264332,0.0,0.0,0.0
587.7865,443.2395,78265378,0.8125,0.11702127,-0.0059951837,-7.22242,0.0014588833,0.026270956,0.03264332,0.0,0.0,0.0
587.7865,443.2395,78265394,0.8,0.11702127,0.05050918,-21.98377,0.0014588833,0.026270956,0.03264332,0.0,0.0,0.0
587.7865,443.2395,78265411,0.8125,0.11702127,0.009236303,-8.111438,0.0014588833,0.026270956,0.03264332,0.0,0.0,0.0
587.7865,443.2395,78265415,0.8,0.11702127,0.0012248917,-4.6006866,0.0014588833,0.026270956,0.03264332,0.0,0.0,0.0
587.7865,443.2395,78265435,0.8125,0.11702127,0.031268608,0.024525236,0.0014588833,0.026270956,0.03264332,0.0,0.0,0.0
587.7865,443.2395,78265460,0.8,0.11702127,0.016045347,0.009985209,0.0014588833,0.026270956,0.03264332,0.0,0.0,0.0
588.476,443.2395,78265494,0.8,0.11702127,21.906876,-0.017487127,0.0014588833,0.026270956,0.03264332,0.0,0.0,0.0
589.51184,444.5293,78265511,0.7875,0.11702127,49.92264,36.483852,0.0014588833,0.026270956,0.03264332,0.0,0.0,0.0
590.8218,446.38147,78265528,0.77500004,0.10638297,82.992004,113.67424,0.0014588833,0.026270956,0.03264332,0.0,0.0,0.0
592.57367,448.19507,78265545,0.8,0.12765957,117.828896,152.52565,0.0014588833,0.026270956,0.03264332,0.0,0.0,0.0
593.9651,449.17517,78265561,0.8,0.12765957,111.19747,104.870705,0.0014588833,0.026270956,0.03264332,0.0,0.0,0.0
596.036,451.01575,78265578,0.8,0.12765957,123.0978,99.95487,0.0014588833,0.026270956,0.03264332,0.0,0.0,0.0
597.67377,451.23596,78265595,0.8,0.12765957,120.50988,49.79799,0.0014588833,0.026270956,0.03264332,0.0,0.0,0.0
598.73975,451.23596,78265611,0.8,0.12765957,94.55326,4.467364,0.0014588833,0.026270956,0.03264332,0.0,0.0,0.0
599.7854,451.23596,78265628,0.8,0.12765957,64.30376,-27.339176,0.0014588833,0.026270956,0.03264332,0.0,0.0,0.0
600.3035,451.23596,78265645,0.825,0.12765957,27.969883,-36.62746,0.0014588833,0.026270956,0.03264332,0.0,0.0,0.0
600.2825,451.23596,78265656,0.8,0.12765957,3.4450061,-31.672321,0.0014588833,0.026270956,0.03264332,0.0,0.0,0.0
600.0422,451.23596,78265728,0.8,0.12765957,-82.365814,-0.030723311,-0.014832914,0.005016774,-0.037885666,0.0,0.0,0.0
599.0198,451.23596,78265745,0.7875,0.11702127,-86.75555,-0.007539929,-0.014832914,0.005016774,-0.037885666,0.0,0.0,0.0
597.1443,451.23596,78265762,0.7875,0.11702127,-135.3159,0.043777376,-0.014832914,0.005016774,-0.037885666,0.0,0.0,0.0
595.07764,451.23596,78265779,0.7875,0.11702127,-157.16203,-0.016932605,-0.014832914,0.005016774,-0.037885666,0.0,0.0,0.0
591.24036,451.23596,78265795,0.7875,0.12765957,-216.48363,-0.008464018,-0.014832914,0.005016774,-0.037885666,0.0,0.0,0.0
586.6275,452.00342,78265812,0.77500004,0.12765957,-284.58514,13.523311,-0.014832914,0.005016774,-0.037885666,0.0,0.0,0.0
581.4339,453.84985,78265829,0.77500004,0.12765957,-353.51068,74.48981,-0.014832914,0.005016774,-0.037885666,0.0,0.0,0.0
575.7101,455.70227,78265845,0.7875,0.12765957,-392.98984,136.75021,-0.014832914,0.005016774,-0.037885666,0.0,0.0,0.0
569.44806,457.55762,78265862,0.8,0.12765957,-414.67468,159.86899,-0.014832914,0.005016774,-0.037885666,0.0,0.0,0.0
564.20386,459.40735,78265879,0.7875,0.09574468,-379.53717,147.56474,-0.014832914,0.005016774,-0.037885666,0.0,0.0,0.0
559.0636,462.41846,78265896,0.825,0.10638297,-341.1162,145.9783,-0.014832914,0.005016774,-0.037885666,0.0,0.0,0.0
555.1747,464.04382,78265912,0.8,0.08510638,-275.9112,142.98975,-0.014832914,0.005016774,-0.037885666,0.0,0.0,0.0
552.1565,467.1007,78265929,0.8,0.08510638,-190.09976,159.6525,-0.014832914,0.005016774,-0.037885666,0.0,0.0,0.0
547.792,472.12585,78265946,0.7875,0.08510638,-173.91379,243.27362,-0.014832914,0.005016774,-0.037885666,0.0,0.0,0.0
541.7052,483.3933,78265962,0.7875,0.09574468,-253.79138,497.09537,-0.014832914,0.005016774,-0.037885666,0.0,0.0,0.0
537.70874,492.80212,78265979,0.8,0.09574468,-331.15366,748.9871,-0.014832914,0.005016774,-0.037885666,0.0,0.0,0.0
534.7718,499.27197,78265996,0.8,0.11702127,-275.22287,706.8576,-0.014832914,0.005016774,-0.037885666,0.0,0.0,0.0
532.53845,504.81104,78266012,0.7875,0.12765957,-143.49431,458.6157,-0.014832914,0.005016774,-0.037885666,0.0,0.0,0.0
531.3049,511.15186,78266029,0.7875,0.11702127,-37.140263,253.78256,-0.014832914,0.005016774,-0.037885666,0.0,0.0,0.0
530.80505,517.7943,78266046,0.7875,0.09574468,18.001236,244.40945,-0.014832914,0.005016774,-0.037885666,0.0,0.0,0.0
530.8362,525.20337,78266063,0.77500004,0.09574468,29.344582,408.19376,-0.014832914,0.005016774,-0.037885666,0.0,0.0,0.0
532.3747,532.5884,78266079,0.7875,0.09574468,102.725075,474.6717,-0.014832914,0.005016774,-0.037885666,0.0,0.0,0.0
534.5338,539.12683,78266096,0.77500004,0.09574468,158.50056,456.1421,-0.014832914,0.005016774,-0.037885666,0.0,0.0,0.0
536.6342,543.33997,78266113,0.77500004,0.08510638,186.10925,351.50067,-0.014832914,0.005016774,-0.037885666,0.0,0.0,0.0
538.74066,546.19604,78266129,0.7875,0.08510638,183.93979,200.15375,-0.014832914,0.005016774,-0.037885666,0.0,0.0,0.0
542.1444,548.8319,78266146,0.8,0.08510638,172.8601,71.049164,-0.014832914,0.005016774,-0.037885666,0.0,0.0,0.0
547.1068,551.2129,78266163,0.7875,0.08510638,262.6895,67.542366,-0.014832914,0.005016774,-0.037885666,0.0,0.0,0.0
552.5817,552.5254,78266180,0.8,0.08510638,358.69376,70.639496,-0.014832914,0.005016774,-0.037885666,0.0,0.0,0.0
558.5096,553.1344,78266196,0.7875,0.08510638,426.43558,33.74942,-0.014832914,0.005016774,-0.037885666,0.0,0.0,0.0
564.1421,553.41394,78266213,0.7875,0.08510638,411.17578,-24.773266,0.02013366,0.004013419,0.0496912,0.0,0.0,0.0
568.8587,553.41394,78266230,0.7875,0.08510638,335.38077,-50.62408,0.02013366,0.004013419,0.0496912,0.0,0.0,0.0
573.07806,553.41394,78266246,0.8,0.08510638,264.54382,-32.066185,0.02013366,0.004013419,0.0496912,0.0,0.0,0.0
576.80963,551.6282,78266263,0.77500004,0.09574468,208.8971,-69.4449,0.02013366,0.004013419,0.0496912,0.0,0.0,0.0
579.9226,549.78076,78266280,0.7875,0.09574468,173.56693,-128.39777,0.02013366,0.004013419,0.0496912,0.0,0.0,0.0
583.5908,546.9252,78266297,0.77500004,0.08510638,170.16328,-180.18576,0.02013366,0.004013419,0.0496912,0.0,0.0,0.0
587.3815,544.10596,78266313,0.7875,0.08510638,189.62987,-216.6897,0.02013366,0.004013419,0.0496912,0.0,0.0,0.0
590.34406,540.31335,78266330,0.77500004,0.08510638,197.21037,-241.31754,0.02013366,0.004013419,0.0496912,0.0,0.0,0.0
593.3411,536.7617,78266347,0.8,0.08510638,192.50838,-251.25424,0.02013366,0.004013419,0.0496912,0.0,0.0,0.0
595.9934,533.02625,78266363,0.77500004,0.08510638,165.23761,-256.28052,0.02013366,0.004013419,0.0496912,0.0,0.0,0.0
599.0948,529.3508,78266380,0.77500004,0.08510638,156.8356,-242.5656,0.02013366,0.004013419,0.0496912,0.0,0.0,0.0
601.3976,525.66504,78266397,0.77500004,0.10638297,147.87648,-224.43896,0.02013366,0.004013419,0.0496912,0.0,0.0,0.0
603.4329,522.047,78266414,0.7625,0.12765957,123.95377,-214.48946,0.02013366,0.004013419,0.0496912,0.0,0.0,0.0
605.556,517.3845,78266430,0.7625,0.10638297,104.33499,-242.15335,0.02013366,0.004013419,0.0496912,0.0,0.0,0.0
607.1738,512.9208,78266447,0.7875,0.10638297,90.61469,-271.8082,0.02013366,0.004013419,0.0496912,0.0,0.0,0.0
609.2086,509.11487,78266464,0.77500004,0.08510638,91.56209,-273.78632,0.02013366,0.004013419,0.0496912,0.0,0.0,0.0
610.29614,505.3744,78266480,0.77500004,0.08510638,85.64647,-242.4367,0.02013366,0.004013419,0.0496912,0.0,0.0,0.0
611.89276,500.688,78266497,0.77500004,0.06382979,73.0976,-235.73964,0.02013366,0.004013419,0.0496912,0.0,0.0,0.0
612.8696,496.0631,78266514,0.7625,0.06382979,63.81518,-261.4134,0.02013366,0.004013419,0.0496912,0.0,0.0,0.0
613.4079,493.42297,78266530,0.75,0.06382979,38.41412,-236.65405,0.02013366,0.004013419,0.0496912,0.0,0.0,0.0
614.4697,488.75952,78266547,0.7625,0.06382979,33.041588,-237.20105,0.02013366,0.004013419,0.0496912,0.0,0.0,0.0
615.2776,483.3734,78266564,0.7625,0.06382979,42.64996,-275.54218,0.02013366,0.004013419,0.0496912,0.0,0.0,0.0
615.5288,479.2168,78266581,0.77500004,0.08510638,29.606474,-296.68137,0.02013366,0.004013419,0.0496912,0.0,0.0,0.0
616.0445,475.16443,78266597,0.7875,0.08510638,22.212673,-292.46814,0.02013366,0.004013419,0.0496912,0.0,0.0,0.0
616.2772,471.45825,78266614,0.77500004,0.09574468,5.864267,-224.17119,0.02013366,0.004013419,0.0496912,0.0,0.0,0.0
616.2772,469.26392,78266631,0.7625,0.09574468,-3.372911,-146.86443,0.02013366,0.004013419,0.0496912,0.0,0.0,0.0
616.2772,467.40137,78266647,0.77500004,0.10638297,-6.0427,-94.25488,0.02013366,0.004013419,0.0496912,0.0,0.0,0.0
616.2772,465.54956,78266664,0.7625,0.09574468,-13.873029,-54.8659,0.02013366,0.004013419,0.0496912,0.0,0.0,0.0
616.2772,463.70056,78266681,0.7875,0.10638297,-8.446258,-60.468227,0.02013366,0.004013419,0.0496912,0.0,0.0,0.0
616.2772,463.67505,78266693,0.7875,0.10638297,-5.3110533,-42.962807,0.02013366,0.004013419,0.0496912,0.0,0.0,0.0
616.2772,463.67505,78266731,0.8,0.10638297,-0.005617376,45.55262,0.02013366,0.004013419,0.0496912,0.0,0.0,0.0
616.2772,464.06995,78266781,0.8,0.09574468,-0.01569058,6.7696548,0.016106933,0.0032107532,0.007753372,0.0,0.0,0.0
615.7774,466.38843,78266798,0.7875,0.08510638,-29.11735,132.34036,0.016106933,0.0032107532,0.007753372,0.0,0.0,0.0
614.9755,472.93066,78266815,0.77500004,0.06382979,-46.63497,322.78207,0.016106933,0.0032107532,0.007753372,0.0,0.0,0.0
614.2779,482.67493,78266831,0.7625,0.06382979,-66.15032,703.1321,0.016106933,0.0032107532,0.007753372,0.0,0.0,0.0
613.7781,492.0746,78266848,0.7625,0.08510638,-50.402027,780.15576,0.016106933,0.0032107532,0.007753372,0.0,0.0,0.0
613.7781,499.44836,78266865,0.77500004,0.10638297,-25.260275,721.44385,0.016106933,0.0032107532,0.007753372,0.0,0.0,0.0
614.72406,507.6234,78266881,0.7625,0.10638297,32.236107,552.1808,0.016106933,0.0032107532,0.007753372,0.0,0.0,0.0
615.77716,517.871,78266898,0.77500004,0.08510638,85.31252,495.10986,0.016106933,0.0032107532,0.007753372,0.0,0.0,0.0
617.90015,529.93616,78266915,0.7375,0.06382979,126.12331,638.0889,0.016106933,0.0032107532,0.007753372,0.0,0.0,0.0
621.628,540.86926,78266932,0.75,0.08510638,202.89668,760.87726,0.016106933,0.0032107532,0.007753372,0.0,0.0,0.0
626.346,547.8043,78266948,0.7625,0.10638297,298.25958,668.3555,0.016106933,0.0032107532,0.007753372,0.0,0.0,0.0
632.1432,553.18884,78266965,0.75,0.12765957,382.31482,405.80078,0.016106933,0.0032107532,0.007753372,0.0,0.0,0.0
639.8293,558.89575,78266982,0.75,0.12765957,479.69647,218.28207,0.016106933,0.0032107532,0.007753372,0.0,0.0,0.0
649.84033,563.1306,78266998,0.77500004,0.12765957,587.72595,148.98682,0.016106933,0.0032107532,0.007753372,0.0,0.0,0.0
663.2887,564.9645,78267015,0.7625,0.10638297,780.77185,134.85556,0.016106933,0.0032107532,0.007753372,0.0,0.0,0.0
676.49365,563.5227,78267032,0.7625,0.12765957,946.0316,-24.284897,0.016106933,0.0032107532,0.007753372,0.0,0.0,0.0
687.5714,559.5603,78267048,0.7375,0.11702127,900.66125,-267.90274,0.016106933,0.0032107532,0.007753372,0.0,0.0,0.0
702.9485,546.6804,78267065,0.725,0.07446808,839.69385,-614.33923,0.016106933,0.0032107532,0.007753372,0.0,0.0,0.0
708.2473,540.97485,78267076,0.3375,0.10638297,808.5367,-822.0825,0.016106933,0.0032107532,0.007753372,0.0,0.0,0.0
708.2473,540.97485,78267082,0.3375,0.10638297,808.5367,-822.0825,0.016106933,0.0032107532,0.007753372,0.0,0.0,0.0
700.2499,555.1909,78268304,0.625,0.09574468,0.0,0.0,-0.0024915338,-0.0139451325,0.017763138,0.0,0.0,0.0
700.2499,555.1909,78268335,0.6625,0.09574468,0.034773067,0.025120828,-0.0024915338,-0.0139451325,0.017763138,0.0,0.0,0.0
700.2499,555.1909,78268352,0.7,0.08510638,0.018191068,0.013584797,-0.017993242,0.0048439205,0.04621029,0.0,0.0,0.0
700.2499,555.1909,78268364,0.7,0.07446808,0.06877072,0.054296,-0.017993242,0.0048439205,0.04621029,0.0,0.0,0.0
700.2499,555.1909,78268384,0.71250004,0.07446808,-0.00906487,-0.005417098,-0.017993242,0.0048439205,0.04621029,0.0,0.0,0.0
700.2499,555.1909,78268401,0.71250004,0.06382979,0.018609248,0.01523567,-0.017993242,0.0048439205,0.04621029,0.0,0.0,0.0
713.79803,539.2107,78268419,0.725,0.08510638,384.96808,-450.8321,-0.017993242,0.0048439205,0.04621029,0.0,0.0,0.0
722.8176,528.7134,78268436,0.725,0.09574468,751.1691,-887.4895,-0.017993242,0.0048439205,0.04621029,0.0,0.0,0.0
729.32996,521.32166,78268452,0.7375,0.12765957,736.66,-851.82214,-0.017993242,0.0048439205,0.04621029,0.0,0.0,0.0
735.5557,513.94385,78268469,0.725,0.10638297,507.5507,-583.3426,-0.017993242,0.0048439205,0.04621029,0.0,0.0,0.0
740.5798,506.6023,78268486,0.7375,0.09574468,255.71161,-328.15842,-0.017993242,0.0048439205,0.04621029,0.0,0.0,0.0
744.6178,499.4242,78268502,0.725,0.08510638,187.51413,-350.6801,-0.017993242,0.0048439205,0.04621029,0.0,0.0,0.0
748.5774,489.8595,78268519,0.7375,0.08510638,190.0389,-495.1992,-0.017993242,0.0048439205,0.04621029,0.0,0.0,0.0
751.6599,481.64038,78268536,0.7375,0.09574468,160.45198,-555.6204,-0.017993242,0.0048439205,0.04621029,0.0,0.0,0.0
753.736,476.99634,78268553,0.725,0.11702127,113.537445,-437.17908,-0.017993242,0.0048439205,0.04621029,0.0,0.0,0.0
755.2739,473.29956,78268569,0.725,0.11702127,73.22452,-250.3674,-0.017993242,0.0048439205,0.04621029,0.0,0.0,0.0
756.3149,470.63525,78268586,0.7375,0.11702127,23.833008,-81.9273,-0.017993242,0.0048439205,0.04621029,0.0,0.0,0.0
756.7315,468.7837,78268603,0.7375,0.11702127,0.2696987,-6.1682057,-0.017993242,0.0048439205,0.04621029,0.0,0.0,0.0
756.7315,466.89014,78268619,0.75,0.11702127,-25.897436,-16.869799,-0.017993242,0.0048439205,0.04621029,3.355443E-6,0.0,0.0
756.7315,465.09302,78268636,0.7375,0.11702127,-37.70965,-51.283768,-0.017993242,0.0048439205,0.04621029,3.355443E-6,0.0,0.0
756.7315,464.5636,78268653,0.7375,0.11702127,-29.950674,-53.90073,-0.017993242,0.0048439205,0.04621029,3.355443E-6,0.0,0.0
756.7315,464.5636,78268669,0.7375,0.11702127,-14.192426,-10.135755,-0.017993242,0.0048439205,0.04621029,3.355443E-6,0.0,0.0
756.7315,464.5636,78268686,0.7375,0.11702127,0.016560195,40.030468,-0.017993242,0.0048439205,0.04621029,0.0,0.0,0.0
756.3017,464.5636,78268703,0.75,0.11702127,-10.32953,52.46416,-0.017993242,0.0048439205,0.04621029,0.0,0.0,0.0
755.8421,464.5636,78268720,0.75,0.09574468,-26.07893,23.612143,-0.017993242,0.0048439205,0.04621029,0.0,0.0,0.0
754.7996,466.98938,78268736,0.7375,0.09574468,-54.279408,54.47763,-0.017993242,0.0048439205,0.04621029,0.0,0.0,0.0
752.7879,474.09204,78268753,0.7625,0.08510638,-101.70053,259.5726,-0.017993242,0.0048439205,0.04621029,0.0,0.0,0.0
750.1773,485.1996,78268770,0.75,0.08510638,-159.78969,625.607,-0.017993242,0.0048439205,0.04621029,0.0,0.0,0.0
747.12115,493.39905,78268786,0.75,0.10638297,-214.15038,785.16473,-0.017993242,0.0048439205,0.04621029,0.0,0.0,0.0
743.3791,499.84912,78268803,0.75,0.12765957,-248.27863,684.80945,-0.017993242,0.0048439205,0.04621029,0.0,0.0,0.0
738.39307,507.52356,78268820,0.7625,0.09574468,-288.12448,490.42288,-0.017993242,0.0048439205,0.04621029,0.0,0.0,0.0
732.0319,519.1311,78268837,0.75,0.08510638,-366.27292,482.7393,-0.017993242,0.0048439205,0.04621029,0.0,0.0,0.0
725.44714,532.10803,78268853,0.75,0.06382979,-446.19324,679.788,-0.017993242,0.0048439205,0.04621029,0.0,0.0,0.0
719.9763,543.22656,78268870,0.7625,0.08510638,-453.6592,887.7681,-0.017993242,0.0048439205,0.04621029,0.0,0.0,0.0
715.67065,551.7688,78268887,0.75,0.10638297,-339.71237,736.44257,0.0016054213,0.03587514,0.03696823,0.0,0.0,0.0
711.1382,559.254,78268903,0.75,0.12765957,-226.2479,468.70657,0.0016054213,0.03587514,0.03696823,0.0,0.0,0.0
706.3185,567.886,78268920,0.7625,0.11702127,-215.50952,338.908,0.0016054213,0.03587514,0.03696823,0.0,0.0,0.0
702.57306,578.0292,78268937,0.75,0.09574468,-228.71991,422.30145,0.0016054213,0.03587514,0.03696823,0.0,0.0,0.0
698.9681,589.0686,78268954,0.7625,0.08510638,-218.40427,607.537,0.0016054213,0.03587514,0.03696823,3.355443E-6,0.0,0.0
695.78625,598.6448,78268970,0.75,0.09574468,-185.86723,707.38086,0.0016054213,0.03587514,0.03696823,3.355443E-6,0.0,0.0
693.20154,606.9043,78268987,0.75,0.12765957,-147.40414,617.6391,0.0016054213,0.03587514,0.03696823,3.355443E-6,0.0,0.0
690.05975,614.2905,78269004,0.7625,0.12765957,-147.69427,467.5323,0.0016054213,0.03587514,0.03696823,3.355443E-6,0.0,0.0
686.9343,620.62024,78269020,0.7625,0.10638297,-163.07846,351.73767,0.0016054213,0.03587514,0.03696823,0.0,0.0,0.0
683.6559,627.3363,78269037,0.7625,0.08510638,-178.61124,306.40994,0.0016054213,0.03587514,0.03696823,0.0,0.0,0.0
680.51135,633.8146,78269054,0.7375,0.06382979,-199.97125,328.43893,0.0016054213,0.03587514,0.03696823,0.0,0.0,0.0
677.0822,641.1985,78269071,0.7625,0.06382979,-211.81863,401.9738,0.0016054213,0.03587514,0.03696823,0.0,0.0,0.0
674.5126,648.03186,78269087,0.7625,0.06382979,-184.30284,441.65717,0.0016054213,0.03587514,0.03696823,0.0,0.0,0.0
671.659,653.10425,78269104,0.7625,0.08510638,-163.55672,396.589,0.0016054213,0.03587514,0.03696823,0.0,0.0,0.0
669.6026,656.75977,78269121,0.7625,0.08510638,-124.97778,252.23192,0.0016054213,0.03587514,0.03696823,0.0,0.0,0.0
667.8846,658.9252,78269137,0.77500004,0.09574468,-100.288124,103.00896,0.0016054213,0.03587514,0.03696823,0.0,0.0,0.0
666.8782,660.7141,78269154,0.77500004,0.09574468,-61.029297,20.684353,0.0016054213,0.03587514,0.03696823,0.0,0.0,0.0
665.8145,662.60486,78269171,0.7625,0.09574468,-29.602165,13.698026,0.0016054213,0.03587514,0.03696823,0.0,0.0,0.0
664.7639,662.6998,78269188,0.77500004,0.09574468,-28.329748,9.11535,0.0016054213,0.03587514,0.03696823,0.0,0.0,0.0
663.7112,662.6998,78269204,0.77500004,0.10638297,-44.00656,-22.454754,0.0016054213,0.03587514,0.03696823,0.0,0.0,0.0
663.7618,663.58826,78269221,0.77500004,0.10638297,-29.814919,-12.868579,0.0016054213,0.03587514,0.03696823,0.0,0.0,0.0
663.26196,663.58826,78269238,0.77500004,0.10638297,-12.997252,-16.344654,0.0016054213,0.03587514,0.03696823,0.0,0.0,0.0
663.26196,663.58826,78269252,0.77500004,0.09574468,5.628176,-9.895804,0.0016054213,0.03587514,0.03696823,0.0,0.0,0.0
662.26227,663.58826,78269271,0.77500004,0.10638297,-11.994138,-1.3831499,0.0016054213,0.03587514,0.03696823,0.0,0.0,0.0
662.26227,663.58826,78269288,0.77500004,0.09574468,-27.717133,-19.711176,0.0016054213,0.03587514,0.03696823,0.0,0.0,0.0
662.26227,663.58826,78269304,0.7625,0.10638297,-6.6573358,0.06706766,0.0016054213,0.03587514,0.03696823,0.0,0.0,0.0
662.26227,663.58826,78269320,0.7625,0.10638297,5.8886824,0.017728811,0.0016054213,0.03587514,0.03696823,0.0,0.0,0.0
662.26227,663.58826,78269355,0.7625,0.09574468,5.04364,0.023569282,0.0016054213,0.03587514,0.03696823,0.0,0.0,0.0
662.26227,663.58826,78269371,0.77500004,0.10638297,-0.009663644,-0.011936852,0.0016054213,0.03587514,0.03696823,0.0,0.0,0.0
662.26227,663.58826,78269388,0.7625,0.09574468,-0.026222201,-0.023190068,0.0016054213,0.03587514,0.03696823,0.0,0.0,0.0
662.26227,663.58826,78269405,0.7625,0.09574468,-0.019111842,-0.016718399,-0.030715674,-0.0032998621,-0.034425735,0.0,0.0,0.0
662.26227,663.58826,78269417,0.77500004,0.09574468,-0.0011311627,-0.0033037136,-0.030715674,-0.0032998621,-0.034425735,0.0,0.0,0.0
662.26227,663.58826,78269438,0.75,0.09574468,-6.330406E-5,0.0021273664,-0.030715674,-0.0032998621,-0.034425735,0.0,0.0,0.0
662.26227,663.58826,78269450,0.7625,0.09574468,0.07080285,0.07049915,-0.030715674,-0.0032998621,-0.034425735,0.0,0.0,0.0
662.26227,663.58826,78269472,0.75,0.08510638,-4.5210222E-4,-5.0904975E-5,-0.030715674,-0.0032998621,-0.034425735,0.0,0.0,0.0
662.26227,662.3273,78269488,0.75,0.08510638,-0.04318826,-32.285217,-0.030715674,-0.0032998621,-0.034425735,0.0,0.0,0.0
662.26227,660.4823,78269505,0.75,0.08510638,0.014866271,-98.17882,-0.030715674,-0.0032998621,-0.034425735,0.0,0.0,0.0
663.32,658.15405,78269522,0.7375,0.06382979,25.853191,-156.56242,-0.030715674,-0.0032998621,-0.034425735,0.0,0.0,0.0
665.9795,652.8854,78269538,0.7375,0.06382979,107.68331,-250.86261,-0.030715674,-0.0032998621,-0.034425735,0.0,0.0,0.0
668.8405,645.9241,78269555,0.7375,0.08510638,204.3736,-414.49533,-0.030715674,-0.0032998621,-0.034425735,0.0,0.0,0.0
673.089,638.1234,78269572,0.7375,0.09574468,276.41074,-542.0457,-0.030715674,-0.0032998621,-0.034425735,0.0,0.0,0.0
677.89636,630.33813,78269589,0.7375,0.12765957,325.5289,-596.0339,-0.030715674,-0.0032998621,-0.034425735,0.0,0.0,0.0
683.6181,621.1433,78269605,0.725,0.10638297,361.21115,-591.7701,-0.030715674,-0.0032998621,-0.034425735,0.0,0.0,0.0
688.37897,611.78796,78269622,0.725,0.08510638,369.27917,-587.91486,-0.030715674,-0.0032998621,-0.034425735,0.0,0.0,0.0
695.37134,596.4928,78269639,0.71250004,0.08510638,393.02277,-757.2746,-0.030715674,-0.0032998621,-0.034425735,0.0,0.0,0.0
699.0551,586.2742,78269655,0.71250004,0.09574468,350.44702,-854.6199,-0.030715674,-0.0032998621,-0.034425735,0.0,0.0,0.0
703.32043,577.02246,78269672,0.725,0.12765957,285.2872,-776.5941,-0.030715674,-0.0032998621,-0.034425735,0.0,0.0,0.0
706.8829,567.52576,78269689,0.7375,0.10638297,212.48334,-605.77814,-0.030715674,-0.0032998621,-0.034425735,0.0,0.0,0.0
708.89435,561.6538,78269705,0.7375,0.08510638,120.875984,-378.54272,-0.030715674,-0.0032998621,-0.034425735,0.0,0.0,0.0
712.7514,551.1677,78269722,0.71250004,0.07446808,129.80507,-393.2792,-0.030715674,-0.0032998621,-0.034425735,0.0,0.0,0.0
715.6199,541.9374,78269739,0.7375,0.07446808,170.85483,-557.9595,-0.030715674,-0.0032998621,-0.034425735,0.0,0.0,0.0
718.73663,532.7036,78269756,0.725,0.08510638,187.73027,-606.2657,-0.030715674,-0.0032998621,-0.034425735,0.0,0.0,0.0
721.85895,523.45337,78269772,0.7375,0.10638297,196.3096,-603.2675,-0.030715674,-0.0032998621,-0.034425735,0.0,0.0,0.0
724.8665,516.042,78269789,0.725,0.10638297,162.7043,-471.67743,-0.030715674,-0.0032998621,-0.034425735,0.0,0.0,0.0
728.1373,509.1726,78269806,0.7375,0.08510638,188.31238,-417.6031,-0.030715674,-0.0032998621,-0.034425735,0.0,0.0,0.0
732.20056,498.4132,78269822,0.7375,0.06382979,214.84291,-466.50967,-0.030715674,-0.0032998621,-0.034425735,0.0,0.0,0.0
736.41956,489.03857,78269839,0.725,0.07446808,250.23247,-547.85077,-0.030715674,-0.0032998621,-0.034425735,0.0,0.0,0.0
739.4774,480.7334,78269856,0.725,0.08510638,244.12523,-576.51544,-0.030715674,-0.0032998621,-0.034425735,0.0,0.0,0.0
743.09717,472.59277,78269873,0.7375,0.11702127,225.13719,-552.53235,-0.030715674,-0.0032998621,-0.034425735,0.0,0.0,0.0
745.092,468.05542,78269889,0.725,0.12765957,164.10155,-381.88666,-0.030715674,-0.0032998621,-0.034425735,0.0,0.0,0.0
748.41327,462.46838,78269906,0.725,0.12765957,136.65022,-253.69995,-0.030715674,-0.0032998621,-0.034425735,0.0,0.0,0.0
752.65717,457.5227,78269923,0.725,0.11702127,193.30232,-217.5258,-0.030715674,-0.0032998621,-0.034425735,0.0,0.0,0.0
756.79596,453.84424,78269939,0.7375,0.10638297,259.2111,-205.07191,-0.024572536,-0.0026398897,0.020459175,0.0,0.0,0.0
761.588,450.13538,78269956,0.7375,0.08510638,311.29172,-210.58376,-0.024572536,-0.0026398897,0.020459175,0.0,0.0,0.0
766.6252,447.0614,78269973,0.725,0.08510638,329.21698,-156.30612,-0.024572536,-0.0026398897,0.020459175,0.0,0.0,0.0
772.5387,445.2202,78269990,0.7375,0.08510638,343.98325,-104.475464,-0.024572536,-0.0026398897,0.020459175,0.0,0.0,0.0
779.3919,445.01648,78270006,0.75,0.08510638,389.34326,-30.431131,-0.024572536,-0.0026398897,0.020459175,0.0,0.0,0.0
785.44727,445.01648,78270023,0.725,0.08510638,418.46677,49.615273,-0.024572536,-0.0026398897,0.020459175,0.0,0.0,0.0
791.2776,445.01648,78270040,0.725,0.08510638,399.62207,77.237724,-0.024572536,-0.0026398897,0.020459175,0.0,0.0,0.0
795.9309,445.01648,78270056,0.7375,0.09574468,338.73355,53.821423,-0.024572536,-0.0026398897,0.020459175,0.0,0.0,0.0
800.56067,445.90503,78270073,0.7375,0.11702127,265.9799,50.279606,-0.024572536,-0.0026398897,0.020459175,0.0,0.0,0.0
804.77826,447.9319,78270090,0.75,0.11702127,221.62363,85.29361,-0.024572536,-0.0026398897,0.020459175,0.0,0.0,0.0
810.2161,448.92664,78270107,0.75,0.10638297,248.1126,107.13499,-0.024572536,-0.0026398897,0.020459175,0.0,0.0,0.0
814.5273,450.70935,78270123,0.725,0.12765957,269.11502,125.12345,-0.024572536,-0.0026398897,0.020459175,0.0,0.0,0.0
818.87695,452.53882,78270140,0.7375,0.12765957,281.17712,122.97816,-0.024572536,-0.0026398897,0.020459175,0.0,0.0,0.0
822.9784,454.3567,78270157,0.7375,0.10638297,266.79874,125.847115,-0.024572536,-0.0026398897,0.020459175,0.0,0.0,0.0
826.0728,456.1902,78270173,0.7375,0.09574468,200.91313,124.45141,-0.024572536,-0.0026398897,0.020459175,0.0,0.0,0.0
828.1465,458.56714,78270190,0.75,0.09574468,127.19417,115.162,-0.024572536,-0.0026398897,0.020459175,0.0,0.0,0.0
830.918,461.641,78270207,0.7375,0.08510638,95.160126,164.69022,-0.024572536,-0.0026398897,0.020459175,0.0,0.0,0.0
832.5241,464.2389,78270223,0.7375,0.08510638,76.96905,180.7993,-0.024572536,-0.0026398897,0.020459175,0.0,0.0,0.0
835.1429,470.61475,78270240,0.7375,0.06382979,102.56904,275.26813,-0.024572536,-0.0026398897,0.020459175,0.0,0.0,0.0
837.24927,476.23132,78270257,0.725,0.06382979,126.832664,386.37122,-0.024572536,-0.0026398897,0.020459175,0.0,0.0,0.0
838.7678,481.78113,78270274,0.725,0.06382979,117.40824,424.83905,-0.024572536,-0.0026398897,0.020459175,0.0,0.0,0.0
839.20465,486.2047,78270290,0.7375,0.08510638,68.30512,390.00546,-0.024572536,-0.0026398897,0.020459175,0.0,0.0,0.0
839.20465,491.9469,78270307,0.7375,0.08510638,-4.0982404,322.3988,-0.024572536,-0.0026398897,0.020459175,0.0,0.0,0.0
838.4959,495.5155,78270324,0.75,0.09574468,-66.400764,243.45316,-0.024572536,-0.0026398897,0.020459175,0.0,0.0,0.0
837.4936,499.9673,78270340,0.725,0.09574468,-99.60955,235.53317,-0.024572536,-0.0026398897,0.020459175,0.0,0.0,0.0
836.19934,503.21912,78270357,0.7375,0.10638297,-103.76355,209.33826,-0.024572536,-0.0026398897,0.020459175,0.0,0.0,0.0
833.8458,505.94446,78270374,0.7375,0.10638297,-133.24123,162.14204,-0.024572536,-0.0026398897,0.020459175,0.0,0.0,0.0
830.4616,508.31873,78270391,0.7375,0.12765957,-192.04669,115.846115,-0.024572536,-0.0026398897,0.020459175,0.0,0.0,0.0
824.2891,512.0631,78270407,0.7375,0.10638297,-308.98447,129.42734,-0.024572536,-0.0026398897,0.020459175,0.0,0.0,0.0
816.36383,515.04285,78270424,0.7375,0.11702127,-491.25168,188.34113,-0.024572536,-0.0026398897,0.020459175,0.0,0.0,0.0
805.08997,518.5232,78270441,0.7375,0.08510638,-671.0337,215.02455,-0.024572536,-0.0026398897,0.020459175,0.0,0.0,0.0
795.3221,519.63245,78270457,0.75,0.08510638,-773.1102,156.64807,-0.024572536,-0.0026398897,0.020459175,0.0,0.0,0.0
783.386,520.5393,78270474,0.725,0.08510638,-798.1589,57.317894,-0.0036580265,-0.0021119118,0.032367706,0.0,0.0,0.0
773.5974,520.5393,78270491,0.725,0.08510638,-731.0415,-22.863205,-0.0036580265,-0.0021119118,0.032367706,0.0,0.0,0.0
764.8893,521.42773,78270508,0.7375,0.09574468,-610.45575,-30.934372,-0.0036580265,-0.0021119118,0.032367706,0.0,0.0,0.0
759.53094,521.6764,78270524,0.75,0.09574468,-410.40652,-23.800566,-0.0036580265,-0.0021119118,0.032367706,0.0,0.0,0.0
754.9332,523.5596,78270541,0.725,0.08510638,-233.9174,46.28902,-0.0036580265,-0.0021119118,0.032367706,0.0,0.0,0.0
752.27405,524.09326,78270558,0.6375,0.07446808,-87.846695,83.64126,-0.0036580265,-0.0021119118,0.032367706,0.0,0.0,0.0
751.73315,524.09326,78270562,0.2875,0.08510638,-65.772514,79.022766,-0.0036580265,-0.0021119118,0.032367706,0.0,0.0,0.0
751.73315,524.09326,78270569,0.2875,0.08510638,-65.772514,79.022766,-0.0036580265,-0.0021119118,0.032367706,0.0,0.0,0.0
894.18677,445.01648,78270957,0.625,0.08510638,0.0,0.0,-0.0036580265,-0.0021119118,0.032367706,0.0,0.0,0.0
894.18677,445.01648,78270975,0.6875,0.08510638,0.14619198,0.065168716,-0.0036580265,-0.0021119118,0.032367706,0.0,0.0,0.0
894.18677,445.01648,78270992,0.71250004,0.08510638,-0.075845234,-0.03520418,-0.0036580265,-0.0021119118,0.032367706,0.0,0.0,0.0
894.18677,445.01648,78271009,0.71250004,0.08510638,-0.019557962,-0.008068982,-0.018926412,-0.017689556,-0.0861063,0.0,0.0,0.0
894.18677,445.01648,78271017,0.7375,0.08510638,-0.031688694,-0.016159592,-0.018926412,-0.017689556,-0.0861063,0.0,0.0,0.0
894.18677,445.01648,78271042,0.725,0.08510638,0.008206985,0.0050489344,-0.018926412,-0.017689556,-0.0861063,0.0,0.0,0.0
894.18677,445.01648,78271059,0.725,0.08510638,-0.023677152,-0.009598075,-0.018926412,-0.017689556,-0.0861063,0.0,0.0,0.0
894.18677,445.01648,78271076,0.725,0.09574468,0.036492143,0.017570533,-0.018926412,-0.017689556,-0.0861063,0.0,0.0,0.0
894.18677,445.01648,78271082,0.7375,0.09574468,0.08281076,0.04090979,-0.018926412,-0.017689556,-0.0861063,0.0,0.0,0.0
894.18677,445.01648,78271110,0.725,0.09574468,-0.01617893,-0.008938167,-0.018926412,-0.017689556,-0.0861063,0.0,0.0,0.0
894.18677,445.01648,78271143,0.7375,0.10638297,0.04669377,0.022121554,-0.018926412,-0.017689556,-0.0861063,0.0,0.0,0.0
894.18677,445.01648,78271159,0.7375,0.10638297,-0.07304321,-0.039311323,-0.018926412,-0.017689556,-0.0861063,0.0,0.0,0.0
894.18677,445.01648,78271176,0.7375,0.12765957,0.0067593963,0.003765414,-0.018926412,-0.017689556,-0.0861063,0.0,0.0,0.0
894.18677,445.01648,78271193,0.725,0.10638297,0.032020766,0.014949553,-0.018926412,-0.017689556,-0.0861063,0.0,0.0,0.0
894.18677,445.01648,78271209,0.7375,0.09574468,-0.0038959498,-0.002904802,-0.018926412,-0.017689556,-0.0861063,3.355443E-6,0.0,0.0
887.78796,461.23364,78271226,0.75,0.08510638,-201.60172,515.19214,-0.018926412,-0.017689556,-0.0861063,3.355443E-6,0.0,0.0
884.6575,469.12122,78271243,0.725,0.07446808,-331.97144,830.96643,-0.018926412,-0.017689556,-0.0861063,3.355443E-6,0.0,0.0
882.2756,477.58923,78271260,0.725,0.07446808,-296.30237,821.3758,-0.018926412,-0.017689556,-0.0861063,3.355443E-6,0.0,0.0
880.0063,487.43384,78271276,0.725,0.07446808,-191.05139,699.1936,-0.018926412,-0.017689556,-0.0861063,0.0,0.0,0.0
878.80884,494.82935,78271293,0.7375,0.08510638,-51.0827,457.4714,-0.018926412,-0.017689556,-0.0861063,0.0,0.0,0.0
876.8542,501.30566,78271310,0.725,0.12765957,-60.844208,438.48026,-0.018926412,-0.017689556,-0.0861063,0.0,0.0,0.0
874.3146,510.4065,78271326,0.7375,0.10638297,-93.97453,422.20016,-0.018926412,-0.017689556,-0.0861063,0.0,0.0,0.0
871.19977,521.4082,78271343,0.75,0.09574468,-155.20703,513.48645,-0.018926412,-0.017689556,-0.0861063,0.0,0.0,0.0
868.5341,536.21606,78271360,0.725,0.08510638,-197.36284,803.4599,-0.018926412,-0.017689556,-0.0861063,0.0,0.0,0.0
867.1184,547.129,78271376,0.7375,0.11702127,-167.52081,897.63293,-0.018926412,-0.017689556,-0.0861063,0.0,0.0,0.0
865.4659,554.43677,78271393,0.725,0.12765957,-100.54104,713.44904,-0.018926412,-0.017689556,-0.0861063,0.0,0.0,0.0
864.5419,562.78345,78271410,0.7375,0.11702127,-49.858246,481.50226,-0.018926412,-0.017689556,-0.0861063,0.0,0.0,0.0
862.80237,571.5106,78271427,0.725,0.09574468,-42.597946,364.32236,-0.018926412,-0.017689556,-0.0861063,0.0,0.0,0.0
860.4583,582.6217,78271443,0.725,0.08510638,-98.98912,513.2413,-0.018926412,-0.017689556,-0.0861063,0.0,0.0,0.0
859.4264,593.6277,78271460,0.7375,0.08510638,-115.39636,686.81964,-0.018926412,-0.017689556,-0.0861063,0.0,0.0,0.0
858.06665,601.86194,78271477,0.7375,0.08510638,-90.28991,670.19666,-0.018926412,-0.017689556,-0.0861063,0.0,0.0,0.0
856.49225,607.7195,78271493,0.725,0.10638297,-76.41309,482.31647,-0.018926412,-0.017689556,-0.0861063,0.0,0.0,0.0
854.105,614.6492,78271510,0.75,0.12765957,-89.318214,296.21008,-0.018926412,-0.017689556,-0.0861063,0.0,0.0,0.0
851.8502,620.5414,78271527,0.75,0.10638297,-147.48648,247.44012,-0.018926412,-0.017689556,-0.0861063,0.0,0.0,0.0
850.23065,627.83813,78271544,0.7375,0.08510638,-154.97763,319.6099,-0.018926412,-0.017689556,-0.0861063,0.0,0.0,0.0
848.6875,634.3678,78271560,0.7375,0.07446808,-112.56862,406.95422,0.032858863,0.033848345,0.011115074,0.0,0.0,0.0
847.649,639.88086,78271577,0.75,0.07446808,-66.49971,387.04434,0.032858863,0.033848345,0.011115074,0.0,0.0,0.0
846.6111,644.36536,78271594,0.7375,0.06382979,-37.205765,310.7651,0.032858863,0.033848345,0.011115074,0.0,0.0,0.0
845.5706,648.0642,78271610,0.725,0.06382979,-40.740532,223.30363,0.032858863,0.033848345,0.011115074,0.0,0.0,0.0
845.2027,650.60254,78271627,0.75,0.06382979,-33.41274,128.56618,0.032858863,0.033848345,0.011115074,0.0,0.0,0.0
844.5008,652.0377,78271644,0.7375,0.06382979,-25.248314,61.05771,0.032858863,0.033848345,0.011115074,0.0,0.0,0.0
844.20306,652.0377,78271661,0.725,0.06382979,-13.706565,-16.68272,0.032858863,0.033848345,0.011115074,0.0,0.0,0.0
843.41547,652.0377,78271677,0.65000004,0.06382979,-15.919606,-68.03661,0.032858863,0.033848345,0.011115074,0.0,0.0,0.0
842.70355,652.0377,78271689,0.16250001,0.06382979,-30.071762,-86.89821,0.032858863,0.033848345,0.011115074,-1.5005995E-5,-7.5029975E-6,0.0
842.70355,652.0377,78271696,0.16250001,0.06382979,-30.071762,-86.89821,0.032858863,0.033848345,0.011115074,-1.5005995E-5,-7.5029975E-6,0.0
839.20465,461.89807,78272555,0.6375,0.10638297,0.0,0.0,-0.0057128966,0.027078688,0.0408926,0.0,0.0,0.0
839.20465,461.89807,78272580,0.71250004,0.10638297,-0.009504469,-0.0060976306,-0.0057128966,0.027078688,0.0408926,0.0,0.0,0.0
839.20465,461.89807,78272603,0.71250004,0.09574468,0.0044996194,0.0018525706,-0.0057128966,0.027078688,0.0408926,0.0,0.0,0.0
839.20465,461.89807,78272630,0.725,0.08510638,0.04227822,0.024077386,0.011429697,-0.010337025,-0.03128624,3.355443E-6,0.0,0.0
860.3462,444.92603,78272646,0.725,0.08510638,657.9517,-528.18884,0.011429697,-0.010337025,-0.03128624,3.355443E-6,0.0,0.0
869.36206,439.8827,78272663,0.725,0.07446808,1145.6066,-847.2446,0.011429697,-0.010337025,-0.03128624,3.355443E-6,0.0,0.0
881.8293,432.9602,78272680,0.725,0.06382979,1142.601,-723.5599,0.011429697,-0.010337025,-0.03128624,3.355443E-6,0.0,0.0
892.08826,428.84534,78272697,0.725,0.06382979,967.2326,-496.6816,0.011429697,-0.010337025,-0.03128624,0.0,0.0,0.0
901.901,428.1349,78272713,0.725,0.07446808,573.6086,-49.74307,0.011429697,-0.010337025,-0.03128624,0.0,0.0,0.0
911.1792,428.8009,78272730,0.7375,0.08510638,411.44418,202.47066,0.011429697,-0.010337025,-0.03128624,0.0,0.0,0.0
919.9235,431.39087,78272747,0.725,0.07446808,463.34308,264.27365,0.011429697,-0.010337025,-0.03128624,0.0,0.0,0.0
928.7955,434.20447,78272763,0.725,0.07446808,470.80466,320.36206,0.011429697,-0.010337025,-0.03128624,0.0,0.0,0.0
937.66675,437.90552,78272780,0.725,0.08510638,513.8166,315.75336,0.011429697,-0.010337025,-0.03128624,0.0,0.0,0.0
944.95013,442.5641,78272797,0.7375,0.09574468,471.766,312.32462,0.011429697,-0.010337025,-0.03128624,0.0,0.0,0.0
953.2981,448.10217,78272814,0.71250004,0.12765957,456.5033,353.99088,0.011429697,-0.010337025,-0.03128624,0.0,0.0,0.0
958.26465,452.76294,78272830,0.71250004,0.12765957,365.64368,353.88214,0.011429697,-0.010337025,-0.03128624,0.0,0.0,0.0
960.99243,456.26025,78272847,0.725,0.10638297,219.73212,305.1805,0.011429697,-0.010337025,-0.03128624,0.0,0.0,0.0
964.5714,465.20544,78272864,0.725,0.09574468,108.5577,346.0415,0.011429697,-0.010337025,-0.03128624,0.0,0.0,0.0
966.3965,473.68457,78272880,0.71250004,0.08510638,38.722965,491.20715,0.011429697,-0.010337025,-0.03128624,0.0,0.0,0.0
966.1377,484.2019,78272897,0.71250004,0.07446808,3.0235372,717.95483,0.011429697,-0.010337025,-0.03128624,0.0,0.0,0.0
963.74,491.6311,78272914,0.7375,0.08510638,-120.669014,702.2258,0.011429697,-0.010337025,-0.03128624,0.0,0.0,0.0
960.28516,497.77576,78272931,0.725,0.10638297,-271.43677,504.8849,0.011429697,-0.010337025,-0.03128624,0.0,0.0,0.0
952.18945,504.62793,78272947,0.7375,0.10638297,-464.78552,305.01303,0.011429697,-0.010337025,-0.03128624,0.0,0.0,0.0
940.597,512.8832,78272964,0.725,0.10638297,-690.943,318.4753,0.011429697,-0.010337025,-0.03128624,0.0,0.0,0.0
927.5614,517.74927,78272981,0.7375,0.09574468,-918.75665,381.88882,0.011429697,-0.010337025,-0.03128624,0.0,0.0,0.0
915.0614,521.4579,78272997,0.7375,0.08510638,-974.21265,283.81128,0.011429697,-0.010337025,-0.03128624,0.0,0.0,0.0
898.3581,522.3163,78273014,0.75,0.08510638,-1028.5186,101.77647,0.011429697,-0.010337025,-0.03128624,0.0,0.0,0.0
887.2616,522.3163,78273031,0.7375,0.10638297,-915.92896,-88.302155,0.011429697,-0.010337025,-0.03128624,0.0,0.0,0.0
878.556,520.287,78273048,0.725,0.11702127,-694.51294,-195.56212,0.011429697,-0.010337025,-0.03128624,0.0,0.0,0.0
875.1233,519.65076,78273064,0.6375,0.11702127,-354.4966,-198.34145,0.011429697,-0.010337025,-0.03128624,0.0,0.0,0.0
874.1933,519.65076,78273071,0.3125,0.12765957,-208.45506,-182.78781,0.011429697,-0.010337025,-0.03128624,0.0,0.0,0.0
874.1933,519.65076,78273077,0.3125,0.12765957,-208.45506,-182.78781,0.011429697,-0.010337025,-0.03128624,0.0,0.0,0.0
