x,y,timestamp,pressure,fingerarea,velocityx,velocityy,accelx,accely,accelz,gyrox,gyroy,gyroz
534.3039,231.77576,14505170,0.4375,0.11702127,0.0,0.0,-0.00584507,0.00280568,0.0016384125,0.0,0.0,0.0
534.3039,231.77576,14505196,0.375,0.09574468,0.031149028,0.011907324,0.011323959,0.018244535,-0.046689034,0.0,0.0,0.0
534.3039,231.77576,14505200,0.3625,0.09574468,0.018027838,0.009503612,0.011323959,0.018244535,-0.046689034,0.0,0.0,0.0
534.3039,231.77576,14505208,0.3625,0.09574468,0.018027838,0.009503612,0.011323959,0.018244535,-0.046689034,0.0,0.0,0.0
544.30066,180.24255,14505386,0.7,0.10638297,0.0,0.0,0.011323959,0.018244535,-0.046689034,0.0,0.0,0.0
544.30066,180.24255,14505413,0.75,0.12765957,0.0030071684,7.2035764E-4,0.011323959,0.018244535,-0.046689034,0.0,0.0,0.0
528.959,215.82312,14505447,0.77500004,0.08510638,-736.3825,1681.4016,0.011323959,0.018244535,-0.046689034,0.0,0.0,0.0
521.7939,241.98718,14505464,0.7875,0.12765957,-781.7339,2173.5718,0.011323959,0.018244535,-0.046689034,0.0,0.0,0.0
515.73596,274.25085,14505480,0.7875,0.08510638,-667.94965,2456.1638,0.011323959,0.018244535,-0.046689034,0.0,0.0,0.0
511.98773,298.7262,14505497,0.8,0.10638297,-411.63922,2278.2703,0.011323959,0.018244535,-0.046689034,0.0,0.0,0.0
508.83502,329.18604,14505514,0.8,0.08510638,4.9598947,1530.7101,0.011323959,0.018244535,-0.046689034,0.0,0.0,0.0
506.74225,350.82556,14505531,0.825,0.09574468,22.62599,1424.0548,0.011323959,0.018244535,-0.046689034,0.0,0.0,0.0
506.31305,379.615,14505547,0.83750004,0.08510638,8.457781,1489.8169,0.011323959,0.018244535,-0.046689034,0.0,0.0,0.0
506.31305,401.17493,14505564,0.825,0.09574468,53.83151,1421.0842,0.011323959,0.018244535,-0.046689034,0.0,0.0,0.0
507.9356,429.18774,14505581,0.825,0.08510638,123.78819,1470.2172,0.011323959,0.018244535,-0.046689034,0.0,0.0,0.0
510.91833,449.4994,14505597,0.83750004,0.12765957,197.67848,1418.1376,0.011323959,0.018244535,-0.046689034,0.0,0.0,0.0
515.7396,469.93262,14505614,0.8125,0.08510638,300.24887,1200.6014,0.011323959,0.018244535,-0.046689034,0.0,0.0,0.0
519.902,489.77344,14505631,0.8125,0.08510638,353.94604,1136.5011,0.011323959,0.018244535,-0.046689034,0.0,0.0,0.0
523.99786,504.33508,14505647,0.8125,0.12765957,335.77258,882.82367,0.011323959,0.018244535,-0.046689034,0.0,0.0,0.0
527.00726,519.3019,14505664,0.8,0.09574468,263.9539,762.6177,0.011323959,0.018244535,-0.046689034,0.0,0.0,0.0
529.08606,533.1948,14505681,0.8,0.09574468,143.94809,703.6475,0.011323959,0.018244535,-0.046689034,0.0,0.0,0.0
530.7304,543.9979,14505698,0.8,0.09574468,73.52659,625.9187,0.011323959,0.018244535,-0.046689034,0.0,0.0,0.0
531.77026,549.676,14505714,0.8125,0.11702127,24.29824,458.82513,0.009059161,0.014595628,0.026648521,0.0,0.0,0.0
531.80475,554.3384,14505731,0.8,0.12765957,-13.59918,187.25687,0.009059161,0.014595628,0.026648521,0.0,0.0,0.0
531.80475,558.0303,14505748,0.8,0.12765957,-33.84719,31.816605,0.009059161,0.014595628,0.026648521,0.0,0.0,0.0
531.80475,560.83167,14505764,0.8,0.12765957,-44.649776,1.2790484,0.009059161,0.014595628,0.026648521,0.0,0.0,0.0
531.80475,563.62646,14505781,0.8,0.12765957,-31.55808,65.33495,0.009059161,0.014595628,0.026648521,0.0,0.0,0.0
532.30457,565.2106,14505798,0.7875,0.12765957,0.42384574,80.39903,0.009059161,0.014595628,0.026648521,0.0,0.0,0.0
532.30457,567.109,14505815,0.8,0.11702127,18.187555,76.03077,0.009059161,0.014595628,0.026648521,0.0,0.0,0.0
532.30457,568.9513,14505831,0.7875,0.11702127,11.602223,82.766014,0.009059161,0.014595628,0.026648521,0.0,0.0,0.0
533.0871,569.9094,14505848,0.7875,0.11702127,20.87639,57.02414,0.009059161,0.014595628,0.026648521,0.0,0.0,0.0
533.7163,571.02795,14505865,0.8,0.11702127,35.726,50.75701,0.009059161,0.014595628,0.026648521,0.0,0.0,0.0
534.6678,573.6078,14505881,0.7875,0.09574468,58.895233,86.47353,0.009059161,0.014595628,0.026648521,0.0,0.0,0.0
536.09875,576.1515,14505898,0.8,0.09574468,83.12677,136.87253,0.009059161,0.014595628,0.026648521,0.0,0.0,0.0
537.7411,579.0708,14505915,0.77500004,0.09574468,108.23511,200.72748,0.009059161,0.014595628,0.026648521,0.0,0.0,0.0
538.7805,580.069,14505932,0.7625,0.08510638,104.65295,161.27,0.009059161,0.014595628,0.026648521,0.0,0.0,0.0
540.34814,581.88696,14505948,0.675,0.07446808,93.80523,98.00682,0.009059161,0.014595628,0.026648521,0.0,0.0,0.0
544.99426,586.51807,14505965,0.3,0.08510638,182.47697,150.5005,0.009059161,0.014595628,0.026648521,0.0,0.0,0.0
544.99426,586.51807,14505971,0.3,0.08510638,182.47697,150.5005,0.009059161,0.014595628,0.026648521,0.0,0.0,0.0
500.315,225.55615,14507012,0.6625,0.08510638,0.0,0.0,0.008997858,-0.0066588223,-0.024544716,0.0,0.0,0.0
500.315,225.55615,14507034,0.71250004,0.06382979,-0.010918159,-0.004295856,0.008997858,-0.0066588223,-0.024544716,0.0,0.0,0.0
500.315,225.55615,14507051,0.7625,0.08510638,0.018634032,0.008041196,0.008997858,-0.0066588223,-0.024544716,0.0,0.0,0.0
500.315,225.55615,14507068,0.8125,0.08510638,0.004128145,0.001644746,0.008997858,-0.0066588223,-0.024544716,0.0,0.0,0.0
519.1326,210.79883,14507085,0.8,0.09574468,699.36316,-548.4691,0.008997858,-0.0066588223,-0.024544716,0.0,0.0,0.0
534.80756,208.50757,14507101,0.7875,0.08510638,1212.0094,-642.4042,0.008997858,-0.0066588223,-0.024544716,0.0,0.0,0.0
557.1587,209.79431,14507118,0.77500004,0.08510638,1699.2668,-395.93387,0.008997858,-0.0066588223,-0.024544716,0.0,0.0,0.0
574.9446,214.8899,14507135,0.77500004,0.08510638,1715.9521,49.455032,0.008997858,-0.0066588223,-0.024544716,0.0,0.0,0.0
591.85876,220.83081,14507151,0.77500004,0.08510638,1381.5602,539.8817,0.008997858,-0.0066588223,-0.024544716,0.0,0.0,0.0
609.73004,227.76099,14507168,0.7875,0.09574468,957.4473,736.0967,0.008997858,-0.0066588223,-0.024544716,0.0,0.0,0.0
622.4339,232.41809,14507185,0.7625,0.12765957,846.1115,497.46982,0.008997858,-0.0066588223,-0.024544716,0.0,0.0,0.0
631.25024,239.44983,14507202,0.75,0.12765957,610.80865,399.98166,0.008997858,-0.0066588223,-0.024544716,0.0,0.0,0.0
638.9409,251.39062,14507218,0.75,0.09574468,339.09692,484.3117,0.008997858,-0.0066588223,-0.024544716,0.0,0.0,0.0
643.9658,269.96692,14507235,0.7375,0.09574468,149.44952,914.52765,0.008997858,-0.0066588223,-0.024544716,0.0,0.0,0.0
644.82635,284.35913,14507252,0.75,0.12765957,14.955787,1230.584,0.008997858,-0.0066588223,-0.024544716,0.0,0.0,0.0
642.8116,299.09814,14507268,0.7375,0.11702127,-152.77872,1216.8851,0.008997858,-0.0066588223,-0.024544716,0.0,0.0,0.0
636.6244,319.25732,14507285,0.7625,0.08510638,-423.75958,1142.5762,0.008997858,-0.0066588223,-0.024544716,0.0,0.0,0.0
629.1913,328.4231,14507302,0.77500004,0.09574468,-627.20197,858.38477,0.008997858,-0.0066588223,-0.024544716,0.0,0.0,0.0
613.7457,340.37378,14507319,0.7625,0.12765957,-885.1953,701.24,-0.0088017285,-0.005327046,-0.0036354065,0.0,0.0,0.0
601.08624,347.146,14507335,0.7875,0.12765957,-1041.0295,472.1108,-0.0088017285,-0.005327046,-0.0036354065,0.0,0.0,0.0
587.865,352.69702,14507352,0.7875,0.10638297,-1043.3253,215.11778,-0.0088017285,-0.005327046,-0.0036354065,0.0,0.0,0.0
570.5094,356.56152,14507369,0.7875,0.09574468,-1029.2454,149.91267,-0.0088017285,-0.005327046,-0.0036354065,0.0,0.0,0.0
552.6724,357.9431,14507385,0.7875,0.10638297,-1074.3895,5.027151,-0.0088017285,-0.005327046,-0.0036354065,0.0,0.0,0.0
535.72644,357.41248,14507402,0.8,0.10638297,-1155.6658,-87.08222,-0.0088017285,-0.005327046,-0.0036354065,0.0,0.0,0.0
517.0829,355.56763,14507419,0.8,0.09574468,-1174.5305,-203.0697,-0.0088017285,-0.005327046,-0.0036354065,0.0,0.0,0.0
500.42346,353.75037,14507435,0.8,0.12765957,-1081.5569,-248.62637,-0.0088017285,-0.005327046,-0.0036354065,0.0,0.0,0.0
487.26764,351.87683,14507452,0.8,0.12765957,-930.78925,-212.59554,-0.0088017285,-0.005327046,-0.0036354065,0.0,0.0,0.0
475.8172,350.83508,14507469,0.8125,0.12765957,-716.925,-146.4226,-0.0088017285,-0.005327046,-0.0036354065,0.0,0.0,0.0
466.50806,350.83508,14507486,0.8,0.10638297,-493.30933,-46.108646,-0.0088017285,-0.005327046,-0.0036354065,0.0,0.0,0.0
460.154,351.78552,14507502,0.75,0.10638297,-320.82047,48.477135,-0.0088017285,-0.005327046,-0.0036354065,0.0,0.0,0.0
458.8285,351.72363,14507510,0.4375,0.08510638,-246.46323,73.34593,-0.0088017285,-0.005327046,-0.0036354065,0.0,0.0,0.0
458.8285,351.72363,14507517,0.4375,0.08510638,-246.46323,73.34593,-0.0088017285,-0.005327046,-0.0036354065,0.0,0.0,0.0
587.2867,557.85645,14508762,0.6625,0.11702127,0.0,0.0,-0.0024331212,-0.019409329,0.013672829,0.0,0.0,0.0
587.2867,557.85645,14508789,0.71250004,0.11702127,0.028768266,0.024713594,-0.0024331212,-0.019409329,0.013672829,0.0,0.0,0.0
587.2867,557.85645,14508806,0.7375,0.11702127,-0.039699584,-0.03542947,-0.0024331212,-0.019409329,0.013672829,0.0,0.0,0.0
587.2867,557.85645,14508822,0.7625,0.11702127,0.041031994,0.042129267,-0.0024331212,-0.019409329,0.013672829,0.0,0.0,0.0
587.2867,557.85645,14508839,0.7875,0.10638297,0.025319282,0.024926692,-0.0024331212,-0.019409329,0.013672829,0.0,0.0,0.0
610.4736,556.234,14508856,0.7625,0.09574468,657.7414,-42.391712,-0.0024331212,-0.019409329,0.013672829,0.0,0.0,0.0
625.6018,555.1909,14508873,0.77500004,0.08510638,1282.9911,-95.02954,-0.0024331212,-0.019409329,0.013672829,0.0,0.0,0.0
640.16504,553.4263,14508889,0.7625,0.09574468,1483.8517,-124.80906,-0.0024331212,-0.019409329,0.013672829,0.0,0.0,0.0
656.2719,549.7471,14508906,0.75,0.08510638,1252.9081,-185.85248,-0.0024331212,-0.019409329,0.013672829,0.0,0.0,0.0
673.93567,545.0482,14508923,0.725,0.07446808,1026.8519,-268.20935,0.014053494,0.016472548,-0.0050611496,0.0,0.0,0.0
687.10077,540.4226,14508939,0.7625,0.09574468,868.43286,-334.23282,0.014053494,0.016472548,-0.0050611496,0.0,0.0,0.0
702.4853,534.8491,14508956,0.75,0.08510638,915.2765,-391.70374,0.014053494,0.016472548,-0.0050611496,0.0,0.0,0.0
716.87885,527.19824,14508973,0.75,0.09574468,841.99744,-443.54504,0.014053494,0.016472548,-0.0050611496,0.0,0.0,0.0
731.65155,520.2588,14508990,0.75,0.12765957,841.4652,-488.8399,0.014053494,0.016472548,-0.0050611496,0.0,0.0,0.0
743.1743,514.198,14509006,0.725,0.12765957,801.8311,-452.81137,0.014053494,0.016472548,-0.0050611496,0.0,0.0,0.0
753.6345,507.67883,14509023,0.725,0.10638297,643.2207,-396.93176,0.014053494,0.016472548,-0.0050611496,0.0,0.0,0.0
763.3437,501.813,14509040,0.725,0.08510638,514.1442,-351.6929,0.014053494,0.016472548,-0.0050611496,0.0,0.0,0.0
773.7072,494.68872,14509056,0.725,0.06382979,478.62912,-365.4968,0.014053494,0.016472548,-0.0050611496,0.0,0.0,0.0
781.43494,487.57678,14509073,0.725,0.06382979,473.6499,-411.27606,0.014053494,0.016472548,-0.0050611496,0.0,0.0,0.0
787.51776,480.79797,14509090,0.725,0.08510638,393.42447,-428.7093,0.014053494,0.016472548,-0.0050611496,0.0,0.0,0.0
791.7428,475.1953,14509107,0.725,0.10638297,248.90765,-398.95056,0.014053494,0.016472548,-0.0050611496,0.0,0.0,0.0
794.8519,469.65845,14509123,0.71250004,0.12765957,122.88806,-343.00803,0.014053494,0.016472548,-0.0050611496,0.0,0.0,0.0
796.8138,464.30945,14509140,0.725,0.12765957,42.09882,-292.81693,0.014053494,0.016472548,-0.0050611496,0.0,0.0,0.0
798.3364,460.37793,14509157,0.725,0.12765957,15.730891,-244.62518,0.014053494,0.016472548,-0.0050611496,0.0,0.0,0.0
798.87634,456.89185,14509173,0.71250004,0.10638297,-11.458113,-206.03665,0.014053494,0.016472548,-0.0050611496,0.0,0.0,0.0
799.01776,453.19092,14509190,0.725,0.08510638,-31.216436,-172.51396,0.014053494,0.016472548,-0.0050611496,0.0,0.0,0.0
797.74176,449.9242,14509207,0.725,0.08510638,-78.399734,-164.90431,0.014053494,0.016472548,-0.0050611496,0.0,0.0,0.0
795.1106,446.69714,14509223,0.7375,0.08510638,-156.83008,-171.11343,0.014053494,0.016472548,-0.0050611496,0.0,0.0,0.0
788.99414,442.9973,14509240,0.7375,0.08510638,-307.5288,-192.57077,0.014053494,0.016472548,-0.0050611496,0.0,0.0,0.0
780.5295,439.94324,14509257,0.7375,0.08510638,-518.5022,-209.55867,0.014053494,0.016472548,-0.0050611496,0.0,0.0,0.0
770.79535,439.68542,14509274,0.7375,0.08510638,-686.88525,-118.90364,0.014053494,0.016472548,-0.0050611496,0.0,0.0,0.0
760.8523,441.33972,14509290,0.75,0.09574468,-764.82336,45.38543,0.014053494,0.016472548,-0.0050611496,0.0,0.0,0.0
751.00415,444.03174,14509307,0.7625,0.10638297,-717.9275,219.79326,0.014053494,0.016472548,-0.0050611496,0.0,0.0,0.0
736.1156,448.61414,14509324,0.77500004,0.10638297,-786.9188,339.86963,0.014053494,0.016472548,-0.0050611496,0.0,0.0,0.0
721.93896,455.17102,14509340,0.75,0.12765957,-899.19635,434.3497,0.014053494,0.016472548,-0.0050611496,0.0,0.0,0.0
709.66113,461.6526,14509357,0.7625,0.11702127,-924.0874,489.26242,0.014053494,0.016472548,-0.0050611496,0.0,0.0,0.0
698.7108,470.37402,14509374,0.7875,0.08510638,-813.09576,556.16077,0.014053494,0.016472548,-0.0050611496,0.0,0.0,0.0
685.5553,481.47192,14509391,0.7625,0.08510638,-707.7535,665.4664,0.014053494,0.016472548,-0.0050611496,0.0,0.0,0.0
673.3831,492.18176,14509407,0.77500004,0.09574468,-687.06726,744.55896,0.014053494,0.016472548,-0.0050611496,0.0,0.0,0.0
664.7536,500.55664,14509424,0.77500004,0.12765957,-638.1601,689.111,0.014053494,0.016472548,-0.0050611496,0.0,0.0,0.0
657.8125,508.75903,14509441,0.77500004,0.11702127,-473.7081,549.6352,0.014053494,0.016472548,-0.0050611496,0.0,0.0,0.0
650.6627,520.974,14509457,0.7625,0.09574468,-301.64072,522.5,-0.0047572255,0.013178021,-0.004049301,0.0,0.0,0.0
647.614,534.06616,14509474,0.7875,0.09574468,-174.5924,699.074,-0.0047572255,0.013178021,-0.004049301,0.0,0.0,0.0
646.76733,544.7355,14509491,0.7625,0.09574468,-46.531563,829.6487,-0.0047572255,0.013178021,-0.004049301,0.0,0.0,0.0
648.14276,552.0841,14509508,0.7625,0.11702127,132.72746,677.2912,-0.0047572255,0.013178021,-0.004049301,0.0,0.0,0.0
650.71063,561.2792,14509524,0.7625,0.12765957,282.63474,479.6448,-0.0047572255,0.013178021,-0.004049301,0.0,0.0,0.0
654.84705,569.55334,14509541,0.75,0.08510638,358.9391,387.1645,-0.0047572255,0.013178021,-0.004049301,0.0,0.0,0.0
662.3267,578.9607,14509558,0.725,0.06382979,442.31506,448.77576,-0.0047572255,0.013178021,-0.004049301,0.0,0.0,0.0
676.20917,591.1322,14509574,0.75,0.08510638,719.4761,630.4047,-0.0047572255,0.013178021,-0.004049301,0.0,0.0,0.0
689.49634,599.44226,14509591,0.7625,0.09574468,966.34674,661.62616,-0.0047572255,0.013178021,-0.004049301,0.0,0.0,0.0
705.1738,605.0333,14509608,0.7625,0.08510638,1114.6669,511.474,-0.0047572255,0.013178021,-0.004049301,0.0,0.0,0.0
722.2645,605.8356,14509625,0.7625,0.08510638,1180.1259,210.82857,-0.0047572255,0.013178021,-0.004049301,0.0,0.0,0.0
736.5979,605.3762,14509641,0.75,0.08510638,1049.1495,-172.34637,-0.0047572255,0.013178021,-0.004049301,0.0,0.0,0.0
748.5953,601.5867,14509658,0.75,0.08510638,876.9692,-340.24393,-0.0047572255,0.013178021,-0.004049301,0.0,0.0,0.0
761.4214,594.5652,14509675,0.7375,0.07446808,712.7831,-487.5287,-0.0047572255,0.013178021,-0.004049301,0.0,0.0,0.0
772.9962,586.37146,14509691,0.75,0.08510638,603.85803,-633.3037,-0.0047572255,0.013178021,-0.004049301,0.0,0.0,0.0
782.93646,578.9132,14509708,0.7375,0.09574468,573.8391,-670.4534,-0.0047572255,0.013178021,-0.004049301,0.0,0.0,0.0
790.86615,571.5437,14509725,0.7375,0.12765957,509.24677,-586.12646,-0.0047572255,0.013178021,-0.004049301,0.0,0.0,0.0
796.1784,564.1332,14509741,0.7375,0.10638297,331.9139,-475.6389,-0.0047572255,0.013178021,-0.004049301,0.0,0.0,0.0
801.3815,558.56946,14509758,0.725,0.09574468,206.5526,-381.5508,-0.0047572255,0.013178021,-0.004049301,0.0,0.0,0.0
805.5184,553.0104,14509775,0.7375,0.08510638,154.56139,-322.36246,-0.0047572255,0.013178021,-0.004049301,0.0,0.0,0.0
810.15955,547.48926,14509792,0.7375,0.07446808,173.26462,-289.83746,-0.0047572255,0.013178021,-0.004049301,0.0,0.0,0.0
813.5066,541.96936,14509808,0.75,0.07446808,192.46814,-283.45328,-0.0047572255,0.013178021,-0.004049301,0.0,0.0,0.0
815.4592,536.9822,14509825,0.7375,0.08510638,144.16428,-297.633,-0.0047572255,0.013178021,-0.004049301,0.0,0.0,0.0
817.4276,533.0995,14509842,0.7375,0.08510638,75.5004,-258.37253,-0.0047572255,0.013178021,-0.004049301,0.0,0.0,0.0
818.20917,530.32104,14509858,0.725,0.10638297,14.861948,-185.59018,-0.0047572255,0.013178021,-0.004049301,0.0,0.0,0.0
819.51227,525.68835,14509875,0.7375,0.10638297,15.315016,-172.9033,-0.0047572255,0.013178021,-0.004049301,0.0,0.0,0.0
819.711,521.9751,14509892,0.725,0.12765957,13.181576,-196.8545,-0.0047572255,0.013178021,-0.004049301,0.0,0.0,0.0
819.711,519.85706,14509909,0.725,0.12765957,-15.998744,-187.07506,-0.0047572255,0.013178021,-0.004049301,0.0,0.0,0.0
819.711,518.0342,14509925,0.7375,0.12765957,-29.380472,-114.69675,-0.0047572255,0.013178021,-0.004049301,0.0,0.0,0.0
819.711,516.1504,14509942,0.7375,0.12765957,-29.788616,-61.844376,-0.0047572255,0.013178021,-0.004049301,0.0,0.0,0.0
819.711,514.2997,14509959,0.7375,0.12765957,-12.190066,-66.16172,-0.0047572255,0.013178021,-0.004049301,0.0,0.0,0.0
819.711,513.4313,14509975,0.7375,0.12765957,0.0039667427,-66.05532,-0.0047572255,0.013178021,-0.004049301,0.0,0.0,0.0
819.711,513.4313,14509987,0.75,0.12765957,0.036871463,-45.466587,-0.019805789,-0.00545758,-0.0032396317,0.0,0.0,0.0
819.711,513.4313,14510026,0.7375,0.12765957,-0.007802425,52.722168,-0.019805789,-0.00545758,-0.0032396317,0.0,0.0,0.0
819.711,513.4313,14510042,0.75,0.12765957,-0.0033484926,49.55186,-0.019805789,-0.00545758,-0.0032396317,0.0,0.0,0.0
819.711,513.4313,14510059,0.7625,0.10638297,-0.03803517,-0.024746861,-0.019805789,-0.00545758,-0.0032396317,0.0,0.0,0.0
819.711,514.8154,14510076,0.77500004,0.10638297,0.034073185,41.369625,-0.019805789,-0.00545758,-0.0032396317,0.0,0.0,0.0
819.711,516.6649,14510092,0.75,0.10638297,0.028405722,122.816185,-0.019805789,-0.00545758,-0.0032396317,0.0,0.0,0.0
819.711,519.3955,14510109,0.7625,0.08510638,-0.013593815,176.36383,-0.019805789,-0.00545758,-0.0032396317,0.0,0.0,0.0
819.711,522.8176,14510126,0.77500004,0.08510638,0.039775793,229.02095,-0.019805789,-0.00545758,-0.0032396317,0.0,0.0,0.0
819.2112,526.4916,14510143,0.7625,0.08510638,-14.762212,259.25613,-0.019805789,-0.00545758,-0.0032396317,0.0,0.0,0.0
818.23724,531.9525,14510159,0.7625,0.07446808,-46.057346,310.07767,-0.019805789,-0.00545758,-0.0032396317,0.0,0.0,0.0
817.7117,536.58167,14510176,0.7625,0.08510638,-60.585884,345.7948,-0.019805789,-0.00545758,-0.0032396317,0.0,0.0,0.0
817.7117,542.1328,14510193,0.7625,0.08510638,-38.264915,359.04166,-0.019805789,-0.00545758,-0.0032396317,0.0,0.0,0.0
817.7117,547.69324,14510209,0.75,0.10638297,-2.9119182,358.6458,-0.019805789,-0.00545758,-0.0032396317,0.0,0.0,0.0
817.7117,552.0963,14510226,0.75,0.10638297,20.568691,318.1546,-0.019805789,-0.00545758,-0.0032396317,0.0,0.0,0.0
817.8771,555.77893,14510243,0.75,0.12765957,22.873066,255.49239,-0.019805789,-0.00545758,-0.0032396317,0.0,0.0,0.0
818.42206,559.4934,14510260,0.75,0.12765957,24.582626,208.45624,-0.019805789,-0.00545758,-0.0032396317,0.0,0.0,0.0
818.9604,563.6271,14510276,0.75,0.12765957,39.07463,185.24681,-0.019805789,-0.00545758,-0.0032396317,0.0,0.0,0.0
820.28644,567.7643,14510293,0.7375,0.10638297,65.217476,229.4407,-0.019805789,-0.00545758,-0.0032396317,0.0,0.0,0.0
821.53577,569.9851,14510310,0.7625,0.09574468,93.192154,203.8389,-0.019805789,-0.00545758,-0.0032396317,0.0,0.0,0.0
823.07623,571.83496,14510326,0.77500004,0.08510638,107.72501,125.10994,-0.019805789,-0.00545758,-0.0032396317,0.0,0.0,0.0
825.0166,574.56665,14510343,0.75,0.08510638,122.28773,82.63915,-0.019805789,-0.00545758,-0.0032396317,0.0,0.0,0.0
827.08545,576.40564,14510360,0.7375,0.08510638,132.45862,77.12898,-0.019805789,-0.00545758,-0.0032396317,0.0,0.0,0.0
829.1744,578.2622,14510376,0.75,0.08510638,139.72758,104.77437,-0.019805789,-0.00545758,-0.0032396317,0.0,0.0,0.0
831.2462,580.1035,14510393,0.75,0.06382979,143.11868,109.45725,-0.019805789,-0.00545758,-0.0032396317,0.0,0.0,0.0
834.39246,583.8436,14510410,0.7375,0.06382979,162.79428,150.51451,-0.019805789,-0.00545758,-0.0032396317,0.0,0.0,0.0
837.5014,585.57544,14510427,0.75,0.06382979,190.86777,165.28148,-0.019805789,-0.00545758,-0.0032396317,0.0,0.0,0.0
841.24457,585.4,14510443,0.75,0.07446808,226.9197,93.836716,-0.019805789,-0.00545758,-0.0032396317,0.0,0.0,0.0
844.5566,585.4,14510460,0.7375,0.07446808,244.92781,-7.895833,-0.019805789,-0.00545758,-0.0032396317,0.0,0.0,0.0
846.63806,585.4,14510477,0.7375,0.07446808,183.55745,-85.13526,-0.019805789,-0.00545758,-0.0032396317,0.0,0.0,0.0
849.23816,585.4,14510493,0.725,0.07446808,128.57266,-51.53443,-0.019805789,-0.00545758,-0.0032396317,0.0,0.0,0.0
853.0767,584.88074,14510510,0.725,0.09574468,153.02643,-17.779642,-0.019805789,-0.00545758,-0.0032396317,0.0,0.0,0.0
856.5429,583.026,14510527,0.71250004,0.09574468,201.77429,-69.18646,1.5538931E-4,0.027633905,-0.0025920868,0.0,0.0,0.0
861.20544,581.17615,14510544,0.725,0.09574468,281.57324,-133.20346,1.5538931E-4,0.027633905,-0.0025920868,0.0,0.0,0.0
865.31464,579.35,14510560,0.7,0.08510638,295.84665,-161.81187,1.5538931E-4,0.027633905,-0.0025920868,0.0,0.0,0.0
869.98193,577.4979,14510577,0.7,0.10638297,288.5682,-149.5451,1.5538931E-4,0.027633905,-0.0025920868,0.0,0.0,0.0
874.6408,574.77515,14510594,0.7,0.09574468,289.581,-134.62589,1.5538931E-4,0.027633905,-0.0025920868,0.0,0.0,0.0
879.86566,571.96924,14510610,0.71250004,0.10638297,301.85745,-166.761,1.5538931E-4,0.027633905,-0.0025920868,0.0,0.0,0.0
883.3944,568.2766,14510627,0.725,0.10638297,282.1948,-220.03526,1.5538931E-4,0.027633905,-0.0025920868,0.0,0.0,0.0
886.0129,565.4697,14510644,0.71250004,0.10638297,205.68835,-225.97781,1.5538931E-4,0.027633905,-0.0025920868,0.0,0.0,0.0
890.7635,561.7875,14510661,0.7,0.09574468,192.50845,-229.09789,1.5538931E-4,0.027633905,-0.0025920868,0.0,0.0,0.0
893.5586,558.4147,14510677,0.7,0.08510638,180.96193,-222.74521,1.5538931E-4,0.027633905,-0.0025920868,0.0,0.0,0.0
895.86615,555.2739,14510694,0.7,0.08510638,157.4724,-196.50499,1.5538931E-4,0.027633905,-0.0025920868,0.0,0.0,0.0
898.7177,551.5792,14510711,0.6875,0.07446808,142.27802,-208.83563,1.5538931E-4,0.027633905,-0.0025920868,0.0,0.0,0.0
900.7515,547.964,14510727,0.7,0.07446808,97.67396,-208.62659,1.5538931E-4,0.027633905,-0.0025920868,0.0,0.0,0.0
903.61597,542.8722,14510744,0.6875,0.07446808,128.5388,-258.05487,1.5538931E-4,0.027633905,-0.0025920868,0.0,0.0,0.0
905.867,538.8707,14510761,0.6875,0.08510638,150.22057,-292.68015,1.5538931E-4,0.027633905,-0.0025920868,0.0,0.0,0.0
908.0119,535.058,14510778,0.6875,0.09574468,134.32079,-269.63834,1.5538931E-4,0.027633905,-0.0025920868,0.0,0.0,0.0
909.6014,531.48694,14510794,0.7,0.09574468,117.41203,-231.47157,1.5538931E-4,0.027633905,-0.0025920868,0.0,0.0,0.0
911.18036,526.761,14510811,0.7,0.11702127,79.35609,-215.32765,1.5538931E-4,0.027633905,-0.0025920868,0.0,0.0,0.0
912.2201,523.0653,14510828,0.7,0.12765957,54.50718,-235.51546,1.5538931E-4,0.027633905,-0.0025920868,0.0,0.0,0.0
912.75995,520.25757,14510844,0.7,0.12765957,32.58942,-218.90117,1.5538931E-4,0.027633905,-0.0025920868,0.0,0.0,0.0
913.6804,518.5581,14510861,0.6875,0.12765957,26.646248,-144.2855,1.5538931E-4,0.027633905,-0.0025920868,0.0,0.0,0.0
914.33417,516.7117,14510878,0.7,0.12765957,24.854937,-74.32441,1.5538931E-4,0.027633905,-0.0025920868,0.0,0.0,0.0
915.3762,513.9708,14510895,0.7,0.12765957,38.798126,-72.85571,1.5538931E-4,0.027633905,-0.0025920868,0.0,0.0,0.0
916.1796,512.1509,14510911,0.7,0.11702127,61.13418,-118.69984,1.5538931E-4,0.027633905,-0.0025920868,0.0,0.0,0.0
916.4431,509.82898,14510928,0.7,0.11702127,33.57725,-128.29138,1.5538931E-4,0.027633905,-0.0025920868,0.0,0.0,0.0
917.17926,507.54163,14510945,0.6875,0.09574468,30.51521,-142.20103,1.5538931E-4,0.027633905,-0.0025920868,0.0,0.0,0.0
917.67914,505.69373,14510961,0.7,0.09574468,20.938004,-123.747894,1.5538931E-4,0.027633905,-0.0025920868,0.0,0.0,0.0
918.17896,502.963,14510978,0.7,0.09574468,27.536238,-136.97595,1.5538931E-4,0.027633905,-0.0025920868,0.0,0.0,0.0
918.6788,501.13672,14510995,0.6875,0.09574468,32.966564,-132.2429,1.5538931E-4,0.027633905,-0.0025920868,0.0,0.0,0.0
919.17865,497.5857,14511011,0.6875,0.08510638,26.056469,-150.12999,1.5538931E-4,0.027633905,-0.0025920868,0.0,0.0,0.0
919.6884,494.73743,14511028,0.725,0.08510638,25.935055,-195.16481,1.5538931E-4,0.027633905,-0.0025920868,0.0,0.0,0.0
919.67847,491.92932,14511045,0.7,0.08510638,14.191619,-195.66182,1.5538931E-4,0.027633905,-0.0025920868,0.0,0.0,0.0
919.67847,490.1947,14511062,0.7,0.08510638,-1.0265187,-162.18797,-0.015875697,0.0061071217,0.013925552,0.0,0.0,0.0
919.8035,487.21997,14511078,0.71250004,0.08510638,-9.24232,-143.47269,-0.015875697,0.0061071217,0.013925552,0.0,0.0,0.0
920.1783,483.53247,14511095,0.7,0.08510638,4.5270853,-165.2788,-0.015875697,0.0061071217,0.013925552,0.0,0.0,0.0
920.1783,479.91394,14511112,0.6875,0.09574468,8.978709,-218.34628,-0.015875697,0.0061071217,0.013925552,0.0,0.0,0.0
920.1783,477.45728,14511128,0.7,0.09574468,6.643781,-222.28722,-0.015875697,0.0061071217,0.013925552,0.0,0.0,0.0
920.67816,474.71887,14511145,0.7,0.09574468,10.064596,-172.14207,-0.015875697,0.0061071217,0.013925552,0.0,0.0,0.0
920.67816,472.87463,14511162,0.7,0.09574468,10.429849,-114.878105,-0.015875697,0.0061071217,0.013925552,0.0,0.0,0.0
920.67816,471.0459,14511179,0.7,0.11702127,11.333145,-79.85056,-0.015875697,0.0061071217,0.013925552,0.0,0.0,0.0
920.67816,469.1969,14511195,0.71250004,0.11702127,-0.80372137,-82.009995,-0.015875697,0.0061071217,0.013925552,0.0,0.0,0.0
920.67816,467.3479,14511212,0.7,0.11702127,-8.782789,-93.51356,-0.015875697,0.0061071217,0.013925552,0.0,0.0,0.0
920.67816,465.49536,14511229,0.7,0.12765957,-5.369206,-99.71777,-0.015875697,0.0061071217,0.013925552,0.0,0.0,0.0
920.67816,463.64233,14511245,0.6875,0.12765957,-0.014627121,-112.38798,-0.015875697,0.0061071217,0.013925552,0.0,0.0,0.0
920.67816,461.79626,14511262,0.71250004,0.12765957,0.0018404095,-112.42965,-0.015875697,0.0061071217,0.013925552,0.0,0.0,0.0
920.67816,459.94836,14511279,0.6875,0.12765957,0.019678222,-111.90186,-0.015875697,0.0061071217,0.013925552,0.0,0.0,0.0
920.67816,458.10132,14511296,0.71250004,0.12765957,0.063930854,-110.67157,-0.015875697,0.0061071217,0.013925552,0.0,0.0,0.0
920.67816,456.213,14511312,0.6875,0.12765957,-0.0537339,-109.69919,-0.015875697,0.0061071217,0.013925552,0.0,0.0,0.0
920.67816,454.47217,14511329,0.7,0.12765957,0.010639139,-108.510506,-0.015875697,0.0061071217,0.013925552,0.0,0.0,0.0
920.67816,452.56494,14511346,0.71250004,0.11702127,-0.004093977,-110.99453,-0.015875697,0.0061071217,0.013925552,0.0,0.0,0.0
920.67816,450.71326,14511362,0.7,0.11702127,0.07776552,-112.34597,-0.015875697,0.0061071217,0.013925552,0.0,0.0,0.0
920.67816,448.87012,14511379,0.71250004,0.09574468,0.04385114,-111.97855,-0.015875697,0.0061071217,0.013925552,0.0,0.0,0.0
920.67816,446.37732,14511396,0.7,0.09574468,0.07143861,-121.082726,-0.015875697,0.0061071217,0.013925552,0.0,0.0,0.0
920.67816,443.58252,14511413,0.71250004,0.08510638,0.13506512,-153.96059,-0.015875697,0.0061071217,0.013925552,0.0,0.0,0.0
919.7385,441.5692,14511429,0.7,0.08510638,-22.363054,-168.04742,-0.015875697,0.0061071217,0.013925552,0.0,0.0,0.0
919.17865,439.70874,14511446,0.71250004,0.08510638,-52.07128,-143.27214,-0.015875697,0.0061071217,0.013925552,0.0,0.0,0.0
918.6788,437.85938,14511463,0.725,0.08510638,-55.8199,-107.86351,-0.015875697,0.0061071217,0.013925552,0.0,0.0,0.0
918.1147,436.0172,14511479,0.7375,0.08510638,-42.344147,-89.48674,-0.015875697,0.0061071217,0.013925552,0.0,0.0,0.0
917.4292,436.13147,14511490,0.725,0.08510638,-40.039066,-65.723854,-0.015875697,0.0061071217,0.013925552,0.0,0.0,0.0
917.67914,436.13147,14511510,0.7375,0.09574468,-11.198958,-10.378544,-0.015875697,0.0061071217,0.013925552,0.0,0.0,0.0
917.67914,437.1714,14511529,0.75,0.09574468,3.0829248,75.89108,-0.015875697,0.0061071217,0.013925552,0.0,0.0,0.0
917.4551,440.48193,14511546,0.75,0.11702127,12.758291,180.28206,-0.015875697,0.0061071217,0.013925552,0.0,0.0,0.0
917.17926,444.63928,14511563,0.7375,0.11702127,-4.922489,278.42484,-0.015875697,0.0061071217,0.013925552,0.0,0.0,0.0
917.17926,450.17627,14511580,0.7375,0.12765957,-17.495651,380.46472,-0.015875697,0.0061071217,0.013925552,0.0,0.0,0.0
916.8402,457.20105,14511596,0.7375,0.11702127,-9.095102,461.9553,-0.012700558,0.020885706,0.027140617,0.0,0.0,0.0
916.67944,465.22314,14511613,0.7375,0.09574468,-11.966779,519.7796,-0.012700558,0.020885706,0.027140617,0.0,0.0,0.0
916.3581,478.39905,14511630,0.7375,0.08510638,-6.2108397,683.06244,-0.012700558,0.020885706,0.027140617,0.0,0.0,0.0
916.1796,489.79712,14511646,0.7375,0.09574468,-22.48576,833.3917,-0.012700558,0.020885706,0.027140617,0.0,0.0,0.0
914.68414,499.172,14511663,0.725,0.11702127,-50.945034,809.1154,-0.012700558,0.020885706,0.027140617,0.0,0.0,0.0
914.18024,508.41187,14511680,0.7375,0.11702127,-68.40897,652.0757,-0.012700558,0.020885706,0.027140617,0.0,0.0,0.0
913.106,518.66907,14511697,0.7375,0.09574468,-74.77289,543.7708,-0.012700558,0.020885706,0.027140617,0.0,0.0,0.0
911.5685,532.8025,14511713,0.725,0.07446808,-81.85813,644.26086,-0.012700558,0.020885706,0.027140617,0.0,0.0,0.0
911.1812,544.9822,14511730,0.725,0.08510638,-66.281975,817.15607,-0.012700558,0.020885706,0.027140617,0.0,0.0,0.0
909.99286,553.3141,14511747,0.7375,0.12765957,-53.629612,741.3179,-0.012700558,0.020885706,0.027140617,0.0,0.0,0.0
909.6817,563.0741,14511763,0.75,0.10638297,-34.468624,566.26,-0.012700558,0.020885706,0.027140617,0.0,0.0,0.0
909.4107,574.07434,14511780,0.7375,0.08510638,-3.0673165,489.46103,-0.012700558,0.020885706,0.027140617,0.0,0.0,0.0
908.99146,585.1456,14511797,0.725,0.07446808,-15.02086,596.4818,-0.012700558,0.020885706,0.027140617,0.0,0.0,0.0
909.5309,596.2301,14511814,0.7375,0.08510638,12.855712,719.27356,-0.012700558,0.020885706,0.027140617,0.0,0.0,0.0
909.6817,604.10364,14511830,0.7375,0.10638297,32.64888,621.6463,-0.012700558,0.020885706,0.027140617,0.0,0.0,0.0
909.6817,612.35144,14511847,0.7375,0.12765957,26.235977,481.0488,-0.012700558,0.020885706,0.027140617,0.0,0.0,0.0
910.1412,623.1749,14511864,0.75,0.11702127,23.810535,450.23923,-0.012700558,0.020885706,0.027140617,0.0,0.0,0.0
910.6814,634.353,14511880,0.725,0.08510638,25.842457,594.12384,-0.012700558,0.020885706,0.027140617,0.0,0.0,0.0
911.1812,647.2543,14511897,0.725,0.07446808,38.95612,768.5549,-0.012700558,0.020885706,0.027140617,0.0,0.0,0.0
911.1812,658.24243,14511914,0.725,0.11702127,29.596977,819.86523,-0.012700558,0.020885706,0.027140617,0.0,0.0,0.0
911.7483,664.9547,14511931,0.7375,0.12765957,16.088428,623.3894,-0.012700558,0.020885706,0.027140617,0.0,0.0,0.0
911.6811,673.9385,14511947,0.7375,0.11702127,1.894873,451.5386,-0.012700558,0.020885706,0.027140617,0.0,0.0,0.0
912.1809,681.8992,14511964,0.71250004,0.09574468,11.950613,376.5083,-0.012700558,0.020885706,0.027140617,0.0,0.0,0.0
912.1809,691.02405,14511981,0.7375,0.08510638,18.203974,449.21655,-0.012700558,0.020885706,0.027140617,0.0,0.0,0.0
912.1809,699.2457,14511997,0.725,0.08510638,2.2531607,541.12427,-0.012700558,0.020885706,0.027140617,0.0,0.0,0.0
912.4975,705.25916,14512014,0.725,0.09574468,-0.5201228,461.69366,-0.012700558,0.020885706,0.027140617,0.0,0.0,0.0
912.6807,710.16077,14512031,0.725,0.09574468,9.621981,319.62012,-0.012700558,0.020885706,0.027140617,0.0,0.0,0.0
912.6807,713.8291,14512048,0.71250004,0.11702127,10.055269,168.68512,-0.012700558,0.020885706,0.027140617,0.0,0.0,0.0
914.18024,729.3375,14512145,0.26250002,0.09574468,10.055269,168.68512,0.0058395565,7.0858E-4,0.005712509,0.0,0.0,0.0
883.19037,514.3197,14512549,0.5625,0.10638297,0.0,0.0,0.0058395565,7.0858E-4,0.005712509,0.0,0.0,0.0
883.19037,514.3197,14512566,0.6125,0.08510638,-2.0501814,-1.2379903,0.0058395565,7.0858E-4,0.005712509,0.0,0.0,0.0
883.19037,514.3197,14512582,0.6625,0.10638297,-0.022829885,-0.014011973,0.0058395565,7.0858E-4,0.005712509,0.0,0.0,0.0
883.19037,514.3197,14512599,0.7,0.10638297,0.043161172,0.026835103,0.0058395565,7.0858E-4,0.005712509,0.0,0.0,0.0
883.19037,514.3197,14512616,0.7,0.10638297,0.017046934,0.012401855,0.0058395565,7.0858E-4,0.005712509,0.0,0.0,0.0
883.19037,514.3197,14512626,0.71250004,0.09574468,0.007219001,0.0040901797,0.0058395565,7.0858E-4,0.005712509,0.0,0.0,0.0
900.67993,518.67993,14512649,0.7,0.08510638,521.65137,127.40003,0.0058395565,7.0858E-4,0.005712509,0.0,0.0,0.0
910.58417,521.0137,14512666,0.7,0.09574468,877.2812,217.58955,0.0046716332,-0.031433135,0.0045700073,0.0,0.0,0.0
921.83496,522.8578,14512682,0.6875,0.08510638,943.5989,204.3978,0.0046716332,-0.031433135,0.0045700073,0.0,0.0,0.0
933.47864,524.09326,14512699,0.6875,0.08510638,815.77765,119.26169,0.0046716332,-0.031433135,0.0045700073,0.0,0.0,0.0
944.73444,524.30115,14512716,0.71250004,0.08510638,702.1162,26.598215,0.0046716332,-0.031433135,0.0045700073,0.0,0.0,0.0
954.8319,522.4647,14512733,0.675,0.10638297,674.20984,-89.12639,0.0046716332,-0.031433135,0.0045700073,0.0,0.0,0.0
962.3136,519.829,14512749,0.675,0.11702127,549.08673,-181.0765,0.0046716332,-0.031433135,0.0045700073,0.0,0.0,0.0
970.1393,516.1084,14512766,0.675,0.12765957,402.92627,-280.47183,0.0046716332,-0.031433135,0.0045700073,0.0,0.0,0.0
977.9132,511.4851,14512783,0.675,0.10638297,370.1116,-329.34213,0.0046716332,-0.031433135,0.0045700073,0.0,0.0,0.0
985.1533,504.9939,14512799,0.6625,0.08510638,389.06528,-402.09796,0.0046716332,-0.031433135,0.0045700073,0.0,0.0,0.0
990.0099,498.58557,14512816,0.675,0.06382979,350.0408,-456.94907,0.0046716332,-0.031433135,0.0045700073,0.0,0.0,0.0
992.9415,492.86426,14512833,0.6875,0.06382979,228.494,-441.60535,0.0046716332,-0.031433135,0.0045700073,0.0,0.0,0.0
994.3506,487.85474,14512850,0.675,0.06382979,56.334484,-373.68445,0.0046716332,-0.031433135,0.0045700073,0.0,0.0,0.0
995.15393,481.0697,14512866,0.6875,0.08510638,-57.57693,-333.45514,0.0046716332,-0.031433135,0.0045700073,0.0,0.0,0.0
994.10657,475.5426,14512883,0.7,0.09574468,-104.65329,-343.2805,0.0046716332,-0.031433135,0.0045700073,0.0,0.0,0.0
992.5265,470.55518,14512900,0.7,0.09574468,-153.10019,-336.49286,0.0046716332,-0.031433135,0.0045700073,0.0,0.0,0.0
989.6013,466.8684,14512916,0.7,0.12765957,-213.5881,-259.3342,0.0046716332,-0.031433135,0.0045700073,0.0,0.0,0.0
985.2344,463.19678,14512933,0.6875,0.12765957,-281.17215,-182.88686,0.0046716332,-0.031433135,0.0045700073,0.0,0.0,0.0
978.66077,459.48718,14512950,0.71250004,0.12765957,-378.95416,-168.00871,0.0046716332,-0.031433135,0.0045700073,0.0,0.0,0.0
970.92346,457.51367,14512967,0.71250004,0.12765957,-497.19446,-136.53427,0.0046716332,-0.031433135,0.0045700073,0.0,0.0,0.0
960.5845,455.66406,14512983,0.7,0.10638297,-646.7276,-99.882965,0.0046716332,-0.031433135,0.0045700073,0.0,0.0,0.0
945.4531,455.67847,14513000,0.71250004,0.12765957,-864.8823,-17.272806,0.0046716332,-0.031433135,0.0045700073,0.0,0.0,0.0
927.31976,455.67847,14513017,0.71250004,0.12765957,-1124.2941,50.83568,0.0046716332,-0.031433135,0.0045700073,0.0,0.0,0.0
914.4706,455.67847,14513033,0.7,0.10638297,-1143.509,66.53326,0.0046716332,-0.031433135,0.0045700073,0.0,0.0,0.0
899.4393,456.85205,14513050,0.71250004,0.10638297,-1045.2262,75.00723,0.0046716332,-0.031433135,0.0045700073,0.0,0.0,0.0
888.06946,457.8152,14513067,0.7,0.10638297,-838.74396,89.18185,0.0046716332,-0.031433135,0.0045700073,0.0,0.0,0.0
875.19293,458.344,14513080,0.2875,0.12765957,-725.5669,85.462326,0.0046716332,-0.031433135,0.0045700073,0.0,0.0,0.0
875.19293,458.344,14513087,0.2875,0.12765957,-725.5669,85.462326,0.0046716332,-0.031433135,0.0045700073,0.0,0.0,0.0
1031.1422,490.3302,14514161,0.65000004,0.08510638,0.0,0.0,-0.00981015,0.0022827983,-0.013074875,0.0,0.0,0.0
1031.1422,490.3302,14514186,0.6875,0.08510638,-0.09240692,-0.038852945,-0.00981015,0.0022827983,-0.013074875,0.0,0.0,0.0
1031.1422,490.3302,14514203,0.7,0.08510638,0.029812912,0.016087916,-0.00981015,0.0022827983,-0.013074875,0.0,0.0,0.0
1031.1422,490.3302,14514220,0.71250004,0.09574468,-0.0049559213,-0.0013267531,-0.00981015,0.0022827983,-0.013074875,0.0,0.0,0.0
1032.2172,500.52087,14514237,0.725,0.11702127,33.841496,320.34296,-0.00981015,0.0022827983,-0.013074875,0.0,0.0,0.0
1034.1523,516.19653,14514253,0.75,0.08510638,93.963326,814.7726,-0.00981015,0.0022827983,-0.013074875,0.0,0.0,0.0
1036.2218,534.96106,14514270,0.7375,0.07446808,154.16762,1345.5796,0.008151889,0.0018262267,-0.0104599,0.0,3.355443E-6,0.0
1037.473,552.81616,14514287,0.71250004,0.10638297,153.82567,1534.8761,0.008151889,0.0018262267,-0.0104599,0.0,3.355443E-6,0.0
1039.0148,571.4093,14514303,0.725,0.10638297,111.71806,1361.5957,0.008151889,0.0018262267,-0.0104599,0.0,3.355443E-6,0.0
1040.0546,592.629,14514320,0.71250004,0.07446808,63.899284,1242.0874,0.008151889,0.0018262267,-0.0104599,0.0,3.355443E-6,0.0
1041.0427,614.4979,14514337,0.71250004,0.12765957,38.213852,1298.4739,0.008151889,0.0018262267,-0.0104599,0.0,0.0,0.0
1042.6244,641.16345,14514353,0.7,0.08510638,56.03847,1479.4047,0.008151889,0.0018262267,-0.0104599,0.0,0.0,0.0
1043.6713,664.2954,14514370,0.6625,0.10638297,75.671326,1617.0713,0.008151889,0.0018262267,-0.0104599,0.0,0.0,0.0
1043.6381,682.6843,14514387,0.65000004,0.06382979,43.40715,1426.3983,0.008151889,0.0018262267,-0.0104599,0.0,0.0,0.0
1042.022,695.9292,14514404,0.6375,0.06382979,-45.44861,1020.7576,0.008151889,0.0018262267,-0.0104599,0.0,0.0,0.0
1041.4802,700.58093,14514420,0.6375,0.07446808,-101.99573,396.915,0.008151889,0.0018262267,-0.0104599,0.0,0.0,0.0
1039.1396,704.4595,14514437,0.65000004,0.07446808,-146.97137,-78.90824,0.008151889,0.0018262267,-0.0104599,0.0,0.0,0.0
1038.4099,705.75635,14514454,0.6625,0.07446808,-118.10479,-242.31119,0.008151889,0.0018262267,-0.0104599,0.0,0.0,0.0
1037.3726,707.125,14514470,0.6375,0.08510638,-80.43607,-162.53844,0.008151889,0.0018262267,-0.0104599,0.0,0.0,0.0
1036.3367,707.125,14514487,0.65000004,0.07446808,-65.043106,-72.93191,0.008151889,0.0018262267,-0.0104599,0.0,0.0,0.0
1035.7959,707.125,14514504,0.6375,0.07446808,-27.037718,-60.74285,0.008151889,0.0018262267,-0.0104599,0.0,0.0,0.0
1035.6407,707.125,14514520,0.65000004,0.07446808,-15.1187725,-62.499516,0.008151889,0.0018262267,-0.0104599,0.0,0.0,0.0
1035.6407,705.4938,14514537,0.475,0.07446808,9.456123,-90.2348,0.008151889,0.0018262267,-0.0104599,0.0,-3.355443E-6,0.0
1035.6407,705.3479,14514538,0.275,0.09574468,10.723134,-95.10171,0.008151889,0.0018262267,-0.0104599,0.0,-3.355443E-6,0.0
1035.6407,705.3479,14514547,0.275,0.09574468,10.723134,-95.10171,0.008151889,0.0018262267,-0.0104599,0.0,-3.355443E-6,0.0
1051.1356,455.67847,14515292,0.65000004,0.10638297,0.0,0.0,-0.00947848,0.0014609694,0.007631302,0.0,0.0,0.0
1051.1356,455.67847,14515316,0.675,0.10638297,-0.13977051,-0.05756427,-0.00947848,0.0014609694,0.007631302,0.0,0.0,0.0
1051.1356,455.67847,14515356,0.6875,0.09574468,0.0,0.0,-0.031582773,-0.030831248,-0.009894371,0.0,0.0,0.0
1067.3542,446.41174,14515390,0.6875,0.09574468,2274.407,-1299.511,-0.031582773,-0.030831248,-0.009894371,0.0,0.0,0.0
1078.1285,440.73474,14515406,0.6875,0.08510638,1139.4501,-619.8412,-0.031582773,-0.030831248,-0.009894371,0.0,0.0,0.0
1087.7732,437.0597,14515423,0.71250004,0.07446808,838.2711,-374.86215,-0.031582773,-0.030831248,-0.009894371,0.0,0.0,0.0
1096.5571,435.24292,14515440,0.6875,0.06382979,702.8632,-224.24567,-0.031582773,-0.030831248,-0.009894371,0.0,0.0,0.0
1106.2501,435.24292,14515456,0.7,0.06382979,411.83878,123.329475,-0.031582773,-0.030831248,-0.009894371,0.0,0.0,0.0
1114.5667,436.61548,14515473,0.6875,0.06382979,414.19208,203.86783,-0.031582773,-0.030831248,-0.009894371,0.0,0.0,0.0
1122.6776,439.90955,14515490,0.7,0.08510638,493.2032,251.33209,-0.031582773,-0.030831248,-0.009894371,0.0,0.0,0.0
1128.3561,443.59167,14515507,0.6875,0.11702127,372.11966,326.69443,-0.031582773,-0.030831248,-0.009894371,0.0,0.0,0.0
1133.1692,448.87292,14515523,0.6875,0.12765957,254.37918,363.66516,-0.031582773,-0.030831248,-0.009894371,0.0,0.0,0.0
1139.0261,459.84814,14515540,0.6875,0.11702127,210.29727,509.6859,-0.031582773,-0.030831248,-0.009894371,0.0,0.0,0.0
1143.9828,476.45776,14515557,0.6625,0.07446808,242.16093,868.0898,-0.031582773,-0.030831248,-0.009894371,0.0,0.0,0.0
1146.623,489.5398,14515573,0.675,0.10638297,222.46407,1118.0358,-0.031582773,-0.030831248,-0.009894371,0.0,0.0,0.0
1147.6516,503.3578,14515590,0.65000004,0.12765957,104.18422,1111.4899,-0.031582773,-0.030831248,-0.009894371,0.0,0.0,0.0
1146.4202,515.46765,14515607,0.6625,0.08510638,-68.09209,892.2332,-0.031582773,-0.030831248,-0.009894371,0.0,0.0,0.0
1141.509,528.4568,14515623,0.6875,0.08510638,-292.92218,698.3899,-0.031582773,-0.030831248,-0.009894371,0.0,0.0,0.0
1136.5363,539.70593,14515640,0.6875,0.08510638,-415.62195,649.3223,-0.031582773,-0.030831248,-0.009894371,0.0,0.0,0.0
1132.4263,542.9143,14515657,0.6875,0.08510638,-434.6229,454.69702,-0.031582773,-0.030831248,-0.009894371,0.0,0.0,0.0
1124.4639,549.7792,14515674,0.675,0.09574468,-461.19174,253.76067,-0.031582773,-0.030831248,-0.009894371,0.0,0.0,0.0
1113.5881,557.6017,14515690,0.675,0.10638297,-586.8342,231.44455,-0.031582773,-0.030831248,-0.009894371,0.0,0.0,0.0
1101.3462,564.4685,14515707,0.675,0.12765957,-793.902,347.29648,-0.031582773,-0.030831248,-0.009894371,0.0,0.0,0.0
1086.9847,569.78674,14515724,0.6625,0.11702127,-971.3863,425.57562,-0.031582773,-0.030831248,-0.009894371,0.0,0.0,0.0
1070.2369,572.0725,14515740,0.675,0.09574468,-1066.6335,241.66698,-0.031582773,-0.030831248,-0.009894371,0.0,0.0,0.0
1050.1515,571.31226,14515757,0.675,0.09574468,-1193.4447,-14.260155,-0.031582773,-0.030831248,-0.009894371,0.0,0.0,0.0
1034.4614,569.45435,14515774,0.675,0.12765957,-1246.4304,-226.06941,-0.031582773,-0.030831248,-0.009894371,0.0,0.0,0.0
1019.4667,568.4972,14515791,0.675,0.10638297,-1059.2421,-251.72224,-0.031582773,-0.030831248,-0.009894371,0.0,0.0,0.0
1003.265,567.6299,14515807,0.7,0.10638297,-919.379,-185.09674,-0.031582773,-0.030831248,-0.009894371,0.0,0.0,0.0
990.9818,565.6791,14515824,0.6875,0.12765957,-766.696,-116.392265,-0.031582773,-0.030831248,-0.009894371,0.0,0.0,0.0
983.6731,563.8259,14515841,0.6875,0.12765957,-550.7412,-99.79758,-0.031582773,-0.030831248,-0.009894371,0.0,0.0,0.0
980.27954,561.55347,14515857,0.6875,0.11702127,-294.9378,-125.13689,-0.031582773,-0.030831248,-0.009894371,0.0,0.0,0.0
977.65955,556.07935,14515865,0.425,0.08510638,-157.5401,-212.52435,0.014733762,-0.008664995,-0.007915497,0.0,0.0,0.0
977.65955,556.07935,14515870,0.425,0.08510638,-157.5401,-212.52435,0.014733762,-0.008664995,-0.007915497,0.0,0.0,0.0
