x,y,timestamp,pressure,fingerarea,velocityx,velocityy,accelx,accely,accelz,gyrox,gyroy,gyroz
372.85648,195.34705,78326634,0.6625,0.11702127,0.0,0.0,-0.020057514,0.0072414875,0.03532505,0.0,0.0,0.0
372.85648,195.34705,78326654,0.675,0.11702127,-0.14441377,-0.07808914,-0.020057514,0.0072414875,0.03532505,0.0,0.0,0.0
372.85648,195.34705,78326669,0.725,0.12765957,0.0044870134,7.091415E-4,-0.020057514,0.0072414875,0.03532505,0.0,0.0,0.0
372.85648,195.34705,78326687,0.725,0.11702127,7.981734E-4,8.007003E-4,-0.020057514,0.0072414875,0.03532505,0.0,0.0,0.0
372.85648,195.34705,78326704,0.7375,0.11702127,-0.018940121,-0.009928519,-0.020057514,0.0072414875,0.03532505,0.0,0.0,0.0
372.85648,195.34705,78326721,0.7375,0.09574468,0.01983504,0.0113984775,-0.020057514,0.0072414875,0.03532505,0.0,0.0,0.0
372.85648,195.34705,78326737,0.75,0.09574468,-0.02395787,-0.013420699,-0.020057514,0.0072414875,0.03532505,0.0,0.0,0.0
371.2477,213.45874,78326754,0.77500004,0.09574468,-40.554817,456.6322,-0.020057514,0.0072414875,0.03532505,0.0,0.0,0.0
370.78168,221.65002,78326771,0.7875,0.11702127,-73.01586,949.6119,-0.020057514,0.0072414875,0.03532505,0.0,0.0,0.0
370.3573,232.06616,78326788,0.77500004,0.12765957,-69.44472,1012.36163,-0.020057514,0.0072414875,0.03532505,0.0,0.0,0.0
369.85745,244.47327,78326804,0.7875,0.09574468,-46.992798,949.1178,-0.020057514,0.0072414875,0.03532505,0.0,0.0,0.0
369.3576,262.1565,78326821,0.7875,0.09574468,-22.029411,903.9265,-0.020057514,0.0072414875,0.03532505,0.0,0.0,0.0
369.3576,278.6018,78326838,0.7875,0.11702127,-1.9924833,1026.7931,-0.020057514,0.0072414875,0.03532505,0.0,0.0,0.0
369.3576,291.63867,78326854,0.77500004,0.12765957,3.5944839,1100.015,-0.020057514,0.0072414875,0.03532505,0.0,0.0,0.0
370.14835,308.02698,78326871,0.8,0.09574468,29.366282,951.23584,-0.020057514,0.0072414875,0.03532505,0.0,0.0,0.0
370.68805,327.1068,78326888,0.8,0.09574468,57.332798,982.68634,-0.020057514,0.0072414875,0.03532505,0.0,0.0,0.0
371.74158,342.08826,78326905,0.8,0.12765957,72.486595,1027.7053,-0.020057514,0.0072414875,0.03532505,0.0,0.0,0.0
372.26862,358.88745,78326921,0.8125,0.09574468,63.795387,1040.7972,-0.020057514,0.0072414875,0.03532505,0.0,0.0,0.0
372.35663,380.4579,78326938,0.8,0.09574468,35.55276,1128.0625,-0.020057514,0.0072414875,0.03532505,0.0,0.0,0.0
372.85648,395.4187,78326955,0.8,0.12765957,13.664491,1095.5834,-0.020057514,0.0072414875,0.03532505,0.0,0.0,0.0
372.30585,414.11365,78326971,0.8125,0.09574468,-14.15024,1102.4684,-0.020057514,0.0072414875,0.03532505,0.0,0.0,0.0
372.35663,434.0481,78326988,0.825,0.09574468,-27.03943,1157.5236,-0.020057514,0.0072414875,0.03532505,0.0,0.0,0.0
371.72925,449.49597,78327005,0.8,0.12765957,-35.446075,1050.1555,-0.020057514,0.0072414875,0.03532505,0.0,0.0,0.0
371.1448,466.18054,78327022,0.8125,0.09574468,-43.55234,983.4088,-0.020057514,0.0072414875,0.03532505,0.0,0.0,0.0
370.85712,484.41125,78327038,0.7875,0.09574468,-41.548466,1008.78766,-0.020057514,0.0072414875,0.03532505,0.0,0.0,0.0
370.61145,497.39307,78327055,0.8,0.11702127,-27.196236,894.78143,-0.020057514,0.0072414875,0.03532505,0.0,0.0,0.0
369.5833,507.8711,78327072,0.8,0.12765957,-37.63013,766.57904,-0.020057514,0.0072414875,0.03532505,0.0,0.0,0.0
368.8578,518.4116,78327088,0.7875,0.09574468,-52.53959,522.99316,-0.020057514,0.0072414875,0.03532505,0.0,0.0,0.0
367.13562,534.0687,78327105,0.7625,0.08510638,-80.527565,523.03467,-0.020057514,0.0072414875,0.03532505,0.0,0.0,0.0
365.9906,547.5652,78327122,0.7,0.09574468,-99.421486,796.0876,-0.020057514,0.0072414875,0.03532505,0.0,0.0,0.0
365.85876,548.9713,78327123,0.575,0.11702127,-98.708595,813.3733,-0.020057514,0.0072414875,0.03532505,0.0,0.0,0.0
365.85876,548.9713,78327131,0.575,0.11702127,-98.708595,813.3733,-0.020057514,0.0072414875,0.03532505,0.0,0.0,0.0
329.87048,289.52844,78327623,0.6875,0.09574468,0.0,0.0,0.063953996,0.03779319,0.06025982,0.0,0.0,0.0
329.87048,289.52844,78327640,0.725,0.08510638,-0.026761249,-0.014994652,0.063953996,0.03779319,0.06025982,0.0,0.0,0.0
329.87048,289.52844,78327657,0.7625,0.08510638,-0.008731267,-0.010814123,0.063953996,0.03779319,0.06025982,0.0,0.0,0.0
329.87048,289.52844,78327673,0.75,0.06382979,0.0025019983,0.002124069,0.063953996,0.03779319,0.06025982,0.0,0.0,0.0
348.11456,267.31592,78327690,0.77500004,0.08510638,804.6839,-997.4609,-0.028836817,-0.017765462,-0.015791893,0.0,0.0,0.0
352.8901,261.32263,78327707,0.7875,0.08510638,839.1532,-1034.0927,-0.028836817,-0.017765462,-0.015791893,0.0,0.0,0.0
359.15054,255.27881,78327723,0.77500004,0.11702127,722.55005,-816.07495,-0.028836817,-0.017765462,-0.015791893,0.0,0.0,0.0
364.652,249.72974,78327740,0.77500004,0.12765957,453.41858,-445.52014,-0.028836817,-0.017765462,-0.015791893,0.0,0.0,0.0
370.49982,245.11926,78327757,0.77500004,0.12765957,169.16202,-55.436584,-0.028836817,-0.017765462,-0.015791893,0.0,0.0,0.0
378.04892,240.24951,78327774,0.77500004,0.10638297,329.36395,-175.39702,-0.028836817,-0.017765462,-0.015791893,0.0,0.0,0.0
386.57797,235.63538,78327790,0.7875,0.09574468,459.7228,-236.08383,-0.028836817,-0.017765462,-0.015791893,0.0,0.0,0.0
395.86755,232.74194,78327807,0.7875,0.08510638,574.96716,-218.49567,-0.028836817,-0.017765462,-0.015791893,0.0,0.0,0.0
405.81708,230.89185,78327824,0.7875,0.08510638,625.8429,-126.82202,-0.028836817,-0.017765462,-0.015791893,0.0,0.0,0.0
414.7111,230.8872,78327840,0.7875,0.11702127,624.17487,-4.0639625,-0.028836817,-0.017765462,-0.015791893,0.0,0.0,0.0
420.29562,231.9104,78327857,0.8,0.11702127,503.6948,100.3454,-0.028836817,-0.017765462,-0.015791893,0.0,0.0,0.0
428.17786,233.76587,78327874,0.8,0.12765957,408.52673,175.22409,-0.028836817,-0.017765462,-0.015791893,0.0,0.0,0.0
438.08524,239.328,78327890,0.8,0.10638297,414.49042,270.04892,-0.028836817,-0.017765462,-0.015791893,0.0,0.0,0.0
446.02246,244.4524,78327907,0.8,0.09574468,492.7017,393.47,-0.028836817,-0.017765462,-0.015791893,0.0,0.0,0.0
451.99152,250.3075,78327924,0.7875,0.08510638,512.6625,456.98538,-0.028836817,-0.017765462,-0.015791893,0.0,0.0,0.0
458.19135,258.59094,78327941,0.77500004,0.08510638,396.4539,524.3291,-0.028836817,-0.017765462,-0.015791893,0.0,0.0,0.0
463.9779,268.13037,78327957,0.77500004,0.08510638,290.67896,572.36395,-0.028836817,-0.017765462,-0.015791893,0.0,0.0,0.0
468.1853,276.84033,78327974,0.8,0.10638297,225.4186,637.2886,-0.028836817,-0.017765462,-0.015791893,0.0,0.0,0.0
470.2138,282.71704,78327991,0.7875,0.12765957,165.39648,550.67377,-0.028836817,-0.017765462,-0.015791893,0.0,0.0,0.0
470.8246,289.12964,78328007,0.7875,0.12765957,21.842619,378.7379,-0.028836817,-0.017765462,-0.015791893,0.0,0.0,0.0
470.36646,294.71118,78328024,0.8,0.10638297,-99.409256,275.46793,-0.028836817,-0.017765462,-0.015791893,0.0,0.0,0.0
467.29352,301.13635,78328041,0.8,0.08510638,-214.8179,279.11493,-0.028836817,-0.017765462,-0.015791893,0.0,0.0,0.0
463.67126,306.59448,78328058,0.77500004,0.08510638,-290.9363,343.70035,-0.028836817,-0.017765462,-0.015791893,0.0,0.0,0.0
458.37054,312.22937,78328074,0.7875,0.06382979,-368.57263,334.70908,-0.028836817,-0.017765462,-0.015791893,0.0,0.0,0.0
449.22168,319.69434,78328091,0.8125,0.08510638,-516.5099,372.52286,-0.028836817,-0.017765462,-0.015791893,0.0,0.0,0.0
436.9568,328.5365,78328108,0.8125,0.09574468,-701.9744,458.03775,-0.028836817,-0.017765462,-0.015791893,0.0,0.0,0.0
427.1083,333.25757,78328124,0.8,0.10638297,-796.1353,444.20175,-0.028836817,-0.017765462,-0.015791893,0.0,0.0,0.0
413.42892,338.37708,78328141,0.8125,0.09574468,-877.3399,376.53644,-0.028836817,-0.017765462,-0.015791893,0.0,0.0,0.0
396.7225,342.0393,78328158,0.7875,0.09574468,-995.154,223.54216,-0.028836817,-0.017765462,-0.015791893,0.0,0.0,0.0
383.54523,344.29102,78328175,0.8,0.12765957,-1021.17206,110.87248,-0.028836817,-0.017765462,-0.015791893,0.0,0.0,0.0
375.25635,344.6156,78328191,0.8125,0.12765957,-795.74194,8.345997,-0.028836817,-0.017765462,-0.015791893,0.0,0.0,0.0
368.59628,344.6156,78328208,0.8,0.12765957,-392.6553,-90.82791,-0.028836817,-0.017765462,-0.015791893,0.0,0.0,0.0
363.68713,344.6156,78328225,0.8,0.12765957,-132.39198,-104.11658,0.008930549,0.0017876327,-0.012633324,0.0,0.0,0.0
361.86005,344.6156,78328234,0.425,0.12765957,-52.90286,-94.52163,0.008930549,0.0017876327,-0.012633324,0.0,0.0,0.0
361.86005,344.6156,78328241,0.425,0.12765957,-52.90286,-94.52163,0.008930549,0.0017876327,-0.012633324,0.0,0.0,0.0
407.34525,532.9783,78330121,0.575,0.053191487,0.0,0.0,0.006492451,0.031635255,-0.006467819,0.0,0.0,0.0
407.34525,532.9783,78330146,0.65000004,0.06382979,0.041381165,0.054307826,0.006492451,0.031635255,-0.006467819,0.0,0.0,0.0
407.34525,532.9783,78330163,0.675,0.08510638,-0.019403767,-0.024465514,0.006492451,0.031635255,-0.006467819,0.0,0.0,0.0
407.34525,532.9783,78330180,0.7,0.08510638,0.007895149,0.008672622,0.006492451,0.031635255,-0.006467819,0.0,0.0,0.0
407.34525,532.9783,78330196,0.71250004,0.10638297,0.0035422798,0.0037087186,0.006492451,0.031635255,-0.006467819,0.0,0.0,0.0
407.34525,532.9783,78330213,0.71250004,0.11702127,-0.062240552,-0.082022436,0.006492451,0.031635255,-0.006467819,0.0,0.0,0.0
407.34525,532.9783,78330230,0.725,0.12765957,0.0029647117,0.004950026,0.006492451,0.031635255,-0.006467819,0.0,0.0,0.0
425.9261,516.50464,78330247,0.7375,0.12765957,535.87115,-470.08932,0.006492451,0.031635255,-0.006467819,0.0,0.0,0.0
435.7692,509.03625,78330263,0.7375,0.09574468,917.8257,-786.22656,0.006492451,0.031635255,-0.006467819,0.0,0.0,0.0
444.13348,503.45764,78330280,0.75,0.08510638,902.6139,-704.36554,0.006492451,0.031635255,-0.006467819,0.0,0.0,0.0
454.02142,497.0287,78330297,0.7375,0.06382979,716.72186,-480.85117,0.006492451,0.031635255,-0.006467819,0.0,0.0,0.0
462.25415,489.50684,78330313,0.75,0.07446808,483.2225,-310.15097,0.006492451,0.031635255,-0.006467819,0.0,0.0,0.0
469.5628,481.9652,78330330,0.7375,0.08510638,461.06778,-424.89404,0.006492451,0.031635255,-0.006467819,0.0,0.0,0.0
476.95532,476.64758,78330347,0.7375,0.08510638,412.33716,-410.5133,0.006492451,0.031635255,-0.006467819,0.0,0.0,0.0
482.70703,471.32825,78330364,0.7375,0.10638297,341.99127,-337.38397,0.021193951,0.025308192,0.042826653,0.0,0.0,0.0
488.90857,465.81653,78330380,0.7375,0.10638297,334.2124,-288.74533,0.021193951,0.025308192,0.042826653,0.0,0.0,0.0
495.66858,460.25244,78330397,0.7625,0.10638297,355.93536,-291.93756,0.021193951,0.025308192,0.042826653,0.0,0.0,0.0
500.66595,455.36658,78330414,0.77500004,0.09574468,336.2126,-308.2659,0.021193951,0.025308192,0.042826653,0.0,0.0,0.0
505.76526,450.83435,78330430,0.77500004,0.08510638,296.91672,-275.08698,0.021193951,0.025308192,0.042826653,0.0,0.0,0.0
509.96655,447.83545,78330447,0.7875,0.08510638,239.01614,-210.27939,0.021193951,0.025308192,0.042826653,0.0,0.0,0.0
513.21857,445.07104,78330464,0.77500004,0.08510638,185.3437,-144.37842,0.021193951,0.025308192,0.042826653,0.0,0.0,0.0
516.8366,442.33496,78330481,0.77500004,0.08510638,168.2305,-111.775894,0.021193951,0.025308192,0.042826653,0.0,0.0,0.0
519.90485,440.4884,78330497,0.77500004,0.07446808,164.86899,-89.1919,0.021193951,0.025308192,0.042826653,0.0,0.0,0.0
521.9908,438.63452,78330514,0.77500004,0.08510638,127.80295,-79.364,0.021193951,0.025308192,0.042826653,0.0,0.0,0.0
523.451,436.76477,78330531,0.77500004,0.08510638,87.897064,-84.38528,0.021193951,0.025308192,0.042826653,0.0,0.0,0.0
524.5035,434.89404,78330547,0.7875,0.09574468,38.308823,-88.132164,0.021193951,0.025308192,0.042826653,0.0,0.0,0.0
526.0106,434.3545,78330564,0.77500004,0.08510638,27.97746,-74.06581,0.021193951,0.025308192,0.042826653,0.0,0.0,0.0
526.3065,434.3545,78330581,0.7875,0.09574468,34.033287,-11.676218,0.021193951,0.025308192,0.042826653,0.0,0.0,0.0
526.3065,433.656,78330598,0.7625,0.08510638,0.9754283,24.5331,0.021193951,0.025308192,0.042826653,0.0,0.0,0.0
526.3065,433.46594,78330614,0.77500004,0.08510638,-27.9773,17.203854,0.021193951,0.025308192,0.042826653,0.0,0.0,0.0
526.73883,433.46594,78330631,0.7875,0.08510638,-32.220673,2.3868284,0.021193951,0.025308192,0.042826653,0.0,0.0,0.0
526.80634,433.46594,78330648,0.8,0.09574468,3.6093776,-4.0326996,0.021193951,0.025308192,0.042826653,0.0,0.0,0.0
526.80634,433.46594,78330664,0.8,0.09574468,13.141782,13.260777,0.021193951,0.025308192,0.042826653,0.0,0.0,0.0
526.80634,433.46594,78330668,0.7875,0.08510638,10.311095,12.716291,0.021193951,0.025308192,0.042826653,0.0,0.0,0.0
527.32825,433.46594,78330698,0.7875,0.09574468,8.265815,0.012321874,0.021193951,0.025308192,0.042826653,0.0,0.0,0.0
527.3062,433.46594,78330714,0.8,0.08510638,10.302904,-0.00388369,0.021193951,0.025308192,0.042826653,0.0,0.0,0.0
527.3062,433.46594,78330726,0.8,0.09574468,12.248737,0.0067272573,0.021193951,0.025308192,0.042826653,0.0,0.0,0.0
527.3062,433.46594,78330748,0.8125,0.08510638,-0.8056479,-0.006885484,0.021193951,0.025308192,0.042826653,0.0,0.0,0.0
527.3062,432.5774,78330765,0.8,0.08510638,-6.177356,-27.420132,0.021193951,0.025308192,0.042826653,0.0,0.0,0.0
527.3062,432.5774,78330781,0.77500004,0.09574468,-5.4857593,-30.202736,0.021193951,0.025308192,0.042826653,0.0,0.0,0.0
527.3062,432.5774,78330798,0.8,0.09574468,0.010539596,-13.346334,0.021193951,0.025308192,0.042826653,0.0,0.0,0.0
527.3062,431.42383,78330815,0.7875,0.08510638,-0.027554253,-28.542162,0.021193951,0.025308192,0.042826653,0.0,0.0,0.0
527.3062,430.8004,78330831,0.8,0.07446808,0.018374737,-45.454475,0.021193951,0.025308192,0.042826653,0.0,0.0,0.0
527.3062,430.8004,78330848,0.8,0.09574468,0.006659159,-47.944492,0.021193951,0.025308192,0.042826653,0.0,0.0,0.0
527.3062,430.8004,78330865,0.7875,0.09574468,-0.04834793,-0.47047278,0.021193951,0.025308192,0.042826653,0.0,0.0,0.0
527.3062,430.8004,78330879,0.7875,0.08510638,0.02821475,14.6240425,9.5517933E-4,-0.027753443,-0.029738426,0.0,0.0,0.0
527.3062,429.912,78330915,0.7875,0.08510638,0.011244522,-30.867231,9.5517933E-4,-0.027753443,-0.029738426,0.0,0.0,0.0
527.3062,429.02344,78330932,0.8,0.08510638,-0.0089842295,-48.07282,9.5517933E-4,-0.027753443,-0.029738426,0.0,0.0,0.0
527.3062,429.02344,78330944,0.7875,0.08510638,0.008735475,-38.9415,9.5517933E-4,-0.027753443,-0.029738426,0.0,0.0,0.0
527.3062,429.02344,78330965,0.77500004,0.08510638,0.026946757,-3.5792527,9.5517933E-4,-0.027753443,-0.029738426,0.0,0.0,0.0
527.3062,427.7301,78330982,0.7875,0.08510638,-0.0085271355,-22.42845,9.5517933E-4,-0.027753443,-0.029738426,0.0,0.0,0.0
527.3062,428.1349,78330999,0.8,0.07446808,0.01997344,-17.697796,9.5517933E-4,-0.027753443,-0.029738426,0.0,0.0,0.0
527.3062,427.6549,78331015,0.8125,0.08510638,-0.023914397,-26.025265,9.5517933E-4,-0.027753443,-0.029738426,0.0,0.0,0.0
527.3062,427.24646,78331032,0.7875,0.09574468,9.779161E-4,-28.925163,9.5517933E-4,-0.027753443,-0.029738426,0.0,0.0,0.0
527.3062,427.24646,78331049,0.8,0.09574468,-0.01452307,-9.895483,9.5517933E-4,-0.027753443,-0.029738426,0.0,0.0,0.0
527.3062,427.24646,78331065,0.8,0.08510638,-0.03479281,-0.2950714,9.5517933E-4,-0.027753443,-0.029738426,0.0,0.0,0.0
527.3062,427.24646,78331082,0.8125,0.09574468,0.022894636,10.558446,9.5517933E-4,-0.027753443,-0.029738426,0.0,0.0,0.0
527.3062,427.24646,78331099,0.8,0.09574468,0.0064640334,15.071962,9.5517933E-4,-0.027753443,-0.029738426,0.0,0.0,0.0
527.3062,427.24646,78331116,0.8,0.09574468,0.017208286,0.014882222,9.5517933E-4,-0.027753443,-0.029738426,0.0,0.0,0.0
527.3062,427.24646,78331132,0.8,0.08510638,0.012894006,0.008221076,9.5517933E-4,-0.027753443,-0.029738426,0.0,0.0,0.0
527.3062,427.24646,78331149,0.8125,0.09574468,-4.3891103E-4,-8.370111E-4,9.5517933E-4,-0.027753443,-0.029738426,0.0,0.0,0.0
527.3062,427.24646,78331166,0.8,0.09574468,0.051634163,0.04373668,9.5517933E-4,-0.027753443,-0.029738426,0.0,0.0,0.0
527.3062,427.24646,78331182,0.8125,0.07446808,0.032252915,0.026562339,9.5517933E-4,-0.027753443,-0.029738426,0.0,0.0,0.0
527.3062,427.24646,78331199,0.8,0.08510638,0.030256957,0.026181191,9.5517933E-4,-0.027753443,-0.029738426,0.0,0.0,0.0
527.3062,427.24646,78331216,0.8,0.09574468,-0.039172348,-0.033438124,9.5517933E-4,-0.027753443,-0.029738426,0.0,0.0,0.0
526.80634,427.24646,78331232,0.8125,0.08510638,-14.820417,0.0025777188,9.5517933E-4,-0.027753443,-0.029738426,0.0,0.0,0.0
526.80634,427.24646,78331249,0.8,0.08510638,-20.102283,-0.020085236,9.5517933E-4,-0.027753443,-0.029738426,0.0,0.0,0.0
526.80634,427.24646,78331266,0.8125,0.09574468,-10.994782,0.037405495,9.5517933E-4,-0.027753443,-0.029738426,0.0,0.0,0.0
526.80634,427.24646,78331283,0.825,0.09574468,1.1285567,0.040051717,9.5517933E-4,-0.027753443,-0.029738426,0.0,0.0,0.0
526.80634,427.24646,78331299,0.825,0.09574468,8.64916,-0.025830837,9.5517933E-4,-0.027753443,-0.029738426,0.0,0.0,0.0
526.80634,427.24646,78331316,0.7875,0.08510638,5.67776,0.058747895,9.5517933E-4,-0.027753443,-0.029738426,0.0,0.0,0.0
526.80634,427.24646,78331333,0.8125,0.09574468,-0.028468717,-0.020447271,9.5517933E-4,-0.027753443,-0.029738426,0.0,0.0,0.0
526.80634,427.24646,78331349,0.8125,0.09574468,0.018424517,0.01748024,9.5517933E-4,-0.027753443,-0.029738426,0.0,0.0,0.0
526.80634,427.24646,78331366,0.8125,0.09574468,0.011217719,0.008447342,9.5517933E-4,-0.027753443,-0.029738426,0.0,0.0,0.0
526.80634,427.24646,78331383,0.8125,0.09574468,-0.005064869,-0.006422881,9.5517933E-4,-0.027753443,-0.029738426,0.0,0.0,0.0
526.80634,427.24646,78331400,0.825,0.09574468,0.023997666,0.018202402,9.5517933E-4,-0.027753443,-0.029738426,0.0,0.0,0.0
526.80634,427.24646,78331416,0.8,0.09574468,-0.001559997,-9.6982013E-4,7.6414645E-4,-0.006202787,-0.0557909,0.0,0.0,0.0
526.80634,427.24646,78331433,0.8125,0.09574468,0.0010817006,-5.906221E-4,7.6414645E-4,-0.006202787,-0.0557909,0.0,0.0,0.0
526.80634,427.24646,78331465,0.8125,0.09574468,0.025502615,0.02174152,7.6414645E-4,-0.006202787,-0.0557909,0.0,0.0,0.0
526.80634,427.24646,78331483,0.8,0.08510638,0.01635644,0.014624783,7.6414645E-4,-0.006202787,-0.0557909,0.0,0.0,0.0
526.80634,427.24646,78331498,0.8,0.09574468,-0.0031152524,-0.0021500883,7.6414645E-4,-0.006202787,-0.0557909,0.0,0.0,0.0
526.80634,427.24646,78331517,0.8125,0.09574468,0.007728114,0.0054855254,7.6414645E-4,-0.006202787,-0.0557909,0.0,0.0,0.0
526.80634,427.24646,78331550,0.825,0.09574468,-0.017937142,-0.015348915,7.6414645E-4,-0.006202787,-0.0557909,0.0,0.0,0.0
526.80634,427.24646,78331567,0.8125,0.09574468,-0.027830755,-0.023286834,7.6414645E-4,-0.006202787,-0.0557909,0.0,0.0,0.0
526.80634,427.24646,78331578,0.825,0.09574468,0.033116177,0.028808597,7.6414645E-4,-0.006202787,-0.0557909,0.0,0.0,0.0
526.80634,427.24646,78331599,0.8125,0.09574468,0.017052585,0.013039035,7.6414645E-4,-0.006202787,-0.0557909,0.0,0.0,0.0
526.80634,427.24646,78331617,0.8125,0.09574468,-0.036163073,-0.03044765,7.6414645E-4,-0.006202787,-0.0557909,0.0,0.0,0.0
526.80634,427.24646,78331634,0.8,0.09574468,-0.011624827,-0.010365852,7.6414645E-4,-0.006202787,-0.0557909,0.0,0.0,0.0
526.80634,427.24646,78331650,0.8,0.08510638,-0.025580341,-0.022266217,7.6414645E-4,-0.006202787,-0.0557909,0.0,0.0,0.0
526.80634,427.24646,78331667,0.8125,0.09574468,-0.01184465,-0.009683382,7.6414645E-4,-0.006202787,-0.0557909,0.0,0.0,0.0
526.80634,427.24646,78331684,0.8125,0.09574468,-0.027992703,-0.022232272,7.6414645E-4,-0.006202787,-0.0557909,0.0,0.0,0.0
526.80634,427.24646,78331700,0.7875,0.08510638,-0.026653757,-0.022059934,7.6414645E-4,-0.006202787,-0.0557909,0.0,0.0,0.0
526.80634,427.24646,78331717,0.825,0.09574468,0.039729144,0.030076187,7.6414645E-4,-0.006202787,-0.0557909,0.0,0.0,0.0
526.80634,427.24646,78331734,0.825,0.08510638,0.01648919,0.015263214,7.6414645E-4,-0.006202787,-0.0557909,0.0,0.0,0.0
526.80634,427.24646,78331750,0.8125,0.09574468,0.019857634,0.015116856,7.6414645E-4,-0.006202787,-0.0557909,0.0,0.0,0.0
526.80634,427.24646,78331767,0.7875,0.09574468,0.024007529,0.020075513,7.6414645E-4,-0.006202787,-0.0557909,0.0,0.0,0.0
526.80634,427.24646,78331784,0.8,0.09574468,-0.0040039443,-0.00113062,7.6414645E-4,-0.006202787,-0.0557909,0.0,0.0,0.0
526.80634,427.24646,78331801,0.8,0.09574468,0.021551805,0.01897928,7.6414645E-4,-0.006202787,-0.0557909,0.0,0.0,0.0
526.80634,427.24646,78331817,0.8125,0.09574468,-0.018587328,-0.015938487,7.6414645E-4,-0.006202787,-0.0557909,0.0,0.0,0.0
526.80634,427.24646,78331834,0.8,0.09574468,0.014327944,0.011879024,7.6414645E-4,-0.006202787,-0.0557909,0.0,0.0,0.0
526.80634,427.24646,78331851,0.7875,0.09574468,0.02990114,0.02442895,7.6414645E-4,-0.006202787,-0.0557909,0.0,0.0,0.0
526.80634,427.24646,78331867,0.8125,0.09574468,0.0018521402,4.5282254E-4,7.6414645E-4,-0.006202787,-0.0557909,0.0,0.0,0.0
526.80634,427.24646,78331901,0.8,0.09574468,-0.05809254,-0.046266463,7.6414645E-4,-0.006202787,-0.0557909,0.0,0.0,0.0
526.80634,427.24646,78331918,0.8,0.09574468,-0.045793675,-0.035756603,7.6414645E-4,-0.006202787,-0.0557909,0.0,0.0,0.0
526.80634,427.24646,78331934,0.8,0.09574468,-0.022033775,-0.017549522,7.6414645E-4,-0.006202787,-0.0557909,0.0,0.0,0.0
526.80634,427.24646,78331947,0.8125,0.09574468,-0.010515858,-0.008056637,-0.015388697,0.011037797,0.035367012,0.0,0.0,0.0
526.80634,427.24646,78331968,0.8,0.09574468,-0.019909723,-0.01686911,-0.015388697,0.011037797,0.035367012,0.0,0.0,0.0
526.80634,427.24646,78331984,0.7875,0.08510638,0.02632,0.022341706,-0.015388697,0.011037797,0.035367012,0.0,0.0,0.0
526.80634,427.24646,78332001,0.7875,0.09574468,0.034457866,0.027537579,-0.015388697,0.011037797,0.035367012,0.0,0.0,0.0
526.80634,427.24646,78332018,0.8,0.09574468,0.020658586,0.015798701,-0.015388697,0.011037797,0.035367012,0.0,0.0,0.0
526.80634,427.24646,78332035,0.8,0.08510638,0.009846485,0.008409624,-0.015388697,0.011037797,0.035367012,0.0,0.0,0.0
526.80634,427.24646,78332051,0.8125,0.09574468,-0.035431106,-0.027529985,-0.015388697,0.011037797,0.035367012,0.0,0.0,0.0
526.80634,427.24646,78332063,0.8,0.09574468,-2.4370369E-4,5.859122E-4,-0.015388697,0.011037797,0.035367012,0.0,0.0,0.0
526.80634,427.24646,78332101,0.8,0.09574468,-0.035052277,-0.029263116,-0.015388697,0.011037797,0.035367012,0.0,0.0,0.0
526.80634,427.24646,78332108,0.8125,0.09574468,0.0040720133,0.0028941592,-0.015388697,0.011037797,0.035367012,0.0,0.0,0.0
526.80634,427.24646,78332135,0.8,0.09574468,-0.0038206847,-0.00496693,-0.015388697,0.011037797,0.035367012,0.0,0.0,0.0
526.80634,427.24646,78332152,0.8,0.09574468,-0.003610409,-0.0030076893,-0.015388697,0.011037797,0.035367012,0.0,0.0,0.0
526.80634,427.24646,78332168,0.8125,0.09574468,0.01378344,0.0130768595,-0.015388697,0.011037797,0.035367012,0.0,0.0,0.0
526.80634,427.24646,78332185,0.7875,0.08510638,0.012609807,0.009109701,-0.015388697,0.011037797,0.035367012,0.0,0.0,0.0
526.80634,427.24646,78332197,0.8125,0.09574468,0.004404381,0.005566606,-0.015388697,0.011037797,0.035367012,0.0,0.0,0.0
526.80634,427.24646,78332218,0.8125,0.09574468,0.013597628,0.011648887,-0.015388697,0.011037797,0.035367012,0.0,0.0,0.0
526.80634,427.24646,78332235,0.7875,0.09574468,-0.0030733687,-3.4327735E-4,-0.015388697,0.011037797,0.035367012,0.0,0.0,0.0
526.80634,427.24646,78332252,0.825,0.09574468,-0.0313814,-0.02316961,-0.015388697,0.011037797,0.035367012,0.0,0.0,0.0
526.80634,427.24646,78332269,0.8,0.09574468,0.036521185,0.02826698,-0.015388697,0.011037797,0.035367012,0.0,0.0,0.0
526.80634,427.24646,78332285,0.8,0.09574468,-0.004287047,-0.003220447,-0.015388697,0.011037797,0.035367012,0.0,0.0,0.0
526.80634,427.24646,78332335,0.8,0.08510638,-0.03671785,-0.027807944,-0.015388697,0.011037797,0.035367012,0.0,0.0,0.0
526.80634,427.24646,78332352,0.7875,0.09574468,0.01311793,0.009511898,-0.015388697,0.011037797,0.035367012,0.0,0.0,0.0
526.80634,427.24646,78332369,0.8125,0.09574468,-0.022947742,-0.017086942,-0.015388697,0.011037797,0.035367012,0.0,0.0,0.0
526.80634,427.24646,78332386,0.8,0.08510638,-0.01410077,-0.013328935,-0.015388697,0.011037797,0.035367012,0.0,0.0,0.0
526.80634,427.24646,78332402,0.8125,0.09574468,0.028132305,0.024938542,-0.015388697,0.011037797,0.035367012,0.0,0.0,0.0
526.80634,427.24646,78332436,0.77500004,0.08510638,-0.015431199,-0.013611492,-0.015388697,0.011037797,0.035367012,0.0,0.0,0.0
526.80634,427.24646,78332452,0.8,0.08510638,0.022008676,0.017565135,-0.015388697,0.011037797,0.035367012,0.0,0.0,0.0
526.80634,427.24646,78332469,0.8,0.08510638,-0.04634178,-0.03829926,-0.015388697,0.011037797,0.035367012,0.0,0.0,0.0
526.80634,427.24646,78332478,0.8,0.09574468,-0.0095625995,-0.0067176837,-0.012310952,0.056830257,0.02829361,0.0,0.0,0.0
526.80634,427.24646,78332502,0.7875,0.08510638,-0.030234667,-0.025508467,-0.012310952,0.056830257,0.02829361,0.0,0.0,0.0
526.80634,427.24646,78332519,0.8,0.09574468,-0.010887911,-0.01040481,-0.012310952,0.056830257,0.02829361,0.0,0.0,0.0
526.80634,427.24646,78332536,0.7875,0.09574468,0.029686358,0.025460193,-0.012310952,0.056830257,0.02829361,0.0,0.0,0.0
526.80634,427.24646,78332553,0.8125,0.09574468,0.017680738,0.016243963,-0.012310952,0.056830257,0.02829361,0.0,0.0,0.0
526.80634,427.24646,78332569,0.8,0.09574468,2.4364777E-5,0.0015672257,-0.012310952,0.056830257,0.02829361,0.0,0.0,0.0
526.80634,427.24646,78332586,0.825,0.09574468,0.020500133,0.01816139,-0.012310952,0.056830257,0.02829361,0.0,0.0,0.0
526.80634,427.24646,78332603,0.8125,0.09574468,0.019617725,0.017228423,-0.012310952,0.056830257,0.02829361,0.0,0.0,0.0
526.80634,427.24646,78332619,0.8,0.09574468,0.03165412,0.026040759,-0.012310952,0.056830257,0.02829361,0.0,0.0,0.0
526.80634,427.24646,78332636,0.8,0.09574468,0.0060828202,0.004967411,-0.012310952,0.056830257,0.02829361,0.0,0.0,0.0
526.80634,427.24646,78332653,0.8,0.09574468,0.024554048,0.019856364,-0.012310952,0.056830257,0.02829361,0.0,0.0,0.0
526.80634,427.24646,78332670,0.8,0.08510638,0.018361669,0.013106227,-0.012310952,0.056830257,0.02829361,0.0,0.0,0.0
526.80634,427.24646,78332686,0.8125,0.09574468,-0.00314213,-0.0017953481,-0.012310952,0.056830257,0.02829361,0.0,0.0,0.0
526.80634,427.24646,78332703,0.8,0.08510638,0.011105502,0.0064815073,-0.012310952,0.056830257,0.02829361,0.0,0.0,0.0
526.80634,427.24646,78332719,0.8,0.08510638,0.03457927,0.028217826,-0.012310952,0.056830257,0.02829361,0.0,0.0,0.0
526.80634,427.24646,78332736,0.7875,0.08510638,0.008111895,0.006809176,-0.012310952,0.056830257,0.02829361,0.0,0.0,0.0
526.80634,427.24646,78332753,0.8,0.07446808,0.017723428,0.015533696,-0.012310952,0.056830257,0.02829361,0.0,0.0,0.0
526.80634,427.24646,78332770,0.8125,0.09574468,-0.016508829,-0.013066555,-0.012310952,0.056830257,0.02829361,0.0,0.0,0.0
526.80634,427.24646,78332787,0.8125,0.09574468,-0.014252898,-0.00956533,-0.012310952,0.056830257,0.02829361,0.0,0.0,0.0
526.80634,427.24646,78332803,0.8125,0.09574468,0.0067625386,0.0050272155,-0.012310952,0.056830257,0.02829361,0.0,0.0,0.0
525.7778,427.24646,78332820,0.7875,0.07446808,-32.350704,0.024178477,-0.012310952,0.056830257,0.02829361,0.0,0.0,0.0
525.8067,427.24646,78332832,0.8,0.08510638,-37.54835,-0.0071130004,-0.012310952,0.056830257,0.02829361,0.0,0.0,0.0
525.8067,427.24646,78332853,0.77500004,0.07446808,-20.958088,0.0023839243,-0.012310952,0.056830257,0.02829361,0.0,0.0,0.0
525.8067,427.24646,78332864,0.7875,0.07446808,-10.371325,-0.004396441,-0.012310952,0.056830257,0.02829361,0.0,0.0,0.0
524.6181,427.24646,78332887,0.8,0.08510638,-19.736156,0.034062795,-0.012310952,0.056830257,0.02829361,0.0,0.0,0.0
523.57776,428.54297,78332904,0.7875,0.08510638,-66.38777,33.240173,-0.012310952,0.056830257,0.02829361,0.0,0.0,0.0
522.8077,430.36768,78332920,0.7875,0.07446808,-82.44569,100.38093,-0.012310952,0.056830257,0.02829361,0.0,0.0,0.0
522.0208,432.1991,78332937,0.7875,0.08510638,-62.48779,151.11375,-0.012310952,0.056830257,0.02829361,0.0,0.0,0.0
520.98254,434.04468,78332954,0.8125,0.08510638,-52.317028,158.93404,-0.012310952,0.056830257,0.02829361,0.0,0.0,0.0
519.9478,435.24292,78332970,0.8,0.08510638,-55.764343,122.24319,-0.012310952,0.056830257,0.02829361,0.0,0.0,0.0
518.00977,436.84167,78332987,0.8125,0.08510638,-87.53895,76.166794,-0.012310952,0.056830257,0.02829361,0.0,0.0,0.0
515.87964,438.7351,78333004,0.8,0.08510638,-132.09286,85.040405,-0.012310952,0.056830257,0.02829361,0.0,0.0,0.0
513.82385,440.56226,78333021,0.8125,0.09574468,-151.37051,104.886215,-0.025848761,-0.018535823,-0.025364876,0.0,0.0,0.0
511.71478,443.3252,78333037,0.8,0.09574468,-153.17513,151.6188,-0.025848761,-0.018535823,-0.025364876,0.0,0.0,0.0
510.22668,444.12793,78333054,0.8,0.09574468,-124.83453,130.9671,-0.025848761,-0.018535823,-0.025364876,0.0,0.0,0.0
508.54932,445.25012,78333071,0.8125,0.10638297,-90.090904,65.8932,-0.025848761,-0.018535823,-0.025364876,0.0,0.0,0.0
505.91833,448.03284,78333087,0.7875,0.12765957,-111.85853,85.966194,-0.025848761,-0.018535823,-0.025364876,0.0,0.0,0.0
503.71088,450.17334,78333104,0.8,0.12765957,-133.09447,112.12782,-0.025848761,-0.018535823,-0.025364876,0.0,0.0,0.0
501.0876,452.98596,78333121,0.8,0.12765957,-169.28575,189.21861,-0.025848761,-0.018535823,-0.025364876,0.0,0.0,0.0
497.96643,456.6847,78333137,0.77500004,0.10638297,-190.61086,226.92953,-0.025848761,-0.018535823,-0.025364876,0.0,0.0,0.0
495.19513,460.33704,78333154,0.8,0.10638297,-188.01752,234.02373,-0.025848761,-0.018535823,-0.025364876,0.0,0.0,0.0
493.09802,463.42566,78333171,0.8,0.08510638,-168.16777,249.98778,-0.025848761,-0.018535823,-0.025364876,0.0,0.0,0.0
491.09113,466.74377,78333188,0.7875,0.08510638,-118.87219,203.51265,-0.025848761,-0.018535823,-0.025364876,0.0,0.0,0.0
489.00354,470.4546,78333204,0.7875,0.08510638,-95.86416,195.09038,-0.025848761,-0.018535823,-0.025364876,0.0,0.0,0.0
486.38367,475.943,78333221,0.8,0.08510638,-114.01463,248.96898,-0.025848761,-0.018535823,-0.025364876,0.0,0.0,0.0
484.27747,481.55896,78333238,0.7625,0.08510638,-141.66348,353.67188,-0.025848761,-0.018535823,-0.025364876,0.0,0.0,0.0
482.70587,486.0918,78333254,0.8,0.09574468,-124.098724,376.65894,-0.025848761,-0.018535823,-0.025364876,0.0,0.0,0.0
481.1164,490.6942,78333271,0.7875,0.09574468,-93.55103,328.86374,-0.025848761,-0.018535823,-0.025364876,0.0,0.0,0.0
480.17493,494.40503,78333288,0.8,0.09574468,-59.368397,245.53513,-0.025848761,-0.018535823,-0.025364876,0.0,0.0,0.0
479.12244,498.14734,78333305,0.8,0.11702127,-42.857605,185.13834,-0.025848761,-0.018535823,-0.025364876,0.0,0.0,0.0
478.6145,500.47253,78333321,0.8,0.11702127,-31.506865,154.33832,-0.025848761,-0.018535823,-0.025364876,0.0,0.0,0.0
477.5683,502.7838,78333338,0.7875,0.12765957,-28.780132,113.20486,-0.025848761,-0.018535823,-0.025364876,0.0,0.0,0.0
476.52722,505.0713,78333355,0.8,0.12765957,-46.3926,104.64767,-0.025848761,-0.018535823,-0.025364876,0.0,0.0,0.0
475.82294,508.3971,78333371,0.8,0.12765957,-57.158222,125.050606,-0.025848761,-0.018535823,-0.025364876,0.0,0.0,0.0
475.82294,512.084,78333388,0.8,0.11702127,-30.333244,198.37892,-0.025848761,-0.018535823,-0.025364876,0.0,0.0,0.0
475.82294,515.04297,78333405,0.77500004,0.11702127,8.858583,238.52364,-0.025848761,-0.018535823,-0.025364876,0.0,0.0,0.0
475.82294,518.57825,78333422,0.8,0.09574468,29.59254,222.2725,-0.025848761,-0.018535823,-0.025364876,0.0,0.0,0.0
475.82294,522.2899,78333438,0.77500004,0.09574468,23.076263,221.3326,-0.025848761,-0.018535823,-0.025364876,0.0,0.0,0.0
476.35217,527.80383,78333455,0.7875,0.08510638,17.984468,269.52634,-0.025848761,-0.018535823,-0.025364876,0.0,0.0,0.0
477.39453,532.47424,78333472,0.77500004,0.08510638,47.858387,319.32712,-0.025848761,-0.018535823,-0.025364876,0.0,0.0,0.0
477.82233,536.001,78333488,0.7875,0.08510638,63.610714,303.19418,-0.025848761,-0.018535823,-0.025364876,0.0,0.0,0.0
478.96405,539.7031,78333505,0.77500004,0.08510638,71.6092,243.83545,-0.025848761,-0.018535823,-0.025364876,0.0,0.0,0.0
478.82196,542.1918,78333522,0.77500004,0.08510638,39.085484,165.84384,-0.025848761,-0.018535823,-0.025364876,0.0,0.0,0.0
479.32184,544.03613,78333539,0.7875,0.09574468,5.1948056,100.179756,-0.025848761,-0.018535823,-0.025364876,0.0,0.0,0.0
479.32184,544.5288,78333555,0.7875,0.09574468,-1.1768385,37.42732,0.011320993,0.0011713505,0.01170826,0.0,0.0,0.0
479.32184,545.24646,78333572,0.8,0.09574468,-7.739708,-18.355766,0.011320993,0.0011713505,0.01170826,0.0,0.0,0.0
479.32184,545.41736,78333589,0.8,0.09574468,-5.5099907,-33.72167,0.011320993,0.0011713505,0.01170826,0.0,0.0,0.0
479.32184,545.41736,78333605,0.8,0.09574468,-9.107999,-39.195953,0.011320993,0.0011713505,0.01170826,0.0,0.0,0.0
479.32184,545.41736,78333622,0.8,0.09574468,-5.544748,-21.833025,0.011320993,0.0011713505,0.01170826,0.0,0.0,0.0
479.32184,545.41736,78333635,0.8,0.09574468,0.024166632,-13.672363,0.011320993,0.0011713505,0.01170826,0.0,0.0,0.0
479.32184,545.41736,78333656,0.8,0.08510638,0.021604143,-10.400711,0.011320993,0.0011713505,0.01170826,0.0,0.0,0.0
479.32184,545.41736,78333668,0.7875,0.08510638,0.028053368,-1.5558803,0.011320993,0.0011713505,0.01170826,0.0,0.0,0.0
479.32184,545.41736,78333689,0.7875,0.08510638,0.031747613,0.034418825,0.011320993,0.0011713505,0.01170826,0.0,0.0,0.0
479.32184,545.41736,78333712,0.8,0.08510638,-0.006327913,-0.008295673,0.011320993,0.0011713505,0.01170826,0.0,0.0,0.0
479.32184,545.41736,78333744,0.7875,0.08510638,-0.00844075,-0.010938089,0.011320993,0.0011713505,0.01170826,0.0,0.0,0.0
479.32184,545.41736,78333789,0.7875,0.08510638,-0.0061951643,-0.00772529,0.011320993,0.0011713505,0.01170826,0.0,0.0,0.0
479.32184,545.41736,78333796,0.8,0.08510638,0.023672355,0.027120167,0.011320993,0.0011713505,0.01170826,0.0,0.0,0.0
479.32184,545.41736,78333839,0.8125,0.08510638,0.0070447917,0.0056105913,0.011320993,0.0011713505,0.01170826,0.0,0.0,0.0
479.32184,545.41736,78333856,0.7875,0.08510638,-0.00994474,-0.01246202,0.011320993,0.0011713505,0.01170826,0.0,0.0,0.0
479.32184,545.41736,78333873,0.7875,0.08510638,-0.019043887,-0.022022812,0.011320993,0.0011713505,0.01170826,0.0,0.0,0.0
479.32184,545.41736,78333889,0.8125,0.08510638,0.010813716,0.011242087,0.011320993,0.0011713505,0.01170826,0.0,0.0,0.0
479.32184,545.41736,78333906,0.8,0.08510638,-0.02350187,-0.02854986,0.011320993,0.0011713505,0.01170826,0.0,0.0,0.0
479.32184,545.41736,78333923,0.8,0.08510638,0.03304418,0.03591584,0.011320993,0.0011713505,0.01170826,0.0,0.0,0.0
479.32184,545.41736,78333940,0.7875,0.08510638,0.030619195,0.03317769,0.011320993,0.0011713505,0.01170826,0.0,0.0,0.0
479.32184,545.41736,78333949,0.8,0.08510638,0.0331128,0.035637807,0.011320993,0.0011713505,0.01170826,0.0,0.0,0.0
479.32184,545.41736,78333973,0.8125,0.08510638,0.02029468,0.022213006,0.011320993,0.0011713505,0.01170826,0.0,0.0,0.0
479.32184,545.41736,78333990,0.7875,0.08510638,0.012144977,0.011709545,0.011320993,0.0011713505,0.01170826,0.0,0.0,0.0
479.32184,545.41736,78334006,0.8,0.08510638,-0.021754747,-0.02361469,0.011320993,0.0011713505,0.01170826,0.0,0.0,0.0
479.32184,545.41736,78334021,0.8,0.08510638,0.020413375,0.025722804,0.011320993,0.0011713505,0.01170826,0.0,0.0,0.0
479.32184,545.41736,78334040,0.7875,0.08510638,2.2224139E-4,-0.0018948491,0.011320993,0.0011713505,0.01170826,0.0,0.0,0.0
479.32184,545.41736,78334055,0.7875,0.08510638,-0.0075889747,-0.009981314,0.011320993,0.0011713505,0.01170826,0.0,0.0,0.0
479.32184,545.41736,78334073,0.8125,0.08510638,-9.172366E-4,5.3272356E-4,0.011320993,0.0011713505,0.01170826,0.0,0.0,0.0
479.32184,545.41736,78334085,0.8,0.08510638,-0.030054025,-0.033402227,-0.022943214,9.370744E-4,0.009366989,0.0,0.0,0.0
479.32184,545.41736,78334106,0.7875,0.08510638,0.042336825,0.049133785,-0.022943214,9.370744E-4,0.009366989,0.0,0.0,0.0
479.32184,545.41736,78334146,0.8,0.08510638,0.0,0.0,-0.022943214,9.370744E-4,0.009366989,0.0,0.0,0.0
479.32184,545.41736,78334174,0.8,0.08510638,-0.031210698,-0.03479069,-0.022943214,9.370744E-4,0.009366989,0.0,0.0,0.0
479.32184,545.41736,78334207,0.7875,0.08510638,-0.0072487793,-0.009331394,-0.022943214,9.370744E-4,0.009366989,0.0,0.0,0.0
479.32184,545.41736,78334224,0.8,0.08510638,-7.3861436E-4,-1.6417919E-4,-0.022943214,9.370744E-4,0.009366989,0.0,0.0,0.0
479.32184,545.41736,78334240,0.8,0.09574468,-0.033356987,-0.0371805,-0.022943214,9.370744E-4,0.009366989,0.0,0.0,0.0
479.32184,545.41736,78334257,0.8,0.09574468,0.0047362,0.004797251,-0.022943214,9.370744E-4,0.009366989,0.0,0.0,0.0
479.32184,545.41736,78334274,0.7875,0.08510638,-0.024830485,-0.028555702,-0.022943214,9.370744E-4,0.009366989,0.0,0.0,0.0
479.32184,545.41736,78334287,0.7875,0.08510638,-0.0057616625,-0.006614488,-0.022943214,9.370744E-4,0.009366989,0.0,0.0,0.0
479.32184,545.41736,78334307,0.8,0.08510638,0.028724626,0.033667505,-0.022943214,9.370744E-4,0.009366989,0.0,0.0,0.0
479.32184,545.41736,78334323,0.8,0.09574468,0.003540097,0.0051096887,-0.022943214,9.370744E-4,0.009366989,0.0,0.0,0.0
479.32184,545.41736,78334339,0.8,0.08510638,-0.0049804756,-0.005242229,-0.022943214,9.370744E-4,0.009366989,0.0,0.0,0.0
479.32184,545.41736,78334355,0.8,0.09574468,-0.03149005,-0.035657052,-0.022943214,9.370744E-4,0.009366989,0.0,0.0,0.0
479.32184,545.41736,78334374,0.8,0.08510638,0.019926526,0.019432914,-0.022943214,9.370744E-4,0.009366989,0.0,0.0,0.0
479.32184,545.41736,78334391,0.8125,0.08510638,-0.015460364,-0.018355612,-0.022943214,9.370744E-4,0.009366989,0.0,0.0,0.0
479.32184,545.41736,78334407,0.8,0.08510638,0.015516352,0.017236786,-0.022943214,9.370744E-4,0.009366989,0.0,0.0,0.0
479.32184,545.41736,78334458,0.7875,0.08510638,-0.0033728897,-3.768273E-4,-0.022943214,9.370744E-4,0.009366989,0.0,0.0,0.0
479.32184,545.41736,78334474,0.8,0.08510638,0.010380438,0.015296431,-0.022943214,9.370744E-4,0.009366989,0.0,0.0,0.0
479.32184,545.41736,78334491,0.8125,0.08510638,0.024451427,0.028213577,-0.022943214,9.370744E-4,0.009366989,0.0,0.0,0.0
479.32184,545.41736,78334504,0.8,0.08510638,0.013004948,0.014356053,-0.022943214,9.370744E-4,0.009366989,0.0,0.0,0.0
479.32184,545.41736,78334524,0.7875,0.08510638,0.01957297,0.02256493,-0.022943214,9.370744E-4,0.009366989,0.0,0.0,0.0
479.32184,545.41736,78334540,0.8,0.08510638,0.03409742,0.037541177,-0.022943214,9.370744E-4,0.009366989,0.0,0.0,0.0
479.32184,545.41736,78334556,0.7875,0.08510638,0.015034114,0.014463027,-0.022943214,9.370744E-4,0.009366989,0.0,0.0,0.0
479.32184,545.41736,78334591,0.7875,0.08510638,0.003308619,0.004579009,-0.022943214,9.370744E-4,0.009366989,0.0,0.0,0.0
479.32184,545.41736,78334608,0.8125,0.08510638,-0.005163028,-0.0054790634,-0.022943214,9.370744E-4,0.009366989,0.0,0.0,0.0
479.32184,545.41736,78334625,0.7875,0.08510638,0.007082206,0.00746119,0.029645428,-0.015250355,-0.176507,0.0,0.0,0.0
479.32184,545.41736,78334640,0.7875,0.08510638,0.012197322,0.015397253,0.029645428,-0.015250355,-0.176507,0.0,0.0,0.0
479.32184,545.41736,78334675,0.7875,0.09574468,0.021349648,0.023288062,0.029645428,-0.015250355,-0.176507,0.0,0.0,0.0
479.32184,545.41736,78334692,0.7875,0.09574468,0.02942083,0.033623252,0.029645428,-0.015250355,-0.176507,0.0,0.0,0.0
479.32184,545.41736,78334708,0.8,0.08510638,-0.0193789,-0.020842956,0.029645428,-0.015250355,-0.176507,0.0,0.0,0.0
479.32184,545.41736,78334725,0.7875,0.08510638,-0.021093331,-0.023705946,0.029645428,-0.015250355,-0.176507,0.0,0.0,0.0
479.32184,545.41736,78334742,0.7875,0.08510638,0.015802734,0.018318936,0.029645428,-0.015250355,-0.176507,0.0,0.0,0.0
479.32184,545.41736,78334753,0.8,0.09574468,-0.016743736,-0.017351165,0.029645428,-0.015250355,-0.176507,0.0,0.0,0.0
479.32184,545.41736,78334775,0.8,0.09574468,0.040960707,0.046856128,0.029645428,-0.015250355,-0.176507,0.0,0.0,0.0
479.32184,545.41736,78334809,0.7875,0.09574468,-0.018734409,-0.020500718,0.029645428,-0.015250355,-0.176507,0.0,0.0,0.0
479.32184,545.41736,78334825,0.8,0.09574468,-0.029669818,-0.032508183,0.029645428,-0.015250355,-0.176507,0.0,0.0,0.0
479.32184,545.41736,78334842,0.8,0.09574468,0.023298206,0.025354464,0.029645428,-0.015250355,-0.176507,0.0,0.0,0.0
480.07153,545.41736,78334857,0.8,0.09574468,20.987188,-0.024995875,0.029645428,-0.015250355,-0.176507,0.0,0.0,0.0
480.7304,546.3059,78334892,0.8,0.09574468,33.462276,29.494343,0.029645428,-0.015250355,-0.176507,0.0,0.0,0.0
481.7682,546.3059,78334909,0.8,0.09574468,55.689663,28.765448,0.029645428,-0.015250355,-0.176507,0.0,0.0,0.0
482.81055,546.3059,78334925,0.8125,0.09574468,75.368614,11.619914,0.029645428,-0.015250355,-0.176507,0.0,0.0,0.0
483.84772,547.2429,78334942,0.8,0.08510638,81.89206,18.643505,0.029645428,-0.015250355,-0.176507,0.0,0.0,0.0
485.9641,548.0829,78334959,0.8,0.08510638,100.715256,60.212955,0.029645428,-0.015250355,-0.176507,0.0,0.0,0.0
488.05334,549.17957,78334976,0.7875,0.08510638,127.9918,68.830215,0.029645428,-0.015250355,-0.176507,0.0,0.0,0.0
490.75116,550.11633,78334992,0.77500004,0.08510638,165.0564,79.38565,0.029645428,-0.015250355,-0.176507,0.0,0.0,0.0
495.23694,551.07544,78335009,0.7875,0.08510638,235.65129,73.82108,0.029645428,-0.015250355,-0.176507,0.0,0.0,0.0
499.4804,551.63684,78335026,0.8,0.08510638,300.9139,53.921772,0.029645428,-0.015250355,-0.176507,0.0,0.0,0.0
503.35706,551.63684,78335042,0.7875,0.08510638,304.4628,22.404593,0.029645428,-0.015250355,-0.176507,0.0,0.0,0.0
508.02545,552.5254,78335059,0.7875,0.08510638,291.00986,2.9591308,0.029645428,-0.015250355,-0.176507,0.0,0.0,0.0
512.8328,552.5254,78335076,0.7875,0.08510638,272.54697,-0.28210497,0.029645428,-0.015250355,-0.176507,0.0,0.0,0.0
517.79926,552.5254,78335093,0.7875,0.08510638,304.9984,4.6157355,0.029645428,-0.015250355,-0.176507,0.0,0.0,0.0
521.99585,550.8871,78335109,0.7875,0.08510638,306.55432,-40.668385,0.029645428,-0.015250355,-0.176507,0.0,0.0,0.0
526.1647,549.0343,78335126,0.77500004,0.09574468,263.46286,-124.37533,0.029645428,-0.015250355,-0.176507,0.0,0.0,0.0
529.8172,547.1891,78335143,0.77500004,0.08510638,218.6141,-161.69615,0.029645428,-0.015250355,-0.176507,0.0,0.0,0.0
533.96387,543.4984,78335159,0.77500004,0.07446808,209.47969,-208.75401,0.023716345,0.06779975,0.13079453,0.0,0.0,0.0
539.2257,539.7853,78335176,0.7625,0.07446808,263.3876,-248.22249,0.023716345,0.06779975,0.13079453,0.0,0.0,0.0
544.42395,534.97925,78335193,0.7625,0.07446808,315.84015,-292.29276,0.023716345,0.06779975,0.13079453,0.0,0.0,0.0
548.4296,531.5298,78335210,0.77500004,0.08510638,314.03073,-301.92645,0.023716345,0.06779975,0.13079453,0.0,0.0,0.0
554.7055,526.67896,78335226,0.77500004,0.09574468,337.1862,-295.70392,0.023716345,0.06779975,0.13079453,0.0,0.0,0.0
559.73816,521.9486,78335243,0.7625,0.10638297,328.6045,-288.05984,0.023716345,0.06779975,0.13079453,0.0,0.0,0.0
564.8948,516.8956,78335260,0.7625,0.12765957,324.70734,-305.9524,0.023716345,0.06779975,0.13079453,0.0,0.0,0.0
568.74316,513.1937,78335276,0.77500004,0.12765957,282.8125,-279.77237,0.023716345,0.06779975,0.13079453,0.0,0.0,0.0
571.4825,509.53857,78335293,0.77500004,0.10638297,182.34517,-224.0107,0.023716345,0.06779975,0.13079453,0.0,0.0,0.0
574.4356,504.96704,78335310,0.75,0.08510638,125.83999,-215.79002,0.023716345,0.06779975,0.13079453,0.0,0.0,0.0
577.59924,500.32947,78335327,0.7625,0.08510638,118.75053,-250.96136,0.023716345,0.06779975,0.13079453,0.0,0.0,0.0
579.7401,495.79187,78335343,0.75,0.08510638,126.81958,-283.6699,0.023716345,0.06779975,0.13079453,0.0,0.0,0.0
581.8142,490.2616,78335360,0.77500004,0.08510638,125.27443,-321.73956,0.023716345,0.06779975,0.13079453,0.0,0.0,0.0
583.8978,484.7058,78335377,0.7625,0.09574468,107.63723,-342.80292,0.023716345,0.06779975,0.13079453,0.0,0.0,0.0
585.38446,480.21143,78335393,0.75,0.09574468,83.01555,-330.61316,0.023716345,0.06779975,0.13079453,0.0,0.0,0.0
587.57666,476.48706,78335410,0.75,0.11702127,93.49778,-271.13437,0.023716345,0.06779975,0.13079453,0.0,0.0,0.0
588.9657,472.8103,78335427,0.75,0.10638297,96.52311,-199.08295,0.023716345,0.06779975,0.13079453,0.0,0.0,0.0
590.99585,469.14685,78335444,0.7625,0.12765957,101.20914,-171.10977,0.023716345,0.06779975,0.13079453,0.0,0.0,0.0
592.0356,465.45056,78335460,0.75,0.12765957,88.22103,-199.64577,0.023716345,0.06779975,0.13079453,0.0,0.0,0.0
593.0666,461.78516,78335477,0.75,0.12765957,59.18014,-223.63046,0.023716345,0.06779975,0.13079453,0.0,0.0,0.0
593.78455,458.65442,78335494,0.7625,0.10638297,37.121277,-210.30318,0.023716345,0.06779975,0.13079453,0.0,0.0,0.0
594.13666,456.20374,78335510,0.7625,0.10638297,8.393791,-155.60976,0.023716345,0.06779975,0.13079453,0.0,0.0,0.0
594.68256,454.08228,78335527,0.77500004,0.10638297,6.1566563,-115.964165,0.023716345,0.06779975,0.13079453,0.0,0.0,0.0
595.28406,452.2351,78335544,0.77500004,0.10638297,19.370241,-85.16955,0.023716345,0.06779975,0.13079453,0.0,0.0,0.0
595.28406,450.37427,78335560,0.7625,0.10638297,15.581041,-78.3751,0.023716345,0.06779975,0.13079453,0.0,0.0,0.0
595.28406,448.5254,78335577,0.77500004,0.10638297,2.2180421,-93.69522,0.023716345,0.06779975,0.13079453,0.0,0.0,0.0
595.28406,448.57056,78335589,0.77500004,0.11702127,-10.219503,-66.329865,0.023716345,0.06779975,0.13079453,0.0,0.0,0.0
595.28406,448.57056,78335609,0.7875,0.10638297,-17.467073,-4.6267886,0.023716345,0.06779975,0.13079453,0.0,0.0,0.0
595.28406,448.57056,78335627,0.7875,0.11702127,-5.267833,46.570503,0.023716345,0.06779975,0.13079453,0.0,0.0,0.0
595.28406,448.57056,78335644,0.8,0.11702127,0.015731381,51.803543,0.023716345,0.06779975,0.13079453,0.0,0.0,0.0
595.28406,448.57056,78335661,0.8,0.12765957,0.017183203,10.226547,0.023716345,0.06779975,0.13079453,0.0,0.0,0.0
595.28406,449.0343,78335677,0.77500004,0.12765957,-0.0193869,7.851918,0.023716345,0.06779975,0.13079453,0.0,0.0,0.0
594.99,450.87024,78335694,0.7875,0.12765957,-5.0930915,67.63775,0.0029730946,-0.009760201,6.351471E-4,0.0,0.0,0.0
594.78424,453.27612,78335711,0.7875,0.12765957,-18.816103,142.86136,0.0029730946,-0.009760201,6.351471E-4,0.0,0.0,0.0
594.78424,455.42688,78335728,0.77500004,0.12765957,-15.41333,193.30386,0.0029730946,-0.009760201,6.351471E-4,0.0,0.0,0.0
594.78424,457.953,78335744,0.77500004,0.11702127,-4.168624,184.17204,0.0029730946,-0.009760201,6.351471E-4,0.0,0.0,0.0
594.78424,461.67786,78335761,0.8,0.11702127,5.5348296,196.83902,0.0029730946,-0.009760201,6.351471E-4,0.0,0.0,0.0
594.78424,465.4347,78335778,0.7875,0.09574468,8.237838,233.28247,0.0029730946,-0.009760201,6.351471E-4,0.0,0.0,0.0
594.2844,468.255,78335794,0.8,0.09574468,-16.119183,234.50343,0.0029730946,-0.009760201,6.351471E-4,0.0,0.0,0.0
593.7051,471.9541,78335811,0.7875,0.08510638,-31.111238,234.75955,0.0029730946,-0.009760201,6.351471E-4,0.0,0.0,0.0
593.78455,476.81677,78335828,0.77500004,0.08510638,-27.701693,243.42986,0.0029730946,-0.009760201,6.351471E-4,0.0,0.0,0.0
593.2847,480.29272,78335845,0.77500004,0.08510638,-27.214035,256.70602,0.0029730946,-0.009760201,6.351471E-4,0.0,0.0,0.0
593.2847,484.92554,78335861,0.77500004,0.08510638,-10.84349,286.26657,0.0029730946,-0.009760201,6.351471E-4,0.0,0.0,0.0
593.0529,489.3772,78335878,0.8,0.09574468,-2.2305074,284.49872,0.0029730946,-0.009760201,6.351471E-4,0.0,0.0,0.0
592.28503,492.9839,78335895,0.7875,0.09574468,-24.06121,246.55951,0.0029730946,-0.009760201,6.351471E-4,0.0,0.0,0.0
592.28503,496.76733,78335911,0.77500004,0.11702127,-26.045326,215.80377,0.0029730946,-0.009760201,6.351471E-4,0.0,0.0,0.0
592.28503,500.44507,78335928,0.7875,0.11702127,-16.602839,194.31516,0.0029730946,-0.009760201,6.351471E-4,0.0,0.0,0.0
591.9006,503.24756,78335945,0.7875,0.12765957,-0.11355297,175.95999,0.0029730946,-0.009760201,6.351471E-4,0.0,0.0,0.0
591.7852,506.91577,78335962,0.77500004,0.12765957,-1.0283685,185.12111,0.0029730946,-0.009760201,6.351471E-4,0.0,0.0,0.0
591.7852,510.63733,78335978,0.77500004,0.12765957,-9.293622,198.8274,0.0029730946,-0.009760201,6.351471E-4,0.0,0.0,0.0
591.7852,513.45984,78335995,0.7875,0.11702127,-3.240907,197.15755,0.0029730946,-0.009760201,6.351471E-4,0.0,0.0,0.0
591.7852,516.2792,78336012,0.77500004,0.09574468,5.63465,179.11832,0.0029730946,-0.009760201,6.351471E-4,0.0,0.0,0.0
591.7852,519.9845,78336028,0.7625,0.09574468,7.331312,185.12639,0.0029730946,-0.009760201,6.351471E-4,0.0,0.0,0.0
591.7852,523.64746,78336045,0.77500004,0.09574468,-0.04470342,206.37424,0.0029730946,-0.009760201,6.351471E-4,0.0,0.0,0.0
592.9417,527.3163,78336062,0.7875,0.08510638,31.199287,236.0688,0.0029730946,-0.009760201,6.351471E-4,0.0,0.0,0.0
593.9877,530.6738,78336078,0.7625,0.08510638,67.41303,238.90848,0.0029730946,-0.009760201,6.351471E-4,0.0,0.0,0.0
594.78424,532.9501,78336095,0.7875,0.07446808,87.97036,162.23888,0.0029730946,-0.009760201,6.351471E-4,0.0,0.0,0.0
595.56525,535.755,78336112,0.77500004,0.08510638,67.96213,131.72626,0.0029730946,-0.009760201,6.351471E-4,0.0,0.0,0.0
595.78394,537.4208,78336129,0.77500004,0.07446808,30.173195,108.46923,0.0029730946,-0.009760201,6.351471E-4,0.0,0.0,0.0
596.5915,540.292,78336145,0.7875,0.07446808,17.40575,104.75669,0.0029730946,-0.009760201,6.351471E-4,0.0,0.0,0.0
597.1434,541.6144,78336162,0.7875,0.08510638,24.346245,108.599556,0.0029730946,-0.009760201,6.351471E-4,0.0,0.0,0.0
598.2155,543.52026,78336179,0.7875,0.08510638,47.929447,92.707344,0.0029730946,-0.009760201,6.351471E-4,0.0,0.0,0.0
599.25934,545.37573,78336195,0.77500004,0.08510638,67.08022,97.540115,0.0029730946,-0.009760201,6.351471E-4,0.0,0.0,0.0
600.3005,547.2263,78336212,0.77500004,0.08510638,77.43727,105.59952,0.0029730946,-0.009760201,6.351471E-4,0.0,0.0,0.0
601.31134,548.0829,78336229,0.7875,0.08510638,70.30657,79.73951,-0.029621527,-0.047808155,-0.03149128,0.0,0.0,0.0
602.8828,548.9713,78336246,0.7875,0.08510638,83.531906,62.287743,-0.029621527,-0.047808155,-0.03149128,0.0,0.0,0.0
604.5749,550.121,78336262,0.8,0.09574468,93.9981,27.47025,-0.029621527,-0.047808155,-0.03149128,0.0,0.0,0.0
606.8716,551.98706,78336279,0.7875,0.09574468,120.97188,55.379063,-0.029621527,-0.047808155,-0.03149128,0.0,0.0,0.0
607.48914,552.0083,78336296,0.7875,0.09574468,110.41927,51.771244,-0.029621527,-0.047808155,-0.03149128,0.0,0.0,0.0
608.53204,552.5254,78336312,0.7875,0.09574468,72.92203,45.43167,-0.029621527,-0.047808155,-0.03149128,0.0,0.0,0.0
609.53644,552.5254,78336329,0.8,0.09574468,48.1964,1.2640122,-0.029621527,-0.047808155,-0.03149128,0.0,0.0,0.0
610.6088,553.1113,78336346,0.7875,0.09574468,37.0246,-23.097239,-0.029621527,-0.047808155,-0.03149128,0.0,0.0,0.0
612.0127,554.06616,78336363,0.77500004,0.09574468,58.883198,26.632051,-0.029621527,-0.047808155,-0.03149128,0.0,0.0,0.0
613.1776,554.30237,78336379,0.7875,0.09574468,79.94548,45.111446,-0.029621527,-0.047808155,-0.03149128,0.0,0.0,0.0
613.7225,554.30237,78336396,0.7875,0.09574468,62.512474,35.176304,-0.029621527,-0.047808155,-0.03149128,0.0,0.0,0.0
614.2779,554.30237,78336413,0.8,0.09574468,38.696693,-2.8450541,-0.029621527,-0.047808155,-0.03149128,0.0,0.0,0.0
615.3069,554.30237,78336429,0.7875,0.09574468,30.131287,-22.885906,-0.029621527,-0.047808155,-0.03149128,0.0,0.0,0.0
616.34625,554.30237,78336446,0.7875,0.09574468,43.875023,-12.996982,-0.029621527,-0.047808155,-0.03149128,0.0,0.0,0.0
616.83124,554.30237,78336463,0.77500004,0.09574468,52.31518,0.027990414,-0.029621527,-0.047808155,-0.03149128,0.0,0.0,0.0
617.92017,554.30237,78336480,0.7875,0.09574468,56.175594,-0.037352607,-0.029621527,-0.047808155,-0.03149128,0.0,0.0,0.0
618.2766,554.30237,78336496,0.8,0.09574468,42.99557,0.019165609,-0.029621527,-0.047808155,-0.03149128,0.0,0.0,0.0
618.50226,554.30237,78336513,0.77500004,0.08510638,11.628441,-0.040646024,-0.029621527,-0.047808155,-0.03149128,0.0,0.0,0.0
619.5417,554.30237,78336530,0.77500004,0.08510638,24.146196,0.027998978,-0.029621527,-0.047808155,-0.03149128,0.0,0.0,0.0
620.57007,553.41394,78336546,0.7875,0.08510638,50.56707,-29.958551,-0.029621527,-0.047808155,-0.03149128,0.0,0.0,0.0
621.595,552.8462,78336563,0.7625,0.08510638,81.698296,-46.55758,-0.029621527,-0.047808155,-0.03149128,0.0,0.0,0.0
622.142,551.8738,78336580,0.7875,0.08510638,68.65328,-63.683266,-0.029621527,-0.047808155,-0.03149128,0.0,0.0,0.0
622.77515,550.9038,78336597,0.77500004,0.08510638,34.065536,-69.61631,-0.029621527,-0.047808155,-0.03149128,0.0,0.0,0.0
622.77515,549.89246,78336613,0.7875,0.08510638,11.290188,-73.36524,-0.029621527,-0.047808155,-0.03149128,0.0,0.0,0.0
623.7778,549.85986,78336630,0.7625,0.08510638,16.039232,-42.771976,-0.029621527,-0.047808155,-0.03149128,0.0,0.0,0.0
624.8169,548.00745,78336647,0.77500004,0.07446808,44.751293,-55.996822,-0.029621527,-0.047808155,-0.03149128,0.0,0.0,0.0
625.85706,547.19434,78336663,0.7875,0.07446808,71.56699,-71.38339,-0.029621527,-0.047808155,-0.03149128,0.0,0.0,0.0
626.8961,546.0885,78336680,0.77500004,0.07446808,83.01782,-69.41822,-0.029621527,-0.047808155,-0.03149128,0.0,0.0,0.0
627.92267,544.2637,78336697,0.77500004,0.07446808,73.482086,-93.44976,-0.029621527,-0.047808155,-0.03149128,0.0,0.0,0.0
628.9702,543.6404,78336713,0.7625,0.07446808,62.074684,-85.45615,-0.029621527,-0.047808155,-0.03149128,0.0,0.0,0.0
629.273,542.75183,78336730,0.7875,0.07446808,44.531773,-62.366978,-0.029621527,-0.047808155,-0.03149128,0.0,0.0,0.0
630.04767,541.37476,78336747,0.77500004,0.07446808,25.61292,-55.494267,-0.029621527,-0.047808155,-0.03149128,0.0,0.0,0.0
630.7639,539.6498,78336764,0.7625,0.07446808,22.253082,-69.36218,0.008302778,-0.014246553,-0.025193214,0.0,0.0,0.0
631.7722,538.57605,78336780,0.77500004,0.07446808,49.059864,-98.435585,0.008302778,-0.014246553,-0.025193214,0.0,0.0,0.0
631.7722,536.7395,78336797,0.7625,0.07446808,40.767414,-111.149605,0.008302778,-0.014246553,-0.025193214,0.0,0.0,0.0
632.6965,534.8894,78336814,0.7625,0.07446808,30.148117,-106.87391,0.008302778,-0.014246553,-0.025193214,0.0,0.0,0.0
633.2717,533.8668,78336830,0.7375,0.07446808,27.56404,-97.789314,0.008302778,-0.014246553,-0.025193214,0.0,0.0,0.0
633.2717,533.8668,78336847,0.7625,0.07446808,16.98089,-41.604603,0.008302778,-0.014246553,-0.025193214,0.0,0.0,0.0
633.2717,533.8668,78336864,0.7625,0.07446808,6.464589,16.644884,0.008302778,-0.014246553,-0.025193214,0.0,0.0,0.0
633.2717,533.8668,78336881,0.7625,0.07446808,-14.893267,48.387905,0.008302778,-0.014246553,-0.025193214,0.0,0.0,0.0
633.2717,533.8668,78336897,0.7875,0.08510638,-20.424791,36.239346,0.008302778,-0.014246553,-0.025193214,0.0,0.0,0.0
633.2717,533.8668,78336914,0.77500004,0.08510638,-5.150096,9.174079,0.008302778,-0.014246553,-0.025193214,0.0,0.0,0.0
634.27136,533.4956,78336931,0.7625,0.08510638,28.809626,-5.232043,0.008302778,-0.014246553,-0.025193214,0.0,0.0,0.0
634.27136,532.3103,78336947,0.7625,0.07446808,38.963295,-45.53627,0.008302778,-0.014246553,-0.025193214,0.0,0.0,0.0
634.27136,532.08984,78336964,0.77500004,0.08510638,21.491327,-63.384293,0.008302778,-0.014246553,-0.025193214,0.0,0.0,0.0
634.6868,532.08984,78336981,0.7625,0.07446808,6.0701175,-40.183628,0.008302778,-0.014246553,-0.025193214,0.0,0.0,0.0
634.77124,530.7571,78336996,0.7625,0.08510638,2.158621,-38.274254,0.008302778,-0.014246553,-0.025193214,0.0,0.0,0.0
634.77124,530.50464,78337014,0.7625,0.07446808,6.3652353,-19.700193,0.008302778,-0.014246553,-0.025193214,0.0,0.0,0.0
635.2083,529.53577,78337031,0.77500004,0.07446808,9.151241,-50.189182,0.008302778,-0.014246553,-0.025193214,0.0,0.0,0.0
635.75635,527.6732,78337048,0.7375,0.09574468,21.330553,-97.30095,0.008302778,-0.014246553,-0.025193214,0.0,0.0,0.0
636.29596,526.714,78337064,0.75,0.09574468,38.49548,-98.17973,0.008302778,-0.014246553,-0.025193214,0.0,0.0,0.0
636.77057,524.8623,78337081,0.75,0.09574468,49.60008,-110.98256,0.008302778,-0.014246553,-0.025193214,0.0,0.0,0.0
637.881,523.0078,78337098,0.7625,0.09574468,54.06566,-113.30983,0.008302778,-0.014246553,-0.025193214,0.0,0.0,0.0
638.925,521.152,78337115,0.75,0.11702127,63.94803,-121.16389,0.008302778,-0.014246553,-0.025193214,0.0,0.0,0.0
639.96747,519.29895,78337131,0.7625,0.11702127,73.342995,-124.74195,0.008302778,-0.014246553,-0.025193214,0.0,0.0,0.0
640.98834,517.4844,78337148,0.7625,0.12765957,71.71177,-110.917564,0.008302778,-0.014246553,-0.025193214,0.0,0.0,0.0
642.014,515.66125,78337165,0.75,0.12765957,67.37757,-110.81655,0.008302778,-0.014246553,-0.025193214,0.0,0.0,0.0
643.85016,513.80273,78337181,0.725,0.12765957,82.05189,-110.78398,0.008302778,-0.014246553,-0.025193214,0.0,0.0,0.0
645.10364,511.94604,78337198,0.75,0.12765957,99.90211,-110.206406,0.008302778,-0.014246553,-0.025193214,0.0,0.0,0.0
646.0909,510.19104,78337215,0.75,0.12765957,85.026794,-104.980576,0.008302778,-0.014246553,-0.025193214,0.0,0.0,0.0
647.66956,507.38477,78337232,0.75,0.10638297,79.15247,-133.89326,0.008302778,-0.014246553,-0.025193214,0.0,0.0,0.0
649.2142,503.84363,78337248,0.7625,0.08510638,81.738556,-184.94408,0.008302778,-0.014246553,-0.025193214,0.0,0.0,0.0
651.2595,500.115,78337265,0.7375,0.08510638,104.67742,-244.41245,0.008302778,-0.014246553,-0.025193214,0.0,0.0,0.0
653.34045,496.4159,78337282,0.725,0.07446808,137.26561,-266.8108,0.008302778,-0.014246553,-0.025193214,0.0,0.0,0.0
655.4209,491.6903,78337298,0.7375,0.07446808,140.5678,-279.1819,-0.041357785,-0.011397243,-0.020154,0.0,0.0,0.0
657.01416,486.9978,78337315,0.7375,0.07446808,121.58161,-292.17783,-0.041357785,-0.011397243,-0.020154,0.0,0.0,0.0
658.58386,482.36816,78337332,0.725,0.08510638,97.382385,-299.9278,-0.041357785,-0.011397243,-0.020154,0.0,0.0,0.0
660.6255,479.02356,78337348,0.75,0.08510638,97.10417,-276.8577,-0.041357785,-0.011397243,-0.020154,0.0,0.0,0.0
661.9794,475.3429,78337365,0.7625,0.10638297,102.92572,-221.62642,-0.041357785,-0.011397243,-0.020154,0.0,0.0,0.0
663.5633,471.13586,78337382,0.7375,0.10638297,91.43401,-202.83614,-0.041357785,-0.011397243,-0.020154,0.0,0.0,0.0
665.56476,466.15015,78337399,0.7375,0.10638297,100.72067,-255.12112,-0.041357785,-0.011397243,-0.020154,0.0,0.0,0.0
667.4493,460.9508,78337415,0.75,0.09574468,105.039345,-310.5673,-0.041357785,-0.011397243,-0.020154,0.0,0.0,0.0
669.1351,457.01123,78337432,0.7375,0.09574468,120.35781,-311.8292,-0.041357785,-0.011397243,-0.020154,0.0,0.0,0.0
671.1737,451.54053,78337449,0.75,0.08510638,124.06253,-305.28677,-0.041357785,-0.011397243,-0.020154,0.0,0.0,0.0
672.22186,447.8142,78337465,0.75,0.08510638,89.80902,-265.17917,-0.041357785,-0.011397243,-0.020154,0.0,0.0,0.0
672.75885,445.89453,78337482,0.7375,0.06382979,50.093117,-174.57909,-0.041357785,-0.011397243,-0.020154,0.0,0.0,0.0
673.3064,444.0431,78337499,0.7625,0.08510638,6.813306,-84.268974,-0.041357785,-0.011397243,-0.020154,0.0,0.0,0.0
673.25867,442.1969,78337516,0.77500004,0.08510638,-18.212013,-38.822605,-0.041357785,-0.011397243,-0.020154,0.0,0.0,0.0
673.9446,442.35095,78337549,0.8,0.08510638,-2.3929133,30.092333,-0.041357785,-0.011397243,-0.020154,0.0,0.0,0.0
673.75854,442.35095,78337566,0.7875,0.08510638,2.702423,47.48403,-0.041357785,-0.011397243,-0.020154,0.0,0.0,0.0
673.75854,443.66272,78337582,0.7875,0.09574468,-0.26853156,79.7802,-0.041357785,-0.011397243,-0.020154,0.0,0.0,0.0
674.0351,445.99976,78337599,0.7875,0.09574468,0.8072229,123.97077,-0.041357785,-0.011397243,-0.020154,0.0,0.0,0.0
674.5738,450.81335,78337616,0.77500004,0.12765957,23.478537,277.45828,-0.041357785,-0.011397243,-0.020154,0.0,0.0,0.0
674.7582,458.1493,78337633,0.77500004,0.10638297,29.572603,432.32654,-0.041357785,-0.011397243,-0.020154,0.0,0.0,0.0
673.36993,470.08936,78337649,0.77500004,0.08510638,-22.968052,677.0455,-0.041357785,-0.011397243,-0.020154,0.0,0.0,0.0
671.75916,485.7401,78337666,0.75,0.06382979,-101.30079,963.7374,-0.041357785,-0.011397243,-0.020154,0.0,0.0,0.0
668.87726,503.1372,78337683,0.7625,0.10638297,-170.67406,1195.4574,-0.041357785,-0.011397243,-0.020154,0.0,0.0,0.0
665.71326,520.82263,78337699,0.7625,0.06382979,-230.36746,1289.1283,-0.041357785,-0.011397243,-0.020154,0.0,0.0,0.0
663.09644,538.20544,78337716,0.7625,0.08510638,-223.92807,1255.7012,-0.041357785,-0.011397243,-0.020154,0.0,0.0,0.0
659.9745,550.8854,78337733,0.7625,0.12765957,-212.18607,1006.96405,-0.041357785,-0.011397243,-0.020154,0.0,0.0,0.0
656.84515,564.9243,78337750,0.7625,0.10638297,-200.76,801.335,-0.041357785,-0.011397243,-0.020154,0.0,0.0,0.0
652.479,580.54785,78337766,0.75,0.08510638,-216.57439,725.1371,-0.041357785,-0.011397243,-0.020154,0.0,0.0,0.0
649.12506,596.56494,78337783,0.77500004,0.09574468,-246.73021,858.677,-0.041357785,-0.011397243,-0.020154,0.0,0.0,0.0
646.26776,608.49976,78337800,0.7625,0.12765957,-219.93533,922.00885,-0.041357785,-0.011397243,-0.020154,0.0,0.0,0.0
643.9045,619.05566,78337816,0.77500004,0.11702127,-155.96724,732.7902,-0.041357785,-0.011397243,-0.020154,0.0,0.0,0.0
641.69916,629.3087,78337833,0.77500004,0.09574468,-102.89658,510.8033,-0.001086235,0.038882196,0.095876694,0.0,0.0,0.0
639.1078,641.3507,78337850,0.7625,0.07446808,-105.50793,490.7914,-0.001086235,0.038882196,0.095876694,0.0,0.0,0.0
637.4012,650.8751,78337866,0.7625,0.08510638,-113.97703,589.5582,-0.001086235,0.038882196,0.095876694,0.0,0.0,0.0
635.3753,656.2949,78337883,0.7875,0.08510638,-110.117226,500.8215,-0.001086235,0.038882196,0.095876694,0.0,0.0,0.0
633.79694,660.8777,78337900,0.77500004,0.10638297,-91.682106,283.52448,-0.001086235,0.038882196,0.095876694,0.0,0.0,0.0
632.7458,662.7462,78337917,0.7875,0.12765957,-69.85846,40.88351,-0.001086235,0.038882196,0.095876694,0.0,0.0,0.0
631.2079,665.47986,78337933,0.7625,0.12765957,-67.02636,-19.989426,-0.001086235,0.038882196,0.095876694,0.0,0.0,0.0
630.1741,667.3176,78337950,0.7625,0.12765957,-61.213177,10.735186,-0.001086235,0.038882196,0.095876694,0.0,0.0,0.0
629.12115,668.03076,78337967,0.7625,0.12765957,-52.436405,30.111155,-0.001086235,0.038882196,0.095876694,0.0,0.0,0.0
628.0871,668.03076,78337983,0.7625,0.12765957,-53.48514,-11.255819,-0.001086235,0.038882196,0.095876694,0.0,0.0,0.0
627.7735,668.03076,78338017,0.7625,0.12765957,-7.1187115,-48.345226,-0.001086235,0.038882196,0.095876694,0.0,0.0,0.0
627.7735,666.6245,78338034,0.7625,0.09574468,18.250286,-67.50789,-0.001086235,0.038882196,0.095876694,0.0,0.0,0.0
627.7735,664.1686,78338050,0.7625,0.08510638,22.599638,-128.38605,-0.001086235,0.038882196,0.095876694,0.0,0.0,0.0
627.7735,657.8988,78338067,0.7625,0.07446808,10.289088,-291.30017,-0.001086235,0.038882196,0.095876694,0.0,0.0,0.0
629.0782,647.0303,78338084,0.75,0.07446808,44.02255,-656.66986,-0.001086235,0.038882196,0.095876694,0.0,0.0,0.0
629.72003,636.60754,78338100,0.7375,0.08510638,68.2447,-812.0994,-0.001086235,0.038882196,0.095876694,0.0,0.0,0.0
630.77136,625.39514,78338117,0.75,0.12765957,84.53132,-894.764,-0.001086235,0.038882196,0.095876694,0.0,0.0,0.0
631.8106,612.46606,78338134,0.75,0.07446808,83.18259,-873.53546,-0.001086235,0.038882196,0.095876694,0.0,0.0,0.0
634.57983,592.64014,78338151,0.75,0.07446808,112.06624,-1012.8063,-0.001086235,0.038882196,0.095876694,0.0,0.0,0.0
636.50714,575.5128,78338167,0.75,0.12765957,148.02057,-1188.0659,-0.001086235,0.038882196,0.095876694,0.0,0.0,0.0
639.2903,558.63513,78338184,0.75,0.08510638,185.2789,-1234.5394,-0.001086235,0.038882196,0.095876694,0.0,0.0,0.0
643.53796,538.44434,78338201,0.7375,0.08510638,237.61786,-1258.3435,-0.001086235,0.038882196,0.095876694,0.0,0.0,0.0
649.11615,521.3844,78338217,0.7375,0.12765957,315.1147,-1118.5128,-0.001086235,0.038882196,0.095876694,0.0,0.0,0.0
655.6882,504.71558,78338234,0.7625,0.08510638,411.9969,-1028.2544,-0.001086235,0.038882196,0.095876694,0.0,0.0,0.0
662.7338,489.40454,78338251,0.7375,0.06382979,481.8536,-918.68823,-0.001086235,0.038882196,0.095876694,0.0,0.0,0.0
669.6745,475.3772,78338268,0.7375,0.10638297,481.27795,-784.81683,-0.001086235,0.038882196,0.095876694,0.0,0.0,0.0
677.1968,462.6587,78338284,0.7375,0.10638297,472.63696,-736.285,-0.001086235,0.038882196,0.095876694,0.0,0.0,0.0
684.35583,450.16846,78338301,0.7375,0.07446808,443.30276,-657.20984,-0.001086235,0.038882196,0.095876694,0.0,0.0,0.0
693.0481,437.3308,78338318,0.75,0.08510638,490.0354,-680.1005,-0.001086235,0.038882196,0.095876694,0.0,0.0,0.0
702.33344,427.16333,78338334,0.7375,0.08510638,556.9216,-663.67975,-0.001086235,0.038882196,0.095876694,0.0,0.0,0.0
710.63885,419.78992,78338351,0.7375,0.08510638,573.52325,-532.5647,-0.001086235,0.038882196,0.095876694,0.0,0.0,0.0
721.5328,414.49548,78338368,0.7625,0.09574468,623.1905,-330.3306,-8.689761E-4,0.015105784,0.044701576,0.0,0.0,0.0
730.4137,411.91016,78338385,0.75,0.10638297,603.50916,-102.16922,-8.689761E-4,0.015105784,0.044701576,0.0,0.0,0.0
737.11786,410.01453,78338401,0.75,0.10638297,507.15604,18.718374,-8.689761E-4,0.015105784,0.044701576,0.0,0.0,0.0
740.5551,410.36487,78338418,0.75,0.10638297,318.31046,106.781586,-8.689761E-4,0.015105784,0.044701576,0.0,0.0,0.0
744.45435,410.36487,78338435,0.75,0.11702127,130.01021,120.24591,-8.689761E-4,0.015105784,0.044701576,0.0,0.0,0.0
747.8027,411.7583,78338451,0.7625,0.09574468,97.25939,114.382484,-8.689761E-4,0.015105784,0.044701576,0.0,0.0,0.0
751.2029,414.17896,78338468,0.75,0.09574468,115.899086,157.11337,-8.689761E-4,0.015105784,0.044701576,0.0,0.0,0.0
754.2666,417.5338,78338485,0.75,0.07446808,154.10318,218.69707,-8.689761E-4,0.015105784,0.044701576,0.0,0.0,0.0
758.0199,423.88965,78338501,0.75,0.07446808,174.25462,329.89056,-8.689761E-4,0.015105784,0.044701576,0.0,0.0,0.0
761.07404,431.27295,78338518,0.7625,0.07446808,200.8251,489.47433,-8.689761E-4,0.015105784,0.044701576,0.0,0.0,0.0
763.16693,437.6864,78338535,0.77500004,0.08510638,166.32166,524.43823,-8.689761E-4,0.015105784,0.044701576,0.0,0.0,0.0
764.7558,444.31934,78338552,0.75,0.12765957,102.906136,485.4981,-8.689761E-4,0.015105784,0.044701576,0.0,0.0,0.0
765.7845,450.74524,78338568,0.75,0.12765957,43.729446,425.2044,-8.689761E-4,0.015105784,0.044701576,0.0,0.0,0.0
765.22876,458.13806,78338585,0.75,0.10638297,-30.788033,413.50934,-8.689761E-4,0.015105784,0.044701576,0.0,0.0,0.0
764.58234,464.71704,78338602,0.75,0.08510638,-67.50257,432.10236,-8.689761E-4,0.015105784,0.044701576,0.0,0.0,0.0
764.7289,471.27747,78338618,0.75,0.07446808,-74.545815,409.04337,-8.689761E-4,0.015105784,0.044701576,0.0,0.0,0.0
764.0367,475.90967,78338635,0.75,0.07446808,-61.966312,351.3822,-8.689761E-4,0.015105784,0.044701576,0.0,0.0,0.0
762.2299,481.00024,78338652,0.75,0.07446808,-67.51505,274.76706,-8.689761E-4,0.015105784,0.044701576,0.0,0.0,0.0
760.83234,484.8175,78338669,0.7375,0.08510638,-107.95061,228.58455,-8.689761E-4,0.015105784,0.044701576,0.0,0.0,0.0
758.5734,488.24878,78338685,0.75,0.09574468,-147.87231,180.1431,-8.689761E-4,0.015105784,0.044701576,0.0,0.0,0.0
756.5533,490.0443,78338702,0.77500004,0.09574468,-153.44516,107.16896,-8.689761E-4,0.015105784,0.044701576,0.0,0.0,0.0
753.1851,491.90613,78338719,0.7625,0.08510638,-171.32567,51.935646,-8.689761E-4,0.015105784,0.044701576,0.0,0.0,0.0
748.55896,493.76868,78338735,0.7625,0.08510638,-241.22003,36.851532,-8.689761E-4,0.015105784,0.044701576,0.0,0.0,0.0
743.2939,495.6405,78338752,0.7625,0.08510638,-340.6243,71.07434,-8.689761E-4,0.015105784,0.044701576,0.0,0.0,0.0
737.62427,496.54968,78338769,0.77500004,0.08510638,-400.49167,82.042206,-8.689761E-4,0.015105784,0.044701576,0.0,0.0,0.0
730.22485,497.55273,78338786,0.7875,0.08510638,-448.26746,51.087807,-8.689761E-4,0.015105784,0.044701576,0.0,0.0,0.0
724.00806,497.43823,78338802,0.77500004,0.08510638,-446.17838,4.1860504,-8.689761E-4,0.015105784,0.044701576,0.0,0.0,0.0
717.90753,497.43823,78338819,0.7625,0.08510638,-428.29913,-28.344694,-8.689761E-4,0.015105784,0.044701576,0.0,0.0,0.0
712.84564,497.43823,78338836,0.77500004,0.09574468,-368.7821,-33.030846,-8.689761E-4,0.015105784,0.044701576,0.0,0.0,0.0
708.12476,496.54968,78338852,0.77500004,0.09574468,-277.74005,-42.429424,-8.689761E-4,0.015105784,0.044701576,0.0,0.0,0.0
704.9754,496.54968,78338869,0.77500004,0.09574468,-192.8591,-43.37871,-8.689761E-4,0.015105784,0.044701576,0.0,0.0,0.0
702.1491,496.54968,78338886,0.7625,0.09574468,-128.10135,-20.453844,-8.689761E-4,0.015105784,0.044701576,0.0,0.0,0.0
700.4451,496.54968,78338903,0.75,0.09574468,-78.65322,1.7063284,-6.95169E-4,0.012084633,0.075761795,0.0,0.0,0.0
699.75006,496.54968,78338914,0.4875,0.11702127,-40.147224,9.869206,-6.95169E-4,0.012084633,0.075761795,0.0,0.0,0.0
699.75006,496.54968,78338920,0.4875,0.11702127,-40.147224,9.869206,-6.95169E-4,0.012084633,0.075761795,0.0,0.0,0.0
814.21277,427.24646,78339497,0.7,0.08510638,0.0,0.0,-5.5614114E-4,-0.046332315,-0.05939102,0.0,0.0,0.0
814.21277,427.24646,78339521,0.71250004,0.08510638,-0.0052846167,-0.004406785,-5.5614114E-4,-0.046332315,-0.05939102,0.0,0.0,0.0
814.21277,427.24646,78339553,0.7,0.08510638,-0.0142763965,-0.008053903,-5.5614114E-4,-0.046332315,-0.05939102,0.0,0.0,0.0
814.21277,427.24646,78339588,0.7,0.09574468,0.007252905,0.0041303565,-5.5614114E-4,-0.046332315,-0.05939102,0.0,0.0,0.0
808.0822,450.81885,78339604,0.6875,0.12765957,-258.70248,1001.3672,-5.5614114E-4,-0.046332315,-0.05939102,0.0,0.0,0.0
805.29236,460.60083,78339621,0.71250004,0.09574468,-342.79785,1250.5596,-5.5614114E-4,-0.046332315,-0.05939102,0.0,0.0,0.0
803.2019,474.8971,78339638,0.71250004,0.07446808,-255.97592,1129.2224,-5.5614114E-4,-0.046332315,-0.05939102,0.0,0.0,0.0
801.12506,489.5697,78339654,0.71250004,0.08510638,-67.31989,769.8903,-5.5614114E-4,-0.046332315,-0.05939102,0.0,0.0,0.0
799.05115,500.99182,78339671,0.71250004,0.12765957,-61.552822,738.52014,-5.5614114E-4,-0.046332315,-0.05939102,0.0,0.0,0.0
796.97406,513.39124,78339688,0.71250004,0.10638297,-99.21971,784.9775,-5.5614114E-4,-0.046332315,-0.05939102,0.0,0.0,0.0
794.4012,531.3616,78339705,0.725,0.07446808,-131.71254,827.92236,-5.5614114E-4,-0.046332315,-0.05939102,0.0,0.0,0.0
792.82556,546.442,78339721,0.7375,0.08510638,-128.04181,955.8174,-5.5614114E-4,-0.046332315,-0.05939102,0.0,0.0,0.0
791.239,559.51685,78339738,0.725,0.10638297,-102.36521,1008.4932,-5.5614114E-4,-0.046332315,-0.05939102,0.0,0.0,0.0
787.62396,576.204,78339755,0.725,0.06382979,-142.8174,951.54144,-5.5614114E-4,-0.046332315,-0.05939102,0.0,0.0,0.0
785.5018,592.6636,78339771,0.75,0.06382979,-158.73586,939.6693,-5.5614114E-4,-0.046332315,-0.05939102,0.0,0.0,0.0
782.39215,605.235,78339788,0.7375,0.09574468,-190.7928,891.6319,-5.5614114E-4,-0.046332315,-0.05939102,0.0,0.0,0.0
779.04126,618.62134,78339805,0.75,0.09574468,-204.74783,825.8777,-5.5614114E-4,-0.046332315,-0.05939102,0.0,0.0,0.0
777.3086,630.6366,78339822,0.7375,0.06382979,-168.49586,690.3301,-5.5614114E-4,-0.046332315,-0.05939102,0.0,0.0,0.0
775.5013,639.4147,78339838,0.7375,0.06382979,-131.22743,542.17865,-5.5614114E-4,-0.046332315,-0.05939102,0.0,0.0,0.0
774.46155,645.44946,78339855,0.7,0.06382979,-61.230152,428.85394,-5.5614114E-4,-0.046332315,-0.05939102,0.0,0.0,0.0
773.72595,648.48376,78339867,0.3625,0.07446808,-37.12673,300.82068,-5.5614114E-4,-0.046332315,-0.05939102,0.0,0.0,0.0
773.72595,648.48376,78339874,0.3625,0.07446808,-37.12673,300.82068,-5.5614114E-4,-0.046332315,-0.05939102,0.0,0.0,0.0
778.2245,469.0061,78340190,0.6375,0.07446808,0.0,0.0,-0.016444907,0.0029341578,4.8732758E-4,0.0,0.0,0.0
778.2245,469.0061,78340206,0.6875,0.09574468,-31.200726,-18.716267,-0.016444907,0.0029341578,4.8732758E-4,0.0,0.0,0.0
778.2245,469.0061,78340223,0.7375,0.10638297,-0.006553545,-4.0036737E-4,-0.016444907,0.0029341578,4.8732758E-4,0.0,0.0,0.0
778.2245,469.0061,78340247,0.725,0.10638297,-0.0148205105,-0.008382664,-0.016444907,0.0029341578,4.8732758E-4,0.0,0.0,0.0
778.2245,469.0061,78340273,0.7375,0.09574468,0.02109952,0.0152054345,-0.016444907,0.0029341578,4.8732758E-4,0.0,0.0,0.0
778.2245,469.0061,78340289,0.725,0.08510638,0.07192494,0.042463183,-0.016444907,0.0029341578,4.8732758E-4,0.0,0.0,0.0
786.6957,454.38635,78340306,0.725,0.07446808,264.87244,-462.1376,-0.016444907,0.0029341578,4.8732758E-4,0.0,0.0,0.0
793.9512,443.34058,78340323,0.7375,0.08510638,632.45276,-1036.5801,-0.016444907,0.0029341578,4.8732758E-4,0.0,0.0,0.0
800.1913,435.57007,78340340,0.7375,0.08510638,640.6892,-968.3875,-0.016444907,0.0029341578,4.8732758E-4,0.0,0.0,0.0
807.10944,428.8717,78340356,0.7375,0.08510638,568.98254,-710.0184,-0.016444907,0.0029341578,4.8732758E-4,0.0,0.0,0.0
815.81555,424.0907,78340373,0.7375,0.08510638,461.38126,-267.86346,-0.016444907,0.0029341578,4.8732758E-4,0.0,0.0,0.0
823.80585,420.3435,78340390,0.75,0.08510638,466.07245,-52.419968,-0.016444907,0.0029341578,4.8732758E-4,0.0,0.0,0.0
832.5832,418.3888,78340406,0.7375,0.08510638,562.72894,-69.66017,-0.016444907,0.0029341578,4.8732758E-4,0.0,0.0,0.0
840.9,416.5409,78340423,0.7375,0.08510638,549.1511,-27.774055,-0.016444907,0.0029341578,4.8732758E-4,0.0,0.0,0.0
847.59033,416.58435,78340440,0.7375,0.08510638,467.81564,28.577717,-0.016444907,0.0029341578,4.8732758E-4,0.0,0.0,0.0
853.2348,416.58435,78340457,0.75,0.09574468,367.76385,63.019897,-0.016444907,0.0029341578,4.8732758E-4,0.0,0.0,0.0
858.678,418.6515,78340473,0.7375,0.09574468,279.86584,123.01944,-0.016444907,0.0029341578,4.8732758E-4,0.0,0.0,0.0
865.04364,422.7135,78340490,0.7375,0.07446808,267.8007,224.13814,0.0028440654,0.034347326,0.048389435,0.0,0.0,0.0
869.78894,428.4131,78340507,0.725,0.07446808,308.1749,365.5346,0.0028440654,0.034347326,0.048389435,0.0,0.0,0.0
873.96265,433.94446,78340523,0.7375,0.08510638,295.55582,450.98175,0.0028440654,0.034347326,0.048389435,0.0,0.0,0.0
877.0841,439.49316,78340540,0.7375,0.09574468,207.90681,440.29868,0.0028440654,0.034347326,0.048389435,0.0,0.0,0.0
882.0107,451.20044,78340557,0.725,0.10638297,171.03055,543.51654,0.0028440654,0.034347326,0.048389435,0.0,0.0,0.0
883.6902,460.12195,78340574,0.725,0.09574468,160.99875,671.51294,0.0028440654,0.034347326,0.048389435,0.0,0.0,0.0
883.6902,469.86792,78340590,0.7375,0.06382979,57.994053,702.5519,0.0028440654,0.034347326,0.048389435,0.0,0.0,0.0
880.37384,480.15112,78340607,0.725,0.07446808,-131.59546,691.9167,0.0028440654,0.034347326,0.048389435,0.0,0.0,0.0
876.20654,488.52832,78340624,0.725,0.08510638,-347.86243,584.1426,0.0028440654,0.034347326,0.048389435,0.0,0.0,0.0
872.5853,494.0127,78340640,0.75,0.11702127,-397.64282,415.72427,0.0028440654,0.034347326,0.048389435,0.0,0.0,0.0
866.1628,499.62122,78340657,0.7375,0.12765957,-403.65857,298.84427,0.0028440654,0.034347326,0.048389435,0.0,0.0,0.0
856.6574,505.45923,78340674,0.7375,0.12765957,-495.60544,201.99426,0.0028440654,0.034347326,0.048389435,0.0,0.0,0.0
842.7464,512.3994,78340691,0.75,0.09574468,-745.5201,280.15906,0.0028440654,0.034347326,0.048389435,0.0,0.0,0.0
827.3288,517.07263,78340707,0.7375,0.10638297,-1043.8413,343.5915,0.0028440654,0.034347326,0.048389435,0.0,0.0,0.0
814.6994,521.3513,78340724,0.75,0.09574468,-1099.7338,319.06494,0.0028440654,0.034347326,0.048389435,0.0,0.0,0.0
802.978,524.5729,78340741,0.75,0.08510638,-887.4279,201.1296,0.0028440654,0.034347326,0.048389435,0.0,0.0,0.0
792.24634,526.3987,78340757,0.7375,0.08510638,-619.9954,67.30444,0.0028440654,0.034347326,0.048389435,0.0,0.0,0.0
782.15936,527.64734,78340774,0.6875,0.06382979,-531.1682,26.59364,0.0028440654,0.034347326,0.048389435,0.0,0.0,0.0
771.2268,526.7588,78340786,0.22500001,0.11702127,-570.58344,-22.344273,0.0028440654,0.034347326,0.048389435,0.0,0.0,0.0
771.2268,526.7588,78340792,0.22500001,0.11702127,-570.58344,-22.344273,0.0028440654,0.034347326,0.048389435,0.0,0.0,0.0
534.3039,429.02344,78341368,0.6875,0.08510638,0.0,0.0,-0.013724744,0.011477888,0.022711754,0.0,0.0,0.0
534.3039,429.02344,78341392,0.7,0.08510638,-0.009869666,-0.013401139,-0.013724744,0.011477888,0.022711754,0.0,0.0,0.0
534.3039,429.02344,78341409,0.7375,0.08510638,0.027161865,0.021533782,-0.013724744,0.011477888,0.022711754,0.0,0.0,0.0
534.3039,429.02344,78341426,0.71250004,0.08510638,-0.029107831,-0.025696304,-0.013724744,0.011477888,0.022711754,0.0,0.0,0.0
534.3039,429.02344,78341442,0.71250004,0.08510638,0.012717025,0.01058352,-0.013724744,0.011477888,0.022711754,0.0,0.0,0.0
534.3039,429.02344,78341459,0.7,0.07446808,0.02901646,0.021750018,-0.013724744,0.011477888,0.022711754,0.0,0.0,0.0
534.3039,429.02344,78341476,0.6875,0.06382979,0.020409957,0.016622927,-0.013724744,0.011477888,0.022711754,0.0,0.0,0.0
551.98553,427.24646,78341493,0.71250004,0.06382979,476.4047,-51.272896,-0.013724744,0.011477888,0.022711754,0.0,0.0,0.0
562.1325,426.3579,78341509,0.71250004,0.06382979,971.0255,-94.10981,-0.013724744,0.011477888,0.022711754,0.0,0.0,0.0
569.1136,426.3579,78341526,0.71250004,0.07446808,980.9896,-72.96513,-0.013724744,0.011477888,0.022711754,0.0,0.0,0.0
576.186,428.46277,78341543,0.71250004,0.08510638,662.22925,29.60399,-0.013724744,0.011477888,0.022711754,0.0,0.0,0.0
582.17755,430.58337,78341559,0.7,0.08510638,148.67557,193.12045,0.021020204,-0.022817701,0.05016899,0.0,0.0,0.0
587.88165,433.17822,78341576,0.6625,0.07446808,144.06384,229.85686,0.021020204,-0.022817701,0.05016899,0.0,0.0,0.0
591.20374,436.05884,78341593,0.5625,0.08510638,240.31921,239.46033,0.021020204,-0.022817701,0.05016899,0.0,0.0,0.0
591.7852,437.0199,78341601,0.32500002,0.12765957,180.96297,216.16827,0.021020204,-0.022817701,0.05016899,0.0,0.0,0.0
591.7852,437.0199,78341609,0.32500002,0.12765957,180.96297,216.16827,0.021020204,-0.022817701,0.05016899,0.0,0.0,0.0
