x,y,timestamp,pressure,fingerarea,velocityx,velocityy,accelx,accely,accelz,gyrox,gyroy,gyroz
472.8239,119.82434,130186208,0.85,0.09574468,0.0,0.0,-0.008066401,-0.0021534562,-0.013780594,0.0,0.0,0.0
472.8239,119.82434,130186232,0.825,0.11702127,0.005465633,3.5673718E-4,-0.008066401,-0.0021534562,-0.013780594,0.0,0.0,0.0
474.04535,140.45007,130186248,0.8125,0.09574468,89.16287,1505.4973,-0.008066401,-0.0021534562,-0.013780594,0.0,0.0,0.0
473.58502,168.9143,130186265,0.8,0.11702127,31.087158,2352.772,-0.008066401,-0.0021534562,-0.013780594,0.0,0.0,0.0
470.8687,220.35999,130186282,0.77500004,0.07446808,-98.72525,3452.2036,-0.008066401,-0.0021534562,-0.013780594,0.0,0.0,0.0
464.8797,290.3285,130186299,0.75,0.08510638,-283.66006,4587.435,-0.008066401,-0.0021534562,-0.013780594,0.0,0.0,0.0
458.05646,369.20422,130186315,0.75,0.09574468,-486.60892,5619.2695,-0.008066401,-0.0021534562,-0.013780594,0.0,0.0,0.0
450.232,453.00476,130186332,0.75,0.06382979,-614.084,5935.5127,-0.008066401,-0.0021534562,-0.013780594,0.0,0.0,0.0
445.14233,513.1111,130186349,0.7375,0.10638297,-517.4462,5172.496,-0.008066401,-0.0021534562,-0.013780594,0.0,0.0,0.0
440.7115,552.94727,130186365,0.725,0.08510638,-347.1762,3443.3518,-0.008066401,-0.0021534562,-0.013780594,0.0,0.0,0.0
439.42316,572.59375,130186382,0.71250004,0.08510638,-135.10527,1312.8246,-0.008066401,-0.0021534562,-0.013780594,0.0,0.0,0.0
438.87555,578.21985,130186399,0.6875,0.06382979,37.105537,-369.72797,-0.008066401,-0.0021534562,-0.013780594,0.0,0.0,0.0
438.3327,575.6133,130186416,0.3,0.12765957,82.662186,-1175.8525,-0.008066401,-0.0021534562,-0.013780594,0.0,0.0,0.0
438.3327,575.6133,130186423,0.3,0.12765957,82.662186,-1175.8525,-0.008066401,-0.0021534562,-0.013780594,0.0,0.0,0.0
465.32635,121.60132,130186673,0.85,0.08510638,0.0,0.0,-0.0064531267,0.01427722,0.03697586,0.0,0.0,0.0
465.32635,121.60132,130186697,0.8625,0.08510638,-0.0099658575,-0.0023663002,-0.0064531267,0.01427722,0.03697586,0.0,0.0,0.0
465.32635,121.60132,130186716,0.83750004,0.09574468,0.00490663,0.0014366701,-0.0064531267,0.01427722,0.03697586,0.0,0.0,0.0
474.6244,120.224,130186733,0.83750004,0.09574468,348.7629,-51.671658,-0.0064531267,0.01427722,0.03697586,0.0,0.0,0.0
501.8272,118.93579,130186750,0.7875,0.08510638,1514.2509,-124.22868,-0.0064531267,0.01427722,0.03697586,0.0,0.0,0.0
528.32306,123.128784,130186766,0.7625,0.11702127,2022.214,18.571377,-0.0064531267,0.01427722,0.03697586,0.0,0.0,0.0
555.43506,134.33398,130186783,0.75,0.10638297,2354.79,415.23486,-0.0064531267,0.01427722,0.03697586,0.0,0.0,0.0
577.5961,154.33765,130186800,0.75,0.07446808,1869.9132,1122.9978,-0.0064531267,0.01427722,0.03697586,0.0,0.0,0.0
597.80536,197.34412,130186817,0.71250004,0.12765957,1400.7356,2156.6147,-0.0064531267,0.01427722,0.03697586,0.0,0.0,0.0
596.7574,232.85986,130186833,0.7375,0.12765957,510.67532,2865.47,-0.0064531267,0.01427722,0.03697586,0.0,0.0,0.0
585.30414,258.3152,130186850,0.7375,0.07446808,-623.7223,2708.4272,-0.0064531267,0.01427722,0.03697586,0.0,0.0,0.0
555.987,288.62695,130186867,0.7625,0.12765957,-1834.5767,2116.7847,-0.0064531267,0.01427722,0.03697586,0.0,0.0,0.0
519.528,307.16907,130186883,0.77500004,0.08510638,-2793.1885,1290.1443,-0.0064531267,0.01427722,0.03697586,0.0,0.0,0.0
481.8152,319.17798,130186900,0.8125,0.08510638,-3130.397,662.64386,-0.0064531267,0.01427722,0.03697586,0.0,0.0,0.0
454.78302,325.83313,130186917,0.8125,0.06382979,-2756.3064,273.1445,-0.0064531267,0.01427722,0.03697586,0.0,0.0,0.0
439.50107,330.35034,130186934,0.7875,0.09574468,-1621.65,-51.9723,-0.0064531267,0.01427722,0.03697586,0.0,0.0,0.0
433.3368,332.1765,130186947,0.35,0.11702127,-934.68976,-230.82956,-0.0064531267,0.01427722,0.03697586,0.0,0.0,0.0
433.3368,332.1765,130186953,0.35,0.11702127,-934.68976,-230.82956,-0.0064531267,0.01427722,0.03697586,0.0,0.0,0.0
456.32928,548.9713,130187437,0.71250004,0.053191487,0.0,0.0,-0.0051625073,0.01142177,-0.03441906,0.0,0.0,0.0
456.32928,548.9713,130187465,0.8875,0.08510638,0.020032274,0.024443239,-0.0051625073,0.01142177,-0.03441906,0.0,0.0,0.0
456.32928,548.9713,130187501,0.875,0.08510638,0.02477703,0.028053958,-0.0051625073,0.01142177,-0.03441906,0.0,0.0,0.0
456.32928,548.9713,130187518,0.90000004,0.08510638,-0.008606067,-0.012737373,-0.0051625073,0.01142177,-0.03441906,0.0,0.0,0.0
456.32928,548.9713,130187535,0.8875,0.08510638,-0.022038978,-0.025528131,-0.0051625073,0.01142177,-0.03441906,0.0,0.0,0.0
456.32928,548.9713,130187552,0.83750004,0.06382979,0.013853867,0.0147389155,-0.0051625073,0.01142177,-0.03441906,0.0,0.0,0.0
461.06866,543.35486,130187568,0.825,0.08510638,130.63895,-154.81236,-0.0051625073,0.01142177,-0.03441906,0.0,0.0,0.0
483.04034,517.33386,130187585,0.7875,0.12765957,943.8525,-1113.84,-0.004130006,-0.03086257,-0.027535439,0.0,0.0,0.0
509.91724,486.49036,130187602,0.7875,0.06382979,1682.061,-1962.5946,-0.004130006,-0.03086257,-0.027535439,0.0,0.0,0.0
545.485,444.56348,130187619,0.7875,0.08510638,2497.8545,-2918.535,-0.004130006,-0.03086257,-0.027535439,0.0,0.0,0.0
588.1061,396.7881,130187635,0.77500004,0.12765957,2948.0935,-3410.3647,-0.004130006,-0.03086257,-0.027535439,0.0,0.0,0.0
628.20215,361.2671,130187652,0.7625,0.08510638,2999.5146,-3147.362,-0.004130006,-0.03086257,-0.027535439,0.0,0.0,0.0
662.43134,338.7627,130187669,0.7625,0.08510638,2703.518,-2258.4072,-0.004130006,-0.03086257,-0.027535439,0.0,0.0,0.0
690.69495,330.52344,130187685,0.725,0.08510638,2061.9082,-864.5262,-0.004130006,-0.03086257,-0.027535439,0.0,0.0,0.0
708.54047,329.5111,130187702,0.77500004,0.06382979,1168.5613,358.09384,-0.004130006,-0.03086257,-0.027535439,0.0,0.0,0.0
716.01434,330.47937,130187719,0.7625,0.08510638,435.38025,810.3158,-0.004130006,-0.03086257,-0.027535439,0.0,0.0,0.0
718.3507,332.3662,130187736,0.8,0.09574468,-136.48975,739.25226,-0.004130006,-0.03086257,-0.027535439,0.0,0.0,0.0
716.93665,335.1156,130187752,0.7625,0.12765957,-519.0486,517.0248,-0.004130006,-0.03086257,-0.027535439,0.0,0.0,0.0
695.2664,346.7052,130187769,0.7875,0.12765957,-1046.375,517.2655,-0.004130006,-0.03086257,-0.027535439,0.0,0.0,0.0
659.88824,352.464,130187786,0.7875,0.12765957,-2040.2687,627.5572,-0.004130006,-0.03086257,-0.027535439,0.0,0.0,0.0
622.915,356.20886,130187802,0.7875,0.10638297,-3004.0374,533.2604,-0.004130006,-0.03086257,-0.027535439,0.0,0.0,0.0
592.7711,364.1388,130187819,0.8,0.09574468,-2955.0894,387.1192,-0.004130006,-0.03086257,-0.027535439,0.0,0.0,0.0
563.9151,382.58545,130187836,0.825,0.08510638,-2253.618,627.8809,-0.004130006,-0.03086257,-0.027535439,0.0,0.0,0.0
539.6203,410.97888,130187853,0.825,0.11702127,-1443.1156,1378.3252,-0.004130006,-0.03086257,-0.027535439,0.0,0.0,0.0
512.38605,462.1338,130187869,0.8625,0.10638297,-1214.7936,2548.7786,-0.004130006,-0.03086257,-0.027535439,0.0,0.0,0.0
502.63403,496.50818,130187886,0.85,0.08510638,-983.9805,3275.194,-0.004130006,-0.03086257,-0.027535439,0.0,0.0,0.0
502.82294,524.2024,130187903,0.8125,0.06382979,-213.37083,2767.0894,-0.004130006,-0.03086257,-0.027535439,0.0,0.0,0.0
509.68182,539.02454,130187919,0.825,0.08510638,579.3748,1740.2345,-0.004130006,-0.03086257,-0.027535439,0.0,0.0,0.0
527.9643,553.7041,130187936,0.8125,0.12765957,1376.082,516.14,-0.004130006,-0.03086257,-0.027535439,0.0,0.0,0.0
561.2428,558.9512,130187953,0.825,0.10638297,2149.065,-87.40841,-0.004130006,-0.03086257,-0.027535439,0.0,0.0,0.0
603.2805,542.87244,130187970,0.7875,0.06382979,2712.9978,-584.90204,-0.004130006,-0.03086257,-0.027535439,0.0,0.0,0.0
636.4187,509.75854,130187986,0.75,0.11702127,3028.967,-1776.0022,-0.004130006,-0.03086257,-0.027535439,0.0,0.0,0.0
666.1543,466.99988,130188003,0.7375,0.10638297,2592.0557,-3185.6907,-0.004130006,-0.03086257,-0.027535439,0.0,0.0,0.0
698.6246,402.47437,130188020,0.725,0.12765957,2168.1924,-4325.4917,-0.004130006,-0.03086257,-0.027535439,0.0,0.0,0.0
710.0915,358.87756,130188036,0.725,0.10638297,1160.1398,-4253.2007,-0.004130006,-0.03086257,-0.027535439,0.0,0.0,0.0
715.6322,335.60547,130188053,0.7375,0.06382979,233.2819,-2814.999,-0.004130006,-0.03086257,-0.027535439,0.0,0.0,0.0
716.7445,329.2838,130188070,0.7625,0.06382979,-401.0718,-849.31635,-0.004130006,-0.03086257,-0.027535439,0.0,0.0,0.0
716.3743,329.28064,130188086,0.8,0.06382979,-630.4196,752.14557,-0.004130006,-0.03086257,-0.027535439,0.0,0.0,0.0
707.2174,354.0255,130188103,0.7875,0.12765957,-684.813,1766.3633,-0.004130006,-0.03086257,-0.027535439,0.0,0.0,0.0
693.43066,400.75732,130188120,0.7875,0.10638297,-912.0284,2990.7246,-0.0033040047,0.031309932,-0.0860281,0.0,0.0,0.0
682.6245,445.09253,130188137,0.7875,0.10638297,-1068.8248,3760.1934,-0.0033040047,0.031309932,-0.0860281,0.0,0.0,0.0
677.9199,481.48694,130188153,0.77500004,0.06382979,-850.8094,3714.4238,-0.0033040047,0.031309932,-0.0860281,0.0,0.0,0.0
680.03796,499.43884,130188170,0.7875,0.10638297,-205.04872,2404.1775,-0.0033040047,0.031309932,-0.0860281,0.0,0.0,0.0
684.4085,506.20886,130188187,0.8,0.12765957,401.305,693.1284,-0.0033040047,0.031309932,-0.0860281,0.0,0.0,0.0
694.5821,510.76575,130188203,0.7875,0.12765957,754.8845,-345.51596,-0.0033040047,0.031309932,-0.0860281,0.0,0.0,0.0
713.57965,505.84338,130188220,0.75,0.10638297,1126.0087,-791.0583,-0.0033040047,0.031309932,-0.0860281,0.0,0.0,0.0
735.48303,490.48352,130188237,0.75,0.07446808,1529.6307,-1073.3889,-0.0033040047,0.031309932,-0.0860281,0.0,0.0,0.0
756.96936,468.72412,130188254,0.725,0.10638297,1750.0171,-1530.2893,-0.0033040047,0.031309932,-0.0860281,0.0,0.0,0.0
774.7339,441.05444,130188270,0.7375,0.06382979,1543.017,-2029.2056,-0.0033040047,0.031309932,-0.0860281,0.0,0.0,0.0
798.4334,392.97217,130188287,0.725,0.10638297,1356.7201,-2803.547,-0.0033040047,0.031309932,-0.0860281,0.0,0.0,0.0
811.3146,360.72522,130188304,0.7375,0.09574468,1061.6237,-2959.0938,-0.0033040047,0.031309932,-0.0860281,0.0,0.0,0.0
822.3033,336.43713,130188320,0.7375,0.06382979,701.05853,-2294.2278,-0.0033040047,0.031309932,-0.0860281,0.0,0.0,0.0
826.4886,328.12537,130188337,0.7625,0.06382979,274.75388,-1102.3406,-0.0033040047,0.031309932,-0.0860281,0.0,0.0,0.0
828.8005,322.963,130188354,0.7625,0.06382979,-80.44951,40.8766,-0.0033040047,0.031309932,-0.0860281,0.0,0.0,0.0
829.8594,320.35645,130188371,0.7875,0.06382979,-208.34058,516.18335,-0.0033040047,0.031309932,-0.0860281,0.0,0.0,0.0
829.70776,319.29333,130188382,0.77500004,0.06382979,-209.38283,494.07483,-0.0033040047,0.031309932,-0.0860281,0.0,0.0,0.0
829.0002,320.1068,130188404,0.7625,0.06382979,-185.05952,315.89438,-0.0033040047,0.031309932,-0.0860281,0.0,0.0,0.0
827.9595,321.9568,130188421,0.77500004,0.06382979,-137.11612,226.23436,-0.0033040047,0.031309932,-0.0860281,0.0,0.0,0.0
826.9431,323.76343,130188437,0.7875,0.06382979,-104.48832,209.42485,-0.0033040047,0.031309932,-0.0860281,0.0,0.0,0.0
825.91656,324.18005,130188454,0.8,0.08510638,-87.9368,143.79109,-0.0033040047,0.031309932,-0.0860281,0.0,0.0,0.0
825.70905,324.18005,130188471,0.8125,0.06382979,-57.50384,50.170204,-0.0033040047,0.031309932,-0.0860281,0.0,0.0,0.0
825.70905,323.37073,130188488,0.8,0.06382979,-0.47451353,-68.815674,-0.0033040047,0.031309932,-0.0860281,0.0,0.0,0.0
825.70905,321.625,130188504,0.8,0.06382979,22.843552,-123.20003,-0.0033040047,0.031309932,-0.0860281,0.0,0.0,0.0
826.17615,318.96533,130188521,0.7625,0.06382979,36.755074,-170.31429,-0.0033040047,0.031309932,-0.0860281,0.0,0.0,0.0
827.2442,313.32788,130188538,0.7875,0.09574468,59.94664,-291.96716,-0.0033040047,0.031309932,-0.0860281,0.0,0.0,0.0
827.20856,311.61365,130188554,0.7875,0.09574468,48.49798,-295.8069,-0.0033040047,0.031309932,-0.0860281,0.0,0.0,0.0
827.20856,310.85254,130188571,0.8,0.08510638,24.244808,-181.16902,-0.0033040047,0.031309932,-0.0860281,0.0,0.0,0.0
826.5558,316.3827,130188588,0.77500004,0.06382979,-19.73763,116.68605,-0.0033040047,0.031309932,-0.0860281,0.0,0.0,0.0
819.8709,342.06213,130188605,0.75,0.12765957,-214.3435,931.10895,-0.0033040047,0.031309932,-0.0860281,0.0,0.0,0.0
811.3876,379.94336,130188621,0.75,0.08510638,-472.66205,2109.246,-0.0033040047,0.031309932,-0.0860281,0.0,0.0,0.0
802.8557,423.53516,130188638,0.7625,0.09574468,-712.36224,3207.3909,-0.0033040047,0.031309932,-0.0860281,0.0,0.0,0.0
795.367,478.56116,130188655,0.7375,0.08510638,-705.11633,3837.2268,0.01335679,-0.0069520473,0.011177063,0.0,0.0,0.0
785.2469,539.78015,130188671,0.725,0.08510638,-594.4545,4167.4204,0.01335679,-0.0069520473,0.011177063,0.0,0.0,0.0
775.0963,593.4127,130188688,0.725,0.06382979,-590.5797,4056.7021,0.01335679,-0.0069520473,0.011177063,0.0,0.0,0.0
767.2191,635.80176,130188705,0.7375,0.08510638,-582.2557,3355.173,0.01335679,-0.0069520473,0.011177063,0.0,0.0,0.0
761.086,658.19714,130188722,0.7375,0.10638297,-488.5232,2031.0223,0.01335679,-0.0069520473,0.011177063,0.0,0.0,0.0
756.6833,665.3938,130188738,0.75,0.12765957,-287.56573,405.89774,0.01335679,-0.0069520473,0.011177063,0.0,0.0,0.0
751.3926,668.1316,130188755,0.725,0.12765957,-167.26793,-597.47577,0.01335679,-0.0069520473,0.011177063,0.0,0.0,0.0
746.84924,665.91125,130188772,0.7,0.08510638,-192.40804,-981.08826,0.01335679,-0.0069520473,0.011177063,0.0,0.0,0.0
743.62714,657.52344,130188788,0.71250004,0.06382979,-193.9861,-1016.24896,0.01335679,-0.0069520473,0.011177063,0.0,0.0,0.0
746.73474,636.0447,130188803,0.3375,0.14893617,-65.438034,-1261.3567,0.01335679,-0.0069520473,0.011177063,0.0,0.0,0.0
746.73474,636.0447,130188810,0.3375,0.14893617,-65.438034,-1261.3567,0.01335679,-0.0069520473,0.011177063,0.0,0.0,0.0
829.70776,362.38574,130189013,0.3375,0.08510638,0.0,0.0,0.01335679,-0.0069520473,0.011177063,0.0,0.0,0.0
812.4634,357.0547,130189022,0.7625,0.10638297,-1834.6218,-567.1805,0.01335679,-0.0069520473,0.011177063,0.0,0.0,0.0
818.2115,358.83167,130189039,0.77500004,0.12765957,1126.3129,348.1816,0.01335679,-0.0069520473,0.011177063,0.0,0.0,0.0
818.2115,358.83167,130189056,0.7375,0.12765957,466.7873,144.30035,0.01335679,-0.0069520473,0.011177063,0.0,0.0,0.0
824.56726,340.0874,130189072,0.725,0.06382979,563.5796,-910.97754,0.01335679,-0.0069520473,0.011177063,0.0,0.0,0.0
842.11475,324.06555,130189089,0.7375,0.06382979,998.017,-1301.2412,0.01335679,-0.0069520473,0.011177063,0.0,0.0,0.0
867.7365,314.0641,130189106,0.725,0.08510638,1611.11,-1308.9478,0.01335679,-0.0069520473,0.011177063,0.0,0.0,0.0
892.0388,313.39587,130189123,0.71250004,0.08510638,2026.1346,-782.3506,0.01335679,-0.0069520473,0.011177063,0.0,0.0,0.0
911.81836,323.0641,130189139,0.6875,0.08510638,1953.8999,293.17206,0.01335679,-0.0069520473,0.011177063,0.0,0.0,0.0
920.78375,333.22156,130189156,0.7,0.12765957,1114.7643,1078.8693,0.01335679,-0.0069520473,0.011177063,0.0,0.0,0.0
926.29236,354.53174,130189173,0.71250004,0.07446808,314.20465,1506.6823,0.01335679,-0.0069520473,0.011177063,0.0,0.0,0.0
916.8929,371.93152,130189189,0.7375,0.08510638,-464.06128,1550.5597,0.010685429,0.010438353,-0.0070581436,0.0,0.0,0.0
884.96796,400.98596,130189206,0.725,0.12765957,-1607.2775,1715.0702,0.010685429,0.010438353,-0.0070581436,0.0,0.0,0.0
851.9304,413.54736,130189223,0.7375,0.08510638,-2558.219,1500.3116,0.010685429,0.010438353,-0.0070581436,0.0,0.0,0.0
826.7505,416.08667,130189240,0.725,0.08510638,-2832.0532,800.8361,0.010685429,0.010438353,-0.0070581436,0.0,0.0,0.0
812.1462,417.4729,130189256,0.71250004,0.08510638,-1865.302,-87.73741,0.010685429,0.010438353,-0.0070581436,0.0,0.0,0.0
805.81464,417.4729,130189273,0.65000004,0.08510638,-548.63824,-538.55383,0.010685429,0.010438353,-0.0070581436,0.0,0.0,0.0
805.2157,417.4729,130189276,0.26250002,0.11702127,-411.58975,-536.79486,0.010685429,0.010438353,-0.0070581436,0.0,0.0,0.0
805.2157,417.4729,130189284,0.26250002,0.11702127,-411.58975,-536.79486,0.010685429,0.010438353,-0.0070581436,0.0,0.0,0.0
928.67554,313.51794,130189735,0.8125,0.08510638,0.0,0.0,0.008548349,-0.0076493025,-0.0056467056,0.0,0.0,0.0
928.67554,313.51794,130189758,0.83750004,0.08510638,0.23027311,0.07924594,0.008548349,-0.0076493025,-0.0056467056,0.0,0.0,0.0
928.67554,313.51794,130189772,0.83750004,0.08510638,0.011563831,0.0044668345,0.008548349,-0.0076493025,-0.0056467056,0.0,0.0,0.0
928.67554,313.51794,130189791,0.825,0.08510638,-0.02781324,-0.008528936,0.008548349,-0.0076493025,-0.0056467056,0.0,0.0,0.0
928.67554,313.51794,130189808,0.83750004,0.08510638,-0.015400194,-0.005822407,0.008548349,-0.0076493025,-0.0056467056,6.710885E-6,0.0,0.0
923.9959,343.885,130189825,0.8,0.12765957,-153.66173,1008.8133,0.008548349,-0.0076493025,-0.0056467056,6.710885E-6,0.0,0.0
917.0191,378.17688,130189841,0.7875,0.09574468,-387.79126,2157.145,0.008548349,-0.0076493025,-0.0056467056,6.710885E-6,0.0,0.0
910.39777,423.08325,130189858,0.7875,0.07446808,-528.0129,3027.4678,0.008548349,-0.0076493025,-0.0056467056,6.710885E-6,0.0,0.0
904.82733,473.38635,130189875,0.77500004,0.08510638,-530.91583,3683.9492,0.008548349,-0.0076493025,-0.0056467056,0.0,0.0,0.0
902.684,523.24255,130189891,0.77500004,0.08510638,-358.20773,3767.063,0.008548349,-0.0076493025,-0.0056467056,0.0,0.0,0.0
900.4337,567.197,130189908,0.7625,0.10638297,-80.02932,3374.855,0.008548349,-0.0076493025,-0.0056467056,0.0,0.0,0.0
897.1048,597.5863,130189925,0.7625,0.08510638,-36.822342,2448.208,0.008548349,-0.0076493025,-0.0056467056,0.0,0.0,0.0
893.7024,617.6089,130189941,0.75,0.10638297,-115.122215,1318.376,0.008548349,-0.0076493025,-0.0056467056,0.0,0.0,0.0
891.83685,624.8519,130189958,0.75,0.08510638,-178.16614,256.08737,0.008548349,-0.0076493025,-0.0056467056,0.0,0.0,0.0
890.7777,624.0845,130189975,0.675,0.08510638,-127.232216,-529.25494,0.008548349,-0.0076493025,-0.0056467056,0.0,0.0,0.0
890.6879,623.6056,130189976,0.32500002,0.10638297,-113.782646,-567.6723,0.008548349,-0.0076493025,-0.0056467056,0.0,0.0,0.0
890.6879,623.6056,130189984,0.32500002,0.10638297,-113.782646,-567.6723,0.008548349,-0.0076493025,-0.0056467056,0.0,0.0,0.0
929.17535,334.84204,130190249,0.85,0.08510638,0.0,0.0,0.008548349,-0.0076493025,-0.0056467056,0.0,0.0,0.0
929.17535,334.84204,130190274,0.8625,0.08510638,-0.13440274,-0.04919746,-0.009161323,0.009880543,-0.18851757,0.0,0.0,0.0
934.9873,331.39832,130190292,0.8,0.06382979,297.33322,-176.23239,-0.009161323,0.009880543,-0.18851757,0.0,0.0,0.0
966.39075,316.9231,130190309,0.75,0.08510638,1971.8552,-993.1213,-0.009161323,0.009880543,-0.18851757,0.0,0.0,0.0
994.25854,315.29504,130190325,0.75,0.06382979,2442.2925,-686.59674,-0.009161323,0.009880543,-0.18851757,0.0,0.0,0.0
1016.0386,321.74646,130190342,0.725,0.08510638,2315.4001,-169.2756,-0.009161323,0.009880543,-0.18851757,0.0,0.0,0.0
1030.3561,331.3722,130190359,0.725,0.08510638,1635.7812,599.9046,-0.009161323,0.009880543,-0.18851757,0.0,0.0,0.0
1039.8054,346.76123,130190376,0.75,0.10638297,524.10425,1217.0724,-0.009161323,0.009880543,-0.18851757,0.0,0.0,0.0
1044.138,368.98474,130190392,0.7375,0.06382979,59.558075,1506.8474,-0.009161323,0.009880543,-0.18851757,0.0,0.0,0.0
1033.8494,397.42188,130190409,0.725,0.10638297,-460.26678,1818.2517,-0.009161323,0.009880543,-0.18851757,0.0,0.0,0.0
1004.4127,427.84326,130190426,0.7375,0.06382979,-1422.159,2104.8623,-0.009161323,0.009880543,-0.18851757,0.0,0.0,0.0
961.4994,456.3374,130190443,0.77500004,0.10638297,-2753.2764,2157.7825,-0.009161323,0.009880543,-0.18851757,0.0,0.0,0.0
925.33984,467.94092,130190459,0.75,0.09574468,-3335.28,1473.3662,-0.009161323,0.009880543,-0.18851757,0.0,0.0,0.0
899.685,469.89453,130190474,0.3,0.09574468,-3201.2954,724.45825,-0.009161323,0.009880543,-0.18851757,0.0,0.0,0.0
899.685,469.89453,130190482,0.3,0.09574468,-3201.2954,724.45825,-0.009161323,0.009880543,-0.18851757,0.0,0.0,0.0
