x,y,timestamp,pressure,fingerarea,velocityx,velocityy,accelx,accely,accelz,gyrox,gyroy,gyroz
151.42856,291.30542,78919284,0.85,0.12765957,0.0,0.0,-0.009673595,-6.8306923E-4,-0.061774254,1.342177E-5,0.0,0.0
151.42856,291.30542,78919307,0.9125,0.12765957,-0.031700093,-0.056064982,-0.009673595,-6.8306923E-4,-0.061774254,-1.8981249E-5,1.8981249E-5,0.0
180.70804,280.71973,78919323,0.9875,0.10638297,2219.3047,-802.37646,-0.009673595,-6.8306923E-4,-0.061774254,-1.8981249E-5,1.8981249E-5,0.0
217.47766,262.9829,78919340,0.975,0.08510638,3180.7007,-1390.821,-0.009673595,-6.8306923E-4,-0.061774254,-1.8981249E-5,1.8981249E-5,0.0
263.3489,242.76978,78919357,0.96250004,0.12765957,3656.444,-1637.3062,-0.009673595,-6.8306923E-4,-0.061774254,-1.8981249E-5,1.8981249E-5,0.0
315.8694,222.44873,78919373,0.96250004,0.09574468,3954.1482,-1690.387,-0.009673595,-6.8306923E-4,-0.061774254,1.3103409E-4,-1.5724091E-4,0.0
365.89075,199.03113,78919390,0.95,0.11702127,3653.398,-1600.0697,-0.009673595,-6.8306923E-4,-0.061774254,1.3103409E-4,-1.5724091E-4,0.0
413.60565,183.15955,78919407,0.925,0.12765957,3311.8635,-1333.2312,-0.009673595,-6.8306923E-4,-0.061774254,1.3103409E-4,-1.5724091E-4,0.0
458.26807,170.64478,78919423,0.9125,0.08510638,2862.6445,-890.2588,-0.009673595,-6.8306923E-4,-0.061774254,1.3103409E-4,-1.5724091E-4,0.0
494.1267,161.40405,78919440,0.825,0.06382979,2382.713,-528.38025,-0.009673595,-6.8306923E-4,-0.061774254,0.0,3.355443E-6,0.0
504.81354,158.91846,78919452,0.45000002,0.09574468,1838.003,-287.78543,-0.009673595,-6.8306923E-4,-0.061774254,0.0,3.355443E-6,0.0
504.81354,158.91846,78919459,0.45000002,0.09574468,1838.003,-287.78543,-0.009673595,-6.8306923E-4,-0.061774254,0.0,3.355443E-6,0.0
215.40775,412.14185,78919709,0.95,0.10638297,0.0,0.0,-0.009673595,-6.8306923E-4,-0.061774254,0.0,0.0,0.0
215.40775,412.14185,78919741,0.9875,0.12765957,-0.021681588,-0.041716836,-0.009673595,-6.8306923E-4,-0.061774254,0.0,0.0,0.0
247.8628,398.60742,78919758,0.96250004,0.11702127,2200.757,-916.8819,-0.039739132,-0.016546488,-0.13741875,4.5298284E-4,-6.039771E-4,0.0
286.95923,380.969,78919774,0.9375,0.06382979,2820.872,-1237.6478,-0.039739132,-0.016546488,-0.13741875,4.5298284E-4,-6.039771E-4,0.0
321.3469,361.2771,78919791,0.95,0.10638297,3138.2566,-1551.7661,-0.039739132,-0.016546488,-0.13741875,4.5298284E-4,-6.039771E-4,0.0
362.9909,340.9475,78919808,0.95,0.09574468,3260.352,-1662.6592,-0.039739132,-0.016546488,-0.13741875,4.5298284E-4,-6.039771E-4,0.0
403.16748,320.7937,78919825,0.96250004,0.07446808,2917.2346,-1540.617,-0.039739132,-0.016546488,-0.13741875,-2.0132657E-5,2.0132657E-5,0.0
429.16898,306.43994,78919841,0.925,0.10638297,2147.9607,-1140.8998,-0.039739132,-0.016546488,-0.13741875,-2.0132657E-5,2.0132657E-5,0.0
459.3335,292.04883,78919858,0.8875,0.12765957,1665.9641,-822.08264,-0.039739132,-0.016546488,-0.13741875,-2.0132657E-5,2.0132657E-5,0.0
480.44495,279.02625,78919875,0.6875,0.07446808,1384.2336,-747.3848,-0.039739132,-0.016546488,-0.13741875,-2.0132657E-5,2.0132657E-5,0.0
481.82098,277.9779,78919878,0.35,0.08510638,1263.3204,-702.0544,-0.039739132,-0.016546488,-0.13741875,-2.0132657E-5,2.0132657E-5,0.0
481.82098,277.9779,78919886,0.35,0.08510638,1263.3204,-702.0544,-0.039739132,-0.016546488,-0.13741875,-2.0132657E-5,2.0132657E-5,0.0
327.87112,203.34363,78920313,0.83750004,0.08510638,0.0,0.0,-0.047791243,0.0027627945,0.010065079,0.0,0.0,0.0
327.87112,203.34363,78920343,0.925,0.08510638,-0.0014167819,-0.002544619,-0.047791243,0.0027627945,0.010065079,0.0,0.0,0.0
329.1075,224.76062,78920359,0.90000004,0.08510638,81.396576,1522.563,-0.047791243,0.0027627945,0.010065079,0.0,-1.342177E-5,0.0
332.09473,252.27026,78920376,0.925,0.10638297,193.14388,2158.5967,-0.047791243,0.0027627945,0.010065079,0.0,-1.342177E-5,0.0
337.59738,284.33972,78920393,0.925,0.08510638,328.91318,2520.7163,-0.047791243,0.0027627945,0.010065079,0.0,-1.342177E-5,0.0
343.28983,324.52625,78920409,0.9125,0.06382979,418.89725,2837.6074,-0.047791243,0.0027627945,0.010065079,0.0,-1.342177E-5,0.0
349.52832,355.13965,78920426,0.95,0.08510638,470.0389,2618.26,-0.047791243,0.0027627945,0.010065079,3.355443E-6,0.0,0.0
356.16928,387.01624,78920443,0.975,0.12765957,476.71234,2225.3826,-0.047791243,0.0027627945,0.010065079,3.355443E-6,0.0,0.0
363.0914,421.00244,78920460,0.975,0.08510638,451.07455,1986.9353,-0.047791243,0.0027627945,0.010065079,3.355443E-6,0.0,0.0
369.1749,452.68518,78920476,0.95,0.12765957,415.70847,1848.1171,-0.047791243,0.0027627945,0.010065079,3.355443E-6,0.0,0.0
377.6123,490.4254,78920493,0.9375,0.08510638,444.8891,1988.5232,-0.047791243,0.0027627945,0.010065079,2.0132657E-5,-2.0132657E-5,0.0
385.33743,526.6787,78920510,0.925,0.08510638,482.33847,2226.3,-0.047791243,0.0027627945,0.010065079,2.0132657E-5,-2.0132657E-5,0.0
396.8048,593.89514,78920543,0.875,0.06382979,376.01532,2110.275,-0.047791243,0.0027627945,0.010065079,2.0132657E-5,-2.0132657E-5,0.0
399.83163,622.8513,78920560,0.85,0.10638297,201.14153,1806.6621,-0.047791243,0.0027627945,0.010065079,0.0,0.0,0.0
401.84705,649.07886,78920577,0.83750004,0.06382979,65.32707,1518.4865,-0.047791243,0.0027627945,0.010065079,0.0,0.0,0.0
402.17523,676.09937,78920593,0.7625,0.10638297,-43.15538,1374.3804,-0.047791243,0.0027627945,0.010065079,0.0,0.0,0.0
405.13632,690.4487,78920610,0.475,0.08510638,-31.345478,1093.3334,-0.047791243,0.0027627945,0.010065079,0.0,0.0,0.0
406.34558,692.90894,78920619,0.25,0.09574468,31.06504,799.2166,-0.047791243,0.0027627945,0.010065079,0.0,0.0,0.0
406.34558,692.90894,78920626,0.25,0.09574468,31.06504,799.2166,-0.047791243,0.0027627945,0.010065079,0.0,0.0,0.0
464.32672,646.70667,78921632,0.7625,0.06382979,0.0,0.0,0.011013746,0.020968437,0.07844162,0.0,0.0,0.0
464.32672,646.70667,78921663,0.83750004,0.06382979,0.019389512,0.029433286,0.011013746,0.020968437,0.07844162,0.0,0.0,0.0
464.32672,646.70667,78921679,0.875,0.07446808,0.044436418,0.060793307,0.011013746,0.020968437,0.07844162,0.0,0.0,0.0
464.32672,646.70667,78921696,0.8875,0.07446808,0.035348173,0.049523823,0.011013746,0.020968437,0.07844162,3.6294656E-5,-2.4196437E-5,0.0
464.32672,646.70667,78921713,0.90000004,0.07446808,0.0072051124,0.010796068,0.011013746,0.020968437,0.07844162,3.6294656E-5,-2.4196437E-5,0.0
464.32672,646.70667,78921730,0.8875,0.07446808,-0.021192221,-0.03024845,0.011013746,0.020968437,0.07844162,3.6294656E-5,-2.4196437E-5,0.0
464.32672,646.70667,78921746,0.90000004,0.08510638,0.0028304947,0.0040384503,0.011013746,0.020968437,0.07844162,3.6294656E-5,-2.4196437E-5,0.0
464.32672,646.70667,78921763,0.875,0.09574468,0.041626308,0.05529086,0.011013746,0.020968437,0.07844162,0.0,1.5005995E-5,0.0
490.46332,622.402,78921780,0.8875,0.09574468,765.0316,-709.3779,0.011013746,0.020968437,0.07844162,0.0,1.5005995E-5,0.0
505.1673,603.73315,78921796,0.8875,0.06382979,1298.489,-1326.5886,0.011013746,0.020968437,0.07844162,0.0,1.5005995E-5,0.0
519.2149,582.9441,78921813,0.8875,0.11702127,1432.366,-1768.7024,0.011013746,0.020968437,0.07844162,0.0,1.5005995E-5,0.0
532.87244,558.47095,78921830,0.90000004,0.09574468,1086.8003,-1705.4921,0.011013746,0.020968437,0.07844162,0.0,0.0,0.0
543.58026,534.2999,78921846,0.8875,0.08510638,631.6792,-1597.4387,0.011013746,0.020968437,0.07844162,0.0,0.0,0.0
551.01776,516.40076,78921863,0.875,0.10638297,496.22842,-1467.0941,0.011013746,0.020968437,0.07844162,0.0,0.0,0.0
556.7467,503.24878,78921880,0.875,0.08510638,271.2137,-985.55994,0.011013746,0.020968437,0.07844162,0.0,0.0,0.0
559.6136,494.53125,78921897,0.85,0.06382979,96.02759,-520.85986,-0.0071890354,0.032774687,-0.02524662,-4.7453127E-6,4.7453127E-6,0.0
560.2955,491.2207,78921913,0.8625,0.06382979,-61.23635,-55.777683,-0.0071890354,0.032774687,-0.02524662,-4.7453127E-6,4.7453127E-6,0.0
560.2955,490.3302,78921930,0.925,0.06382979,-108.823326,134.07968,-0.0071890354,0.032774687,-0.02524662,-4.7453127E-6,4.7453127E-6,0.0
559.2204,491.35266,78921947,0.9125,0.08510638,-175.96646,297.11676,-0.0071890354,0.032774687,-0.02524662,-4.7453127E-6,4.7453127E-6,0.0
553.89575,501.6189,78921963,0.90000004,0.12765957,-278.38266,541.60254,-0.0071890354,0.032774687,-0.02524662,3.7664744E-5,-2.510983E-5,0.0
546.8485,525.09045,78921980,0.90000004,0.07446808,-441.43393,1145.0574,-0.0071890354,0.032774687,-0.02524662,3.7664744E-5,-2.510983E-5,0.0
541.33203,550.44104,78921997,0.8875,0.11702127,-528.9576,1813.9017,-0.0071890354,0.032774687,-0.02524662,3.7664744E-5,-2.510983E-5,0.0
537.5689,572.56177,78922014,0.875,0.09574468,-437.68365,2024.1936,-0.0071890354,0.032774687,-0.02524662,3.7664744E-5,-2.510983E-5,0.0
536.8031,591.87756,78922030,0.875,0.08510638,-159.18005,1680.3641,-0.0071890354,0.032774687,-0.02524662,0.0,0.0,0.0
538.2254,602.3491,78922047,0.875,0.11702127,110.93339,915.7347,-0.0071890354,0.032774687,-0.02524662,0.0,0.0,0.0
541.2831,607.88684,78922064,0.875,0.12765957,275.72357,291.44998,-0.0071890354,0.032774687,-0.02524662,0.0,0.0,0.0
547.3839,611.6482,78922080,0.90000004,0.12765957,411.38123,-71.665794,-0.0071890354,0.032774687,-0.02524662,0.0,0.0,0.0
558.8096,612.9436,78922097,0.9125,0.10638297,627.6663,-242.26071,-0.0071890354,0.032774687,-0.02524662,0.0,3.355443E-6,0.0
573.8153,607.82385,78922114,0.90000004,0.10638297,926.1963,-313.98013,-0.0071890354,0.032774687,-0.02524662,0.0,3.355443E-6,0.0
588.93823,594.1113,78922131,0.90000004,0.08510638,1144.4521,-718.2739,-0.0071890354,0.032774687,-0.02524662,0.0,3.355443E-6,0.0
607.78687,571.798,78922147,0.8875,0.09574468,1263.8765,-1326.1722,-0.0071890354,0.032774687,-0.02524662,0.0,3.355443E-6,0.0
623.9731,547.9966,78922164,0.875,0.07446808,1215.893,-1811.3059,-0.0071890354,0.032774687,-0.02524662,3.183252E-5,-1.0610839E-5,0.0
636.9544,524.655,78922181,0.83750004,0.12765957,1010.5782,-1928.0315,-0.0071890354,0.032774687,-0.02524662,3.183252E-5,-1.0610839E-5,0.0
646.5402,505.48828,78922197,0.85,0.07446808,706.9952,-1635.3423,-0.0071890354,0.032774687,-0.02524662,3.183252E-5,-1.0610839E-5,0.0
651.38696,495.07788,78922214,0.8625,0.07446808,362.16034,-1068.4307,-0.0071890354,0.032774687,-0.02524662,3.183252E-5,-1.0610839E-5,0.0
653.7599,489.4508,78922231,0.8875,0.07446808,12.761656,-341.9293,-0.0071890354,0.032774687,-0.02524662,-9.925527E-5,5.9553164E-5,0.0
654.2649,487.22046,78922247,0.9125,0.07446808,-137.99176,58.754375,-0.0071890354,0.032774687,-0.02524662,-9.925527E-5,5.9553164E-5,0.0
654.2649,488.8152,78922264,0.90000004,0.07446808,-204.46222,361.53088,-0.0071890354,0.032774687,-0.02524662,-9.925527E-5,5.9553164E-5,0.0
651.4523,498.15186,78922281,0.875,0.11702127,-228.48563,593.3334,-0.0071890354,0.032774687,-0.02524662,-9.925527E-5,5.9553164E-5,0.0
644.61475,518.09424,78922298,0.8625,0.11702127,-362.71524,1078.3511,-0.0071890354,0.032774687,-0.02524662,1.8981249E-5,-1.8981249E-5,0.0
639.02246,539.0762,78922314,0.875,0.08510638,-512.3178,1630.8223,-0.0071890354,0.032774687,-0.02524662,1.8981249E-5,-1.8981249E-5,0.0
635.33105,558.3539,78922331,0.85,0.12765957,-478.7375,1750.9026,-0.0071890354,0.032774687,-0.02524662,1.8981249E-5,-1.8981249E-5,0.0
633.7507,575.9972,78922348,0.85,0.07446808,-198.03474,1353.9066,-0.0071890354,0.032774687,-0.02524662,1.8981249E-5,-1.8981249E-5,0.0
634.79553,589.21277,78922364,0.85,0.07446808,35.3519,1012.0553,-0.0071890354,0.032774687,-0.02524662,0.0,0.0,0.0
637.57385,599.6266,78922381,0.85,0.09574468,235.9488,628.9958,-0.0071890354,0.032774687,-0.02524662,0.0,0.0,0.0
640.3145,604.78503,78922398,0.85,0.12765957,304.01462,318.0775,-0.0071890354,0.032774687,-0.02524662,0.0,0.0,0.0
645.81085,610.3164,78922415,0.85,0.12765957,366.88666,85.51482,-0.0071890354,0.032774687,-0.02524662,0.0,0.0,0.0
653.72723,615.8828,78922431,0.875,0.12765957,464.1444,60.671104,0.058248997,0.05821967,-0.0041980743,-0.0,0.0,0.0
662.6071,620.0891,78922448,0.875,0.10638297,603.5221,178.96057,0.058248997,0.05821967,-0.0041980743,-0.0,0.0,0.0
670.81885,621.8286,78922465,0.90000004,0.10638297,662.12756,167.84558,0.058248997,0.05821967,-0.0041980743,-0.0,0.0,0.0
677.2725,621.8286,78922481,0.8875,0.12765957,555.42084,16.814594,0.058248997,0.05821967,-0.0041980743,-0.0,0.0,0.0
683.1338,621.16113,78922498,0.85,0.12765957,383.9005,-128.04442,0.058248997,0.05821967,-0.0041980743,0.0,0.0,0.0
688.6653,618.62317,78922515,0.83750004,0.12765957,264.87418,-210.92726,0.058248997,0.05821967,-0.0041980743,0.0,0.0,0.0
693.98065,614.12134,78922532,0.875,0.11702127,251.9242,-285.63953,0.058248997,0.05821967,-0.0041980743,0.0,0.0,0.0
699.0848,606.95935,78922548,0.8625,0.09574468,276.15448,-423.77634,0.058248997,0.05821967,-0.0041980743,0.0,0.0,0.0
703.35406,597.60535,78922565,0.8625,0.08510638,268.19135,-609.3171,0.058248997,0.05821967,-0.0041980743,0.0,0.0,0.0
710.09973,579.82837,78922582,0.8625,0.12765957,318.24347,-939.67804,0.058248997,0.05821967,-0.0041980743,0.0,0.0,0.0
713.5769,563.1981,78922598,0.85,0.08510638,290.54666,-1191.5964,0.058248997,0.05821967,-0.0041980743,0.0,0.0,0.0
716.38916,541.07263,78922615,0.83750004,0.07446808,219.17964,-1429.6392,0.058248997,0.05821967,-0.0041980743,0.0,0.0,0.0
717.61804,517.6664,78922632,0.85,0.12765957,93.153885,-1565.4283,0.058248997,0.05821967,-0.0041980743,0.0,0.0,0.0
718.7439,493.81714,78922649,0.825,0.06382979,-3.5963812,-1635.1877,0.058248997,0.05821967,-0.0041980743,0.0,0.0,0.0
719.44995,477.6234,78922665,0.85,0.10638297,-17.401213,-1381.5596,0.058248997,0.05821967,-0.0041980743,0.0,0.0,0.0
718.93726,464.50513,78922682,0.8625,0.12765957,-35.19903,-944.79156,0.058248997,0.05821967,-0.0041980743,0.0,0.0,0.0
717.8984,458.00378,78922699,0.875,0.10638297,-75.81675,-409.10718,0.058248997,0.05821967,-0.0041980743,-9.678568E-5,0.0,0.0
716.8665,455.8954,78922715,0.90000004,0.10638297,-112.218414,68.34926,0.058248997,0.05821967,-0.0041980743,-9.678568E-5,0.0,0.0
714.6003,454.79004,78922732,0.925,0.12765957,-132.89212,237.31308,0.058248997,0.05821967,-0.0041980743,-9.678568E-5,0.0,0.0
711.8674,455.6067,78922749,0.9125,0.12765957,-175.23795,299.84546,0.058248997,0.05821967,-0.0041980743,-9.678568E-5,0.0,0.0
709.7384,457.463,78922766,0.90000004,0.11702127,-180.65152,261.65637,0.058248997,0.05821967,-0.0041980743,3.355443E-6,0.0,0.0
707.15985,461.16553,78922782,0.9125,0.09574468,-187.07866,276.40002,0.058248997,0.05821967,-0.0041980743,3.355443E-6,0.0,0.0
706.7478,464.8579,78922799,0.8875,0.08510638,-111.20405,312.96713,0.058248997,0.05821967,-0.0041980743,3.355443E-6,0.0,0.0
709.70856,468.08362,78922816,0.8875,0.06382979,63.031654,289.89334,0.058248997,0.05821967,-0.0041980743,3.355443E-6,0.0,0.0
722.44495,477.58167,78922832,0.875,0.06382979,477.3865,408.69238,0.058248997,0.05821967,-0.0041980743,1.2079576E-4,-3.019894E-5,0.0
737.55835,487.67773,78922849,0.8625,0.09574468,986.02856,614.1536,0.058248997,0.05821967,-0.0041980743,1.2079576E-4,-3.019894E-5,0.0
751.3616,495.58252,78922866,0.8625,0.11702127,1263.7953,721.1315,0.058248997,0.05821967,-0.0041980743,1.2079576E-4,-3.019894E-5,0.0
761.378,503.833,78922883,0.8625,0.12765957,1060.115,641.34467,0.058248997,0.05821967,-0.0041980743,1.2079576E-4,-3.019894E-5,0.0
767.31177,512.6914,78922899,0.85,0.08510638,549.1702,493.14822,0.058248997,0.05821967,-0.0041980743,3.183252E-5,0.0,0.0
774.6461,533.95776,78922916,0.83750004,0.06382979,233.74533,805.2305,0.058248997,0.05821967,-0.0041980743,3.183252E-5,0.0,0.0
774.8416,549.9873,78922933,0.83750004,0.09574468,44.607166,1204.2579,0.058248997,0.05821967,-0.0041980743,3.183252E-5,0.0,0.0
772.94507,566.46326,78922949,0.85,0.10638297,-165.23813,1301.9791,0.058248997,0.05821967,-0.0041980743,3.183252E-5,0.0,0.0
771.7547,580.6084,78922966,0.85,0.07446808,-293.63412,1116.3446,0.014599085,-0.0014243126,0.05264187,-1.5005995E-5,0.0,0.0
771.2268,591.75745,78922983,0.825,0.07446808,-270.84903,754.7224,0.014599085,-0.0014243126,0.05264187,-1.5005995E-5,0.0,0.0
771.778,599.09314,78922999,0.825,0.08510638,-107.09728,445.42554,0.014599085,-0.0014243126,0.05264187,-1.5005995E-5,0.0,0.0
773.4164,603.5082,78923016,0.83750004,0.09574468,84.215965,228.6369,0.014599085,-0.0014243126,0.05264187,-1.5005995E-5,0.0,0.0
774.92957,606.01685,78923033,0.85,0.10638297,155.27634,7.653971,0.014599085,-0.0014243126,0.05264187,0.0,0.0,0.0
777.7581,609.13306,78923050,0.85,0.10638297,186.92307,-51.258064,0.014599085,-0.0014243126,0.05264187,0.0,0.0,0.0
780.1459,610.6531,78923066,0.8625,0.10638297,201.03152,-25.822475,0.014599085,-0.0014243126,0.05264187,0.0,0.0,0.0
782.47504,612.5005,78923083,0.875,0.10638297,172.80286,45.88876,0.014599085,-0.0014243126,0.05264187,0.0,0.0,0.0
784.7985,614.3441,78923100,0.8625,0.12765957,157.75891,81.93963,0.014599085,-0.0014243126,0.05264187,3.355443E-6,0.0,0.0
786.5498,615.30347,78923116,0.85,0.12765957,125.744865,66.31264,0.014599085,-0.0014243126,0.05264187,3.355443E-6,0.0,0.0
787.58466,616.2545,78923133,0.85,0.12765957,74.9994,40.715405,0.014599085,-0.0014243126,0.05264187,3.355443E-6,0.0,0.0
788.61646,617.3861,78923150,0.8625,0.12765957,42.630795,43.161434,0.014599085,-0.0014243126,0.05264187,3.355443E-6,0.0,0.0
789.6568,617.3861,78923167,0.8625,0.12765957,23.61357,17.858692,0.014599085,-0.0014243126,0.05264187,-4.7453127E-6,4.7453127E-6,0.0
790.70636,618.24963,78923183,0.8625,0.12765957,38.96497,7.599817,0.014599085,-0.0014243126,0.05264187,-4.7453127E-6,4.7453127E-6,0.0
791.7448,618.27466,78923200,0.8625,0.12765957,58.46464,7.1463604,0.014599085,-0.0014243126,0.05264187,-4.7453127E-6,4.7453127E-6,0.0
792.78217,618.27466,78923217,0.8875,0.12765957,63.44698,-4.5969806,0.014599085,-0.0014243126,0.05264187,-4.7453127E-6,4.7453127E-6,0.0
793.81775,618.27466,78923233,0.875,0.12765957,62.560207,-4.6277986,0.014599085,-0.0014243126,0.05264187,4.7453127E-6,-4.7453127E-6,0.0
794.8615,618.27466,78923250,0.875,0.12765957,62.129364,-11.174554,0.014599085,-0.0014243126,0.05264187,4.7453127E-6,-4.7453127E-6,0.0
795.46893,618.27466,78923260,0.875,0.12765957,61.352547,-15.181157,0.014599085,-0.0014243126,0.05264187,4.7453127E-6,-4.7453127E-6,0.0
795.9397,618.27466,78923284,0.875,0.12765957,27.87838,0.039700214,0.014599085,-0.0014243126,0.05264187,4.7453127E-6,-4.7453127E-6,0.0
796.5999,618.27466,78923300,0.875,0.12765957,17.489538,0.067206115,0.014599085,-0.0014243126,0.05264187,0.0,0.0,0.0
796.7185,618.27466,78923317,0.875,0.12765957,7.84434,-0.049937584,0.014599085,-0.0014243126,0.05264187,0.0,0.0,0.0
796.7185,618.27466,78923324,0.8875,0.12765957,2.509285,-0.0065492378,0.014599085,-0.0014243126,0.05264187,0.0,0.0,0.0
796.7185,618.27466,78923367,0.90000004,0.12765957,-17.93823,-0.005601482,0.014599085,-0.0014243126,0.05264187,0.0,0.0,0.0
797.1705,618.27466,78923384,0.8875,0.12765957,-0.9731869,0.039293595,0.014599085,-0.0014243126,0.05264187,0.0,0.0,0.0
797.71814,618.27466,78923401,0.875,0.12765957,40.292213,0.0014815677,0.014599085,-0.0014243126,0.05264187,0.0,0.0,0.0
797.71814,618.27466,78923404,0.8875,0.12765957,39.66365,0.023603652,0.014599085,-0.0014243126,0.05264187,0.0,0.0,0.0
797.71814,618.27466,78923434,0.8875,0.12765957,-7.6744304,-0.038278338,0.014599085,-0.0014243126,0.05264187,3.355443E-6,0.0,0.0
797.71814,618.27466,78923465,0.90000004,0.12765957,-17.428255,0.023888724,0.014599085,-0.0014243126,0.05264187,3.355443E-6,0.0,0.0
797.71814,618.27466,78923501,0.8875,0.12765957,0.03071762,0.022777637,-0.0043206215,-0.0011396408,0.106113434,0.0,0.0,0.0
797.71814,618.27466,78923518,0.9125,0.12765957,0.0409072,0.030048843,-0.0043206215,-0.0011396408,0.106113434,0.0,0.0,0.0
797.71814,618.27466,78923534,0.9125,0.12765957,-0.01262024,-0.010052361,-0.0043206215,-0.0011396408,0.106113434,0.0,0.0,0.0
797.71814,618.27466,78923549,0.9125,0.12765957,-0.03757064,-0.030862309,-0.0043206215,-0.0011396408,0.106113434,0.0,0.0,0.0
797.71814,618.27466,78923568,0.90000004,0.12765957,0.049861223,0.04270594,-0.0043206215,-0.0011396408,0.106113434,0.0,0.0,0.0
797.71814,618.27466,78923584,0.9125,0.12765957,-0.0715958,-0.059217848,-0.0043206215,-0.0011396408,0.106113434,0.0,0.0,0.0
798.46796,618.27466,78923600,0.90000004,0.12765957,17.548498,-0.019543227,-0.0043206215,-0.0011396408,0.106113434,0.0,0.0,0.0
798.218,618.27466,78923634,0.9125,0.12765957,10.939999,-0.020253776,-0.0043206215,-0.0011396408,0.106113434,0.0,0.0,0.0
798.218,618.27466,78923646,0.90000004,0.12765957,0.6901481,0.021260044,-0.0043206215,-0.0011396408,0.106113434,0.0,0.0,0.0
798.71783,618.27466,78923682,0.90000004,0.12765957,7.153507,0.013418123,-0.0043206215,-0.0011396408,0.106113434,0.0,0.0,0.0
798.71783,618.27466,78923694,0.9125,0.12765957,16.816721,-0.021531468,-0.0043206215,-0.0011396408,0.106113434,0.0,0.0,0.0
799.21765,618.27466,78923718,0.9125,0.12765957,21.048866,-0.020772936,-0.0043206215,-0.0011396408,0.106113434,0.0,0.0,0.0
799.21765,618.27466,78923735,0.90000004,0.12765957,12.150824,0.03136992,-0.0043206215,-0.0011396408,0.106113434,0.0,0.0,0.0
799.5423,618.27466,78923751,0.90000004,0.12765957,4.189063,-0.0028898066,-0.0043206215,-0.0011396408,0.106113434,0.0,0.0,0.0
799.7175,618.27466,78923768,0.90000004,0.12765957,12.111046,0.022293482,-0.0043206215,-0.0011396408,0.106113434,0.0,0.0,0.0
799.7175,618.27466,78923783,0.90000004,0.12765957,6.7701964,0.015240936,-0.0043206215,-0.0011396408,0.106113434,0.0,0.0,0.0
800.21735,618.27466,78923827,0.90000004,0.12765957,0.0,0.0,-0.0043206215,-0.0011396408,0.106113434,0.0,0.0,0.0
800.71716,618.27466,78923885,0.90000004,0.12765957,-0.23161334,-0.17740601,-0.0043206215,-0.0011396408,0.106113434,0.0,0.0,0.0
800.71716,618.27466,78923919,0.9125,0.12765957,0.09760259,0.075858295,-0.0043206215,-0.0011396408,0.106113434,1.342177E-5,0.0,0.0
801.467,618.27466,78923935,0.90000004,0.12765957,48.100544,-0.011832074,-0.0043206215,-0.0011396408,0.106113434,1.342177E-5,0.0,0.0
802.09015,618.27466,78923985,0.8875,0.12765957,62.227055,-0.0019388845,-0.0043206215,-0.0011396408,0.106113434,0.0,3.355443E-6,0.0
802.8612,618.27466,78924002,0.8875,0.12765957,33.081295,-0.04223375,-0.0043206215,-0.0011396408,0.106113434,0.0,3.355443E-6,0.0
803.96606,618.27466,78924032,0.8875,0.12765957,31.391916,-0.0093986,0.01254344,-0.016911745,0.02089119,-3.355443E-6,0.0,0.0
804.21606,618.27466,78924052,0.8875,0.12765957,16.78691,0.02470668,0.01254344,-0.016911745,0.02089119,-3.355443E-6,0.0,0.0
804.9658,618.27466,78924064,0.875,0.12765957,27.077261,0.031716548,0.01254344,-0.016911745,0.02089119,-3.355443E-6,0.0,0.0
805.8248,618.27466,78924086,0.875,0.12765957,40.20619,0.029171009,0.01254344,-0.016911745,0.02089119,-3.355443E-6,0.0,0.0
806.28925,618.27466,78924102,0.875,0.12765957,41.227177,-0.0059951157,0.01254344,-0.016911745,0.02089119,0.0,0.0,0.0
807.40753,618.27466,78924119,0.8625,0.12765957,52.36315,-0.008942165,0.01254344,-0.016911745,0.02089119,0.0,0.0,0.0
808.0775,618.27466,78924136,0.8625,0.12765957,55.44227,0.026796753,0.01254344,-0.016911745,0.02089119,0.0,0.0,0.0
808.979,618.27466,78924152,0.85,0.12765957,54.545277,2.5632372E-4,0.01254344,-0.016911745,0.02089119,0.0,0.0,0.0
810.0063,617.7555,78924169,0.85,0.12765957,57.6446,-8.85147,0.01254344,-0.016911745,0.02089119,3.355443E-6,0.0,0.0
811.05554,617.3861,78924186,0.85,0.12765957,62.0517,-36.047894,0.01254344,-0.016911745,0.02089119,3.355443E-6,0.0,0.0
812.08624,616.72375,78924203,0.85,0.12765957,68.80407,-39.395332,0.01254344,-0.016911745,0.02089119,3.355443E-6,0.0,0.0
813.6197,614.88635,78924219,0.8625,0.12765957,83.08562,-80.32464,0.01254344,-0.016911745,0.02089119,3.355443E-6,0.0,0.0
814.66504,614.7206,78924236,0.8625,0.12765957,80.146996,-82.76357,0.01254344,-0.016911745,0.02089119,8.219123E-6,-8.219123E-6,0.0
815.68164,612.99805,78924253,0.85,0.10638297,72.47554,-79.71675,0.01254344,-0.016911745,0.02089119,8.219123E-6,-8.219123E-6,0.0
817.7832,612.9436,78924269,0.85,0.10638297,91.6196,-56.878464,0.01254344,-0.016911745,0.02089119,8.219123E-6,-8.219123E-6,0.0
819.8588,611.0353,78924286,0.85,0.09574468,121.18306,-55.848328,0.01254344,-0.016911745,0.02089119,8.219123E-6,-8.219123E-6,0.0
822.443,609.1826,78924303,0.85,0.09574468,162.20709,-98.33466,0.01254344,-0.016911745,0.02089119,-1.09038854E-4,2.7259714E-5,0.0
826.3108,608.23364,78924320,0.83750004,0.08510638,217.71706,-108.39894,0.01254344,-0.016911745,0.02089119,-1.09038854E-4,2.7259714E-5,0.0
830.48175,606.3801,78924336,0.83750004,0.08510638,261.9191,-103.3915,0.01254344,-0.016911745,0.02089119,-1.09038854E-4,2.7259714E-5,0.0
834.63635,603.2322,78924353,0.83750004,0.08510638,289.18802,-139.70418,0.01254344,-0.016911745,0.02089119,-1.09038854E-4,2.7259714E-5,0.0
839.067,599.53613,78924370,0.825,0.06382979,293.37534,-213.00414,0.01254344,-0.016911745,0.02089119,2.0132657E-5,-2.0132657E-5,0.0
843.40186,596.09863,78924386,0.8125,0.07446808,277.41953,-265.88266,0.01254344,-0.016911745,0.02089119,2.0132657E-5,-2.0132657E-5,0.0
848.5366,591.6173,78924403,0.8125,0.08510638,296.61026,-285.91656,0.01254344,-0.016911745,0.02089119,2.0132657E-5,-2.0132657E-5,0.0
853.08,586.72925,78924420,0.825,0.09574468,294.68332,-304.661,0.01254344,-0.016911745,0.02089119,2.0132657E-5,-2.0132657E-5,0.0
857.34937,581.4232,78924437,0.8125,0.09574468,279.86414,-321.74356,0.01254344,-0.016911745,0.02089119,2.2297892E-4,-5.574473E-5,0.0
861.56,577.5255,78924453,0.8,0.11702127,253.11171,-318.50385,0.01254344,-0.016911745,0.02089119,2.2297892E-4,-5.574473E-5,0.0
865.73413,572.91016,78924470,0.825,0.12765957,240.99702,-276.2453,0.01254344,-0.016911745,0.02089119,2.2297892E-4,-5.574473E-5,0.0
871.47095,568.27246,78924487,0.825,0.10638297,286.99506,-259.2408,0.01254344,-0.016911745,0.02089119,2.2297892E-4,-5.574473E-5,0.0
877.204,562.7328,78924503,0.825,0.09574468,342.34067,-298.74875,0.01254344,-0.016911745,0.02089119,-3.183252E-5,1.0610839E-5,0.0
883.4579,556.0585,78924520,0.8,0.08510638,398.22913,-368.54895,0.01254344,-0.016911745,0.02089119,-3.183252E-5,1.0610839E-5,0.0
890.5259,548.50134,78924537,0.8,0.06382979,432.56174,-457.303,0.01254344,-0.016911745,0.02089119,-3.183252E-5,1.0610839E-5,0.0
897.61816,540.04504,78924554,0.8,0.07446808,455.60284,-525.229,0.01254344,-0.016911745,0.02089119,-3.183252E-5,1.0610839E-5,0.0
904.9052,530.35547,78924570,0.8125,0.11702127,470.45193,-601.47815,-0.037965298,0.0024704933,0.016713142,0.0,0.0,0.0
912.9295,519.3191,78924587,0.8,0.12765957,487.62598,-686.3928,-0.037965298,0.0024704933,0.016713142,0.0,0.0,0.0
921.5871,506.1704,78924604,0.8125,0.08510638,516.34406,-779.7209,-0.037965298,0.0024704933,0.016713142,0.0,0.0,0.0
931.1664,490.96545,78924620,0.825,0.06382979,558.90656,-914.8597,-0.037965298,0.0024704933,0.016713142,0.0,0.0,0.0
941.7533,475.51025,78924637,0.83750004,0.09574468,622.788,-1005.4118,-0.037965298,0.0024704933,0.016713142,0.0,0.0,0.0
952.88184,459.46106,78924654,0.8125,0.10638297,693.49805,-1055.9204,-0.037965298,0.0024704933,0.016713142,0.0,0.0,0.0
963.344,441.98425,78924671,0.825,0.08510638,689.8038,-1054.5427,-0.037965298,0.0024704933,0.016713142,0.0,0.0,0.0
973.30334,424.2964,78924687,0.8,0.12765957,671.3568,-1110.8948,-0.037965298,0.0024704933,0.016713142,0.0,0.0,0.0
985.48926,400.78394,78924704,0.8125,0.08510638,665.9876,-1275.8605,-0.037965298,0.0024704933,0.016713142,0.0,0.0,0.0
993.30457,379.22888,78924721,0.8125,0.06382979,602.86346,-1442.9209,-0.037965298,0.0024704933,0.016713142,0.0,0.0,0.0
1000.43933,360.0547,78924737,0.8125,0.10638297,490.88205,-1414.7366,-0.037965298,0.0024704933,0.016713142,0.0,0.0,0.0
1006.70605,338.1975,78924754,0.825,0.07446808,348.56488,-1318.0421,-0.037965298,0.0024704933,0.016713142,0.0,0.0,0.0
1010.79004,318.985,78924771,0.8125,0.08510638,219.533,-1220.3636,-0.037965298,0.0024704933,0.016713142,-4.7453127E-6,4.7453127E-6,0.0
1012.90344,302.32715,78924787,0.825,0.12765957,98.24007,-1039.5349,-0.037965298,0.0024704933,0.016713142,-4.7453127E-6,4.7453127E-6,0.0
1013.6478,288.53174,78924804,0.8125,0.08510638,1.4370841,-897.7518,-0.037965298,0.0024704933,0.016713142,-4.7453127E-6,4.7453127E-6,0.0
1012.833,277.8429,78924821,0.825,0.07446808,-110.271416,-618.10223,-0.037965298,0.0024704933,0.016713142,-4.7453127E-6,4.7453127E-6,0.0
1010.9888,269.41284,78924838,0.825,0.07446808,-188.20404,-386.84113,-0.037965298,0.0024704933,0.016713142,-1.3505387E-4,6.752693E-5,0.0
1008.3832,263.28833,78924854,0.83750004,0.08510638,-233.61996,-257.42047,-0.037965298,0.0024704933,0.016713142,-1.3505387E-4,6.752693E-5,0.0
1004.49426,257.90845,78924871,0.83750004,0.10638297,-257.95514,-160.48558,-0.037965298,0.0024704933,0.016713142,-1.3505387E-4,6.752693E-5,0.0
998.7258,252.27625,78924888,0.83750004,0.10638297,-334.4902,-171.83629,-0.037965298,0.0024704933,0.016713142,-1.3505387E-4,6.752693E-5,0.0
991.438,248.547,78924904,0.83750004,0.12765957,-459.57678,-195.69244,-0.037965298,0.0024704933,0.016713142,3.6294656E-5,-2.4196437E-5,0.0
983.0867,246.75342,78924921,0.83750004,0.12765957,-566.65283,-137.76482,-0.037965298,0.0024704933,0.016713142,3.6294656E-5,-2.4196437E-5,0.0
974.2565,246.88025,78924938,0.8625,0.12765957,-622.63544,-14.491479,-0.037965298,0.0024704933,0.016713142,3.6294656E-5,-2.4196437E-5,0.0
962.8845,247.95837,78924955,0.8625,0.09574468,-681.5156,126.157234,-0.037965298,0.0024704933,0.016713142,3.6294656E-5,-2.4196437E-5,0.0
950.48334,252.29346,78924971,0.8625,0.08510638,-769.3983,268.646,-0.037965298,0.0024704933,0.016713142,-3.3386226E-5,1.1128742E-5,0.0
937.0052,259.12244,78924988,0.85,0.08510638,-865.8508,429.72296,-0.037965298,0.0024704933,0.016713142,-3.3386226E-5,1.1128742E-5,0.0
921.74036,268.3219,78925005,0.83750004,0.09574468,-939.698,606.014,-0.037965298,0.0024704933,0.016713142,-3.3386226E-5,1.1128742E-5,0.0
905.1062,279.38513,78925021,0.8625,0.09574468,-1025.1748,771.6552,-0.037965298,0.0024704933,0.016713142,-3.3386226E-5,1.1128742E-5,0.0
888.36346,292.2046,78925038,0.85,0.12765957,-1078.1608,853.5952,-0.037965298,0.0024704933,0.016713142,3.0011981E-5,0.0,0.0
872.1676,306.7483,78925055,0.8625,0.09574468,-1070.4387,935.657,-0.037965298,0.0024704933,0.016713142,3.0011981E-5,0.0,0.0
855.95044,322.5326,78925072,0.83750004,0.07446808,-999.35034,1005.4896,-0.037965298,0.0024704933,0.016713142,3.0011981E-5,0.0,0.0
842.76337,337.14062,78925088,0.8625,0.10638297,-880.96,1015.53326,-0.037965298,0.0024704933,0.016713142,3.0011981E-5,0.0,0.0
826.75385,362.30554,78925105,0.85,0.08510638,-838.1971,1194.2836,-0.1823721,0.081976414,-0.010629654,3.613921E-5,0.0,0.0
816.36633,381.6587,78925122,0.83750004,0.08510638,-762.7221,1430.3627,-0.1823721,0.081976414,-0.010629654,3.613921E-5,0.0,0.0
806.92126,401.25464,78925138,0.83750004,0.11702127,-592.01794,1429.0074,-0.1823721,0.081976414,-0.010629654,3.613921E-5,0.0,0.0
797.9749,420.75916,78925155,0.825,0.07446808,-466.38022,1319.7699,-0.1823721,0.081976414,-0.010629654,3.613921E-5,0.0,0.0
790.9923,435.5359,78925172,0.83750004,0.08510638,-366.35913,1033.4678,-0.1823721,0.081976414,-0.010629654,3.355443E-6,0.0,0.0
785.265,451.292,78925189,0.85,0.10638297,-278.7944,817.9008,-0.1823721,0.081976414,-0.010629654,3.355443E-6,0.0,0.0
780.28705,466.11572,78925205,0.83750004,0.08510638,-247.74529,801.3296,-0.1823721,0.081976414,-0.010629654,3.355443E-6,0.0,0.0
776.9023,480.41357,78925222,0.83750004,0.06382979,-159.6419,780.3194,-0.1823721,0.081976414,-0.010629654,3.355443E-6,0.0,0.0
774.3752,490.68762,78925239,0.83750004,0.08510638,-98.19893,699.6024,-0.1823721,0.081976414,-0.010629654,0.0,0.0,0.0
772.07275,501.8119,78925255,0.825,0.12765957,-70.32176,580.15216,-0.1823721,0.081976414,-0.010629654,0.0,0.0,0.0
770.0029,512.2064,78925272,0.825,0.10638297,-55.82588,510.15796,-0.1823721,0.081976414,-0.010629654,0.0,0.0,0.0
768.3259,521.44385,78925289,0.85,0.08510638,-73.160126,491.66455,-0.1823721,0.081976414,-0.010629654,0.0,0.0,0.0
766.7642,529.99304,78925306,0.83750004,0.07446808,-80.5175,494.60846,-0.1823721,0.081976414,-0.010629654,1.342177E-5,0.0,0.0
765.71857,537.49207,78925322,0.83750004,0.07446808,-61.32541,451.52228,-0.1823721,0.081976414,-0.010629654,1.342177E-5,0.0,0.0
765.22876,543.01636,78925339,0.825,0.08510638,-33.93675,349.47275,-0.1823721,0.081976414,-0.010629654,1.342177E-5,0.0,0.0
765.22876,547.51,78925356,0.83750004,0.10638297,6.739962,255.99292,-0.1823721,0.081976414,-0.010629654,1.342177E-5,0.0,0.0
765.34894,552.95264,78925372,0.83750004,0.12765957,31.59261,214.38629,-0.1823721,0.081976414,-0.010629654,0.0,0.0,0.0
766.2284,556.6498,78925389,0.825,0.12765957,62.710007,189.9705,-0.1823721,0.081976414,-0.010629654,0.0,0.0,0.0
766.2284,561.2451,78925406,0.825,0.12765957,55.167942,209.28105,-0.1823721,0.081976414,-0.010629654,0.0,0.0,0.0
766.4707,564.93726,78925422,0.825,0.10638297,22.05726,221.97212,-0.1823721,0.081976414,-0.010629654,0.0,0.0,0.0
766.9887,568.5558,78925439,0.825,0.10638297,17.210983,206.86667,-0.1823721,0.081976414,-0.010629654,0.0,0.0,0.0
767.52966,572.2561,78925456,0.825,0.08510638,21.389288,206.51543,-0.1823721,0.081976414,-0.010629654,0.0,0.0,0.0
768.2278,575.8762,78925473,0.825,0.07446808,48.21594,198.15694,-0.1823721,0.081976414,-0.010629654,0.0,0.0,0.0
768.7276,579.59656,78925489,0.8125,0.06382979,48.686333,205.80598,-0.1823721,0.081976414,-0.010629654,0.0,0.0,0.0
769.4773,581.40186,78925504,0.825,0.06382979,44.65487,192.8805,-0.1823721,0.081976414,-0.010629654,0.0,0.0,0.0
770.47754,584.735,78925523,0.825,0.06382979,48.04233,143.33325,-0.1823721,0.081976414,-0.010629654,0.0,0.0,0.0
771.6412,587.02515,78925539,0.83750004,0.06382979,68.25346,129.73444,-0.1823721,0.081976414,-0.010629654,0.0,0.0,0.0
772.22644,590.1199,78925556,0.83750004,0.06382979,66.96336,132.745,-0.1823721,0.081976414,-0.010629654,0.0,0.0,0.0
772.9937,591.2063,78925573,0.83750004,0.06382979,51.8455,123.48811,-0.1823721,0.081976414,-0.010629654,0.0,0.0,0.0
773.8855,593.9636,78925590,0.83750004,0.06382979,38.233902,114.682915,-0.1823721,0.081976414,-0.010629654,0.0,0.0,0.0
774.2258,595.6179,78925606,0.83750004,0.06382979,26.378862,99.11657,-0.1823721,0.081976414,-0.010629654,0.0,0.0,0.0
775.4483,597.34656,78925623,0.83750004,0.08510638,45.073112,108.00226,-0.1823721,0.081976414,-0.010629654,0.0,0.0,0.0
775.72534,597.839,78925640,0.83750004,0.08510638,45.22913,73.92795,-0.017897844,-0.030418634,-0.07250404,3.355443E-6,0.0,0.0
776.725,598.72754,78925656,0.83750004,0.08510638,43.40806,32.191696,-0.017897844,-0.030418634,-0.07250404,3.355443E-6,0.0,0.0
777.55676,600.20605,78925673,0.85,0.08510638,43.862183,17.08041,-0.017897844,-0.030418634,-0.07250404,3.355443E-6,0.0,0.0
778.59,601.39307,78925690,0.85,0.08510638,55.570408,59.019226,-0.017897844,-0.030418634,-0.07250404,3.355443E-6,0.0,0.0
779.57574,602.2816,78925707,0.85,0.08510638,66.79724,76.134796,-0.017897844,-0.030418634,-0.07250404,0.0,0.0,0.0
780.66833,603.17004,78925723,0.875,0.08510638,73.164825,71.44286,-0.017897844,-0.030418634,-0.07250404,0.0,0.0,0.0
781.2235,603.17004,78925740,0.85,0.09574468,58.20825,16.500874,-0.017897844,-0.030418634,-0.07250404,0.0,0.0,0.0
782.2335,603.17004,78925757,0.8625,0.09574468,45.605747,-19.992304,-0.017897844,-0.030418634,-0.07250404,0.0,0.0,0.0
782.75653,603.17004,78925773,0.8625,0.09574468,36.043137,-23.938759,-0.017897844,-0.030418634,-0.07250404,0.0,0.0,0.0
783.8291,604.0586,78925790,0.875,0.09574468,41.991478,4.465798,-0.017897844,-0.030418634,-0.07250404,0.0,0.0,0.0
784.22253,604.0586,78925807,0.8625,0.09574468,40.778656,19.083975,-0.017897844,-0.030418634,-0.07250404,0.0,0.0,0.0
784.90247,604.37866,78925824,0.875,0.09574468,35.168613,19.83648,-0.017897844,-0.030418634,-0.07250404,3.355443E-6,0.0,0.0
785.84344,606.0514,78925840,0.875,0.09574468,43.738636,55.766018,-0.017897844,-0.030418634,-0.07250404,3.355443E-6,0.0,0.0
785.72205,606.7241,78925861,0.875,0.09574468,19.277552,71.83808,-0.017897844,-0.030418634,-0.07250404,3.355443E-6,0.0,0.0
785.72205,606.7241,78925924,0.8875,0.10638297,0.043672122,0.040201783,-0.017897844,-0.030418634,-0.07250404,0.0,0.0,0.0
786.15765,606.7241,78925940,0.875,0.09574468,34.119564,-0.01780224,-0.017897844,-0.030418634,-0.07250404,0.0,0.0,0.0
786.2219,606.7241,78925957,0.90000004,0.10638297,20.791176,-0.014605555,-0.017897844,-0.030418634,-0.07250404,0.0,0.0,0.0
786.9717,606.7241,78925970,0.8875,0.12765957,41.594936,-0.05249659,-0.017897844,-0.030418634,-0.07250404,1.5005995E-5,-7.5029975E-6,0.0
786.72174,606.7241,78925989,0.8875,0.10638297,18.193983,-0.0226783,-0.017897844,-0.030418634,-0.07250404,1.5005995E-5,-7.5029975E-6,0.0
786.8341,606.9238,78926007,0.8875,0.12765957,4.637159,2.6663024,-0.017897844,-0.030418634,-0.07250404,1.5005995E-5,-7.5029975E-6,0.0
787.86926,608.7639,78926024,0.8875,0.12765957,21.938652,56.571915,-0.017897844,-0.030418634,-0.07250404,1.5005995E-5,-7.5029975E-6,0.0
788.97095,608.5011,78926074,0.90000004,0.12765957,22.638475,-25.28975,-0.017897844,-0.030418634,-0.07250404,0.0,0.0,0.0
790.07495,608.5011,78926108,0.90000004,0.12765957,38.605698,-9.653152,-0.017897844,-0.030418634,-0.07250404,0.0,0.0,0.0
790.47046,608.5011,78926114,0.90000004,0.10638297,51.339905,1.2156689,-0.017897844,-0.030418634,-0.07250404,0.0,0.0,0.0
791.6902,608.5011,78926158,0.9125,0.10638297,25.661205,0.003079569,-0.017897844,-0.030418634,-0.07250404,0.0,0.0,0.0
792.23126,608.5011,78926174,0.8875,0.10638297,32.403564,-0.019196035,0.025681734,0.023664951,0.005996704,0.0,0.0,0.0
793.27045,608.5011,78926191,0.90000004,0.10638297,52.336674,0.029227048,0.025681734,0.023664951,0.005996704,0.0,0.0,0.0
794.3092,608.5011,78926208,0.90000004,0.10638297,72.685844,-0.00887694,0.025681734,0.023664951,0.005996704,0.0,0.0,0.0
795.319,608.5011,78926225,0.875,0.08510638,68.79799,-0.027937016,0.025681734,0.023664951,0.005996704,0.0,0.0,0.0
796.3763,607.3324,78926241,0.875,0.09574468,69.31275,-26.669672,0.025681734,0.023664951,0.005996704,0.0,0.0,0.0
798.12573,605.47327,78926258,0.8625,0.09574468,83.16376,-89.50313,0.025681734,0.023664951,0.005996704,0.0,0.0,0.0
800.2082,603.62244,78926275,0.85,0.09574468,119.31677,-150.4274,0.025681734,0.023664951,0.005996704,0.0,0.0,0.0
802.28455,601.7771,78926291,0.8125,0.08510638,147.9901,-161.23929,0.025681734,0.023664951,0.005996704,0.0,0.0,0.0
805.9945,598.4796,78926308,0.83750004,0.08510638,192.96358,-172.1212,0.025681734,0.023664951,0.005996704,0.0,0.0,0.0
810.05023,594.8749,78926325,0.825,0.07446808,250.00229,-209.64636,0.025681734,0.023664951,0.005996704,0.0,0.0,0.0
813.40283,591.89514,78926342,0.825,0.07446808,264.92792,-235.38875,0.025681734,0.023664951,0.005996704,0.0,0.0,0.0
817.8262,586.8772,78926358,0.825,0.08510638,270.32056,-268.08057,0.025681734,0.023664951,0.005996704,-1.0820965E-4,0.0,0.0
823.9325,580.3645,78926375,0.825,0.09574468,316.15414,-349.5545,0.025681734,0.023664951,0.005996704,-1.0820965E-4,0.0,0.0
829.3791,573.94275,78926392,0.825,0.10638297,363.82434,-430.6497,0.025681734,0.023664951,0.005996704,-1.0820965E-4,0.0,0.0
836.78296,565.1687,78926408,0.8125,0.09574468,430.39313,-520.96356,0.025681734,0.023664951,0.005996704,-1.0820965E-4,0.0,0.0
842.33295,555.8496,78926425,0.8125,0.07446808,433.7306,-596.6261,0.025681734,0.023664951,0.005996704,-1.0820965E-4,0.0,0.0
848.7016,546.75,78926441,0.8125,0.08510638,388.2778,-596.89856,0.025681734,0.023664951,0.005996704,-4.885594E-5,0.0,0.0
855.74603,535.95337,78926458,0.825,0.09574468,405.59116,-671.7606,0.025681734,0.023664951,0.005996704,-4.885594E-5,0.0,0.0
861.2378,527.46924,78926475,0.8125,0.12765957,389.65546,-655.60925,0.025681734,0.023664951,0.005996704,-4.885594E-5,0.0,0.0
869.5152,516.4437,78926492,0.825,0.12765957,435.93427,-643.71375,0.025681734,0.023664951,0.005996704,-3.613921E-5,0.0,0.0
880.10144,502.87585,78926509,0.8125,0.08510638,568.44855,-739.4547,0.025681734,0.023664951,0.005996704,-3.613921E-5,0.0,0.0
895.1165,485.97046,78926525,0.8,0.07446808,799.7573,-914.44135,0.025681734,0.023664951,0.005996704,-3.613921E-5,0.0,0.0
912.51886,466.03955,78926542,0.7875,0.12765957,1078.2574,-1198.515,0.025681734,0.023664951,0.005996704,-3.613921E-5,0.0,0.0
936.37384,442.734,78926559,0.8,0.06382979,1375.7098,-1429.5238,0.025681734,0.023664951,0.005996704,-2.4196437E-5,0.0,0.0
959.166,422.9403,78926575,0.8,0.09574468,1656.6771,-1541.6433,0.025681734,0.023664951,0.005996704,4.7453127E-6,0.0,0.0
989.78894,402.58545,78926592,0.8,0.12765957,1853.1606,-1419.9001,0.025681734,0.023664951,0.005996704,4.7453127E-6,0.0,0.0
1014.2031,391.2931,78926609,0.8125,0.08510638,1887.0875,-1054.0602,0.025681734,0.023664951,0.005996704,4.7453127E-6,0.0,0.0
1040.3044,383.17175,78926626,0.8,0.06382979,1715.8804,-500.16104,0.025681734,0.023664951,0.005996704,-3.355443E-6,0.0,0.0
1061.6394,382.8213,78926642,0.8125,0.07446808,1457.0754,5.0577374,0.025681734,0.023664951,0.005996704,-3.355443E-6,0.0,0.0
1081.5758,384.88953,78926659,0.8,0.09574468,1210.862,355.40717,0.025681734,0.023664951,0.005996704,-3.355443E-6,0.0,0.0
1093.7709,388.84656,78926676,0.8125,0.09574468,815.0137,550.0529,0.025681734,0.023664951,0.005996704,-3.355443E-6,0.0,0.0
1099.7605,391.19727,78926692,0.85,0.09574468,370.0534,440.21667,0.17254543,-0.25306797,-0.011202812,0.0,0.0,0.0
1101.336,393.36487,78926709,0.875,0.12765957,-27.184126,334.32034,0.17254543,-0.25306797,-0.011202812,0.0,0.0,0.0
1101.2877,397.0327,78926726,0.90000004,0.12765957,-306.26788,184.04596,0.17254543,-0.25306797,-0.011202812,0.0,0.0,0.0
1098.1932,401.22437,78926743,0.875,0.11702127,-409.5859,210.14267,0.17254543,-0.25306797,-0.011202812,0.0,0.0,0.0
1082.869,413.34216,78926759,0.85,0.09574468,-669.82556,448.45364,0.17254543,-0.25306797,-0.011202812,1.1565268E-4,1.1565268E-4,0.0
1041.5529,439.1986,78926776,0.85,0.08510638,-1854.976,1213.3019,0.17254543,-0.25306797,-0.011202812,1.1565268E-4,1.1565268E-4,0.0
996.29565,461.7483,78926793,0.85,0.10638297,-3100.2905,1766.7948,0.17254543,-0.25306797,-0.011202812,1.1565268E-4,1.1565268E-4,0.0
956.99915,482.42993,78926809,0.85,0.06382979,-3406.7751,1746.4988,0.17254543,-0.25306797,-0.011202812,1.1565268E-4,1.1565268E-4,0.0
919.7855,500.68982,78926826,0.8625,0.12765957,-3132.741,1507.6847,0.17254543,-0.25306797,-0.011202812,0.0,-0.0,0.0
891.18646,515.45764,78926843,0.8625,0.10638297,-2237.1638,1007.9875,0.17254543,-0.25306797,-0.011202812,0.0,-0.0,0.0
870.8015,524.9784,78926860,0.8625,0.09574468,-1382.5973,635.64746,0.17254543,-0.25306797,-0.011202812,0.0,-0.0,0.0
857.96356,532.8214,78926876,0.85,0.07446808,-730.26794,376.1314,0.17254543,-0.25306797,-0.011202812,0.0,-0.0,0.0
852.40643,537.0967,78926893,0.875,0.06382979,-89.98628,112.64665,0.17254543,-0.25306797,-0.011202812,-4.7453127E-6,-4.7453127E-6,0.0
850.2328,539.5575,78926910,0.8625,0.06382979,263.9137,-8.244897,0.17254543,-0.25306797,-0.011202812,-4.7453127E-6,-4.7453127E-6,0.0
849.9512,543.6404,78926926,0.8625,0.08510638,340.4753,16.804953,0.17254543,-0.25306797,-0.011202812,-4.7453127E-6,-4.7453127E-6,0.0
852.94965,546.9717,78926943,0.83750004,0.09574468,371.5945,81.04266,0.17254543,-0.25306797,-0.011202812,-4.7453127E-6,-4.7453127E-6,0.0
868.82404,555.34485,78926960,0.8625,0.12765957,710.69696,309.7534,0.17254543,-0.25306797,-0.011202812,0.0,0.0,0.0
891.7282,562.75305,78926977,0.8625,0.10638297,1346.3682,507.2828,0.17254543,-0.25306797,-0.011202812,0.0,0.0,0.0
914.9162,567.22766,78926993,0.85,0.12765957,1841.3618,481.75604,0.17254543,-0.25306797,-0.011202812,0.0,0.0,0.0
935.3013,571.0209,78927010,0.85,0.09574468,1839.6144,333.4212,0.17254543,-0.25306797,-0.011202812,0.0,0.0,0.0
953.8561,574.77734,78927027,0.83750004,0.11702127,1437.9907,164.31677,0.17254543,-0.25306797,-0.011202812,-1.1128744E-5,1.1128744E-5,0.0
966.203,576.6022,78927043,0.825,0.09574468,941.126,78.76612,0.17254543,-0.25306797,-0.011202812,-1.1128744E-5,1.1128744E-5,0.0
975.8635,580.3815,78927060,0.83750004,0.07446808,577.00836,130.85631,0.17254543,-0.25306797,-0.011202812,-1.1128744E-5,1.1128744E-5,0.0
982.474,584.10645,78927077,0.825,0.06382979,293.10095,183.25626,0.17254543,-0.25306797,-0.011202812,-1.1128744E-5,1.1128744E-5,0.0
986.4475,587.87964,78927093,0.825,0.06382979,63.73047,219.22495,0.17254543,-0.25306797,-0.011202812,0.0,0.0,0.0
989.07117,589.323,78927110,0.825,0.06382979,-21.602764,190.93768,0.17254543,-0.25306797,-0.011202812,0.0,0.0,0.0
991.1494,591.17004,78927127,0.85,0.06382979,-13.632662,101.115295,0.17254543,-0.25306797,-0.011202812,0.0,0.0,0.0
992.4398,591.6195,78927144,0.8625,0.06382979,-1.9242886,23.620846,0.17254543,-0.25306797,-0.011202812,0.0,0.0,0.0
993.4756,591.6195,78927160,0.875,0.06382979,1.9829102,-36.874874,0.17254543,-0.25306797,-0.011202812,-1.3654621E-4,6.8273104E-5,0.0
993.6544,591.6195,78927177,0.875,0.06382979,-13.71998,-53.557964,0.17254543,-0.25306797,-0.011202812,-1.3654621E-4,6.8273104E-5,0.0
993.6544,591.6195,78927192,0.875,0.06382979,-29.075356,-47.839787,0.17254543,-0.25306797,-0.011202812,-1.3654621E-4,6.8273104E-5,0.0
994.1542,591.6195,78927210,0.8875,0.06382979,-22.049006,-26.136604,0.17254543,-0.25306797,-0.011202812,-1.3654621E-4,6.8273104E-5,0.0
994.1542,591.6195,78927224,0.8875,0.06382979,-13.096973,-4.4185247,0.034036398,-0.11445451,-0.04096222,1.5005995E-5,-7.5029975E-6,0.0
994.1542,591.6195,78927260,0.875,0.06382979,-1.1979313,0.025788503,0.034036398,-0.11445451,-0.04096222,1.5005995E-5,-7.5029975E-6,0.0
994.74854,591.6195,78927277,0.8875,0.06382979,3.463722,0.012163714,0.034036398,-0.11445451,-0.04096222,1.5005995E-5,-7.5029975E-6,0.0
995.28186,591.6195,78927294,0.8875,0.06382979,41.705235,0.044379245,0.034036398,-0.11445451,-0.04096222,0.0,0.0,0.0
996.32214,591.6195,78927311,0.875,0.06382979,64.88114,-0.016256763,0.034036398,-0.11445451,-0.04096222,0.0,0.0,0.0
997.36804,592.50806,78927327,0.85,0.06382979,74.15971,42.240963,0.034036398,-0.11445451,-0.04096222,0.0,0.0,0.0
999.162,593.3965,78927344,0.83750004,0.06382979,98.03136,67.34569,0.034036398,-0.11445451,-0.04096222,0.0,0.0,0.0
1001.50867,593.90405,78927361,0.825,0.06382979,133.3905,63.13252,0.034036398,-0.11445451,-0.04096222,0.0,0.0,0.0
1004.9802,595.76416,78927378,0.825,0.06382979,199.62497,87.09955,0.034036398,-0.11445451,-0.04096222,0.0,0.0,0.0
1008.0803,596.062,78927394,0.83750004,0.07446808,235.23384,75.0628,0.034036398,-0.11445451,-0.04096222,0.0,0.0,0.0
1011.7196,596.062,78927411,0.83750004,0.07446808,247.3519,29.007856,0.034036398,-0.11445451,-0.04096222,0.0,0.0,0.0
1014.9,596.80396,78927428,0.825,0.08510638,225.9612,-0.17258619,0.034036398,-0.11445451,-0.04096222,3.355443E-6,0.0,0.0
1018.61304,597.8242,78927444,0.8125,0.09574468,215.80693,7.8982654,0.034036398,-0.11445451,-0.04096222,3.355443E-6,0.0,0.0
1023.824,597.839,78927461,0.8125,0.08510638,263.80984,33.869118,0.034036398,-0.11445451,-0.04096222,3.355443E-6,0.0,0.0
1029.0363,598.72754,78927478,0.8,0.07446808,325.87354,56.67874,0.034036398,-0.11445451,-0.04096222,3.355443E-6,0.0,0.0
1034.7509,598.72754,78927495,0.8125,0.06382979,376.97043,24.393103,0.034036398,-0.11445451,-0.04096222,-1.5005995E-5,0.0,0.0
1040.4629,598.4835,78927511,0.8,0.06382979,396.61688,-11.460345,0.034036398,-0.11445451,-0.04096222,-1.5005995E-5,0.0,0.0
1047.0658,596.71484,78927528,0.8,0.06382979,400.30167,-70.14527,0.034036398,-0.11445451,-0.04096222,-1.5005995E-5,0.0,0.0
1055.8232,595.6869,78927545,0.8,0.06382979,471.7771,-113.059494,0.034036398,-0.11445451,-0.04096222,-1.5005995E-5,0.0,0.0
1066.6686,592.0469,78927561,0.7875,0.07446808,604.8682,-171.82442,0.034036398,-0.11445451,-0.04096222,4.2707805E-5,-4.2707805E-5,0.0
1080.9669,585.3502,78927578,0.7875,0.09574468,823.8827,-334.9817,0.034036398,-0.11445451,-0.04096222,4.2707805E-5,-4.2707805E-5,0.0
1097.3809,577.9542,78927595,0.8,0.09574468,1036.9591,-500.56216,0.034036398,-0.11445451,-0.04096222,4.2707805E-5,-4.2707805E-5,0.0
1118.689,566.7838,78927612,0.7875,0.12765957,1252.3398,-681.4656,0.034036398,-0.11445451,-0.04096222,4.2707805E-5,-4.2707805E-5,0.0
1141.9976,554.80444,78927628,0.8,0.08510638,1493.5542,-804.31134,0.034036398,-0.11445451,-0.04096222,-2.4196437E-5,0.0,0.0
1163.2057,541.84155,78927645,0.77500004,0.06382979,1524.5786,-861.0548,0.034036398,-0.11445451,-0.04096222,-2.4196437E-5,0.0,0.0
1185.6259,527.6262,78927662,0.77500004,0.11702127,1505.3693,-945.8951,0.034036398,-0.11445451,-0.04096222,-2.4196437E-5,0.0,0.0
1200.6149,516.5831,78927678,0.7875,0.10638297,1204.2113,-862.51337,0.034036398,-0.11445451,-0.04096222,-2.4196437E-5,0.0,0.0
1210.1033,508.46143,78927695,0.8,0.08510638,740.70593,-643.77966,0.034036398,-0.11445451,-0.04096222,0.0,0.0,0.0
1213.2938,502.20715,78927712,0.8,0.08510638,228.12202,-401.38364,0.034036398,-0.11445451,-0.04096222,0.0,0.0,0.0
1214.5825,497.43823,78927724,0.8125,0.06382979,-92.60764,-264.87442,0.034036398,-0.11445451,-0.04096222,0.0,0.0,0.0
1210.3099,489.68274,78927745,0.83750004,0.07446808,-468.87253,-217.88474,0.034036398,-0.11445451,-0.04096222,0.0,0.0,0.0
1179.9818,474.74365,78927762,0.85,0.08510638,-1262.4238,-556.34143,-0.06077099,0.028436422,0.015230179,0.0,0.0,0.0
1134.1505,459.9469,78927779,0.825,0.12765957,-2640.9104,-922.0996,-0.06077099,0.028436422,0.015230179,0.0,0.0,0.0
1049.0967,453.8103,78927795,0.83750004,0.12765957,-4936.2217,-867.16364,-0.06077099,0.028436422,0.015230179,0.0,0.0,0.0
958.2036,453.84644,78927812,0.875,0.12765957,-6342.309,-372.5908,-0.06077099,0.028436422,0.015230179,0.0,0.0,0.0
862.85657,461.386,78927829,0.8625,0.10638297,-6956.997,432.63052,-0.06077099,0.028436422,0.015230179,7.227842E-5,-3.613921E-5,0.0
757.91315,473.72205,78927845,0.83750004,0.10638297,-7058.44,950.7691,-0.06077099,0.028436422,0.015230179,7.227842E-5,-3.613921E-5,0.0
650.6664,492.17615,78927862,0.8625,0.08510638,-6666.108,1299.8805,-0.06077099,0.028436422,0.015230179,7.227842E-5,-3.613921E-5,0.0
526.20435,511.4679,78927879,0.8,0.11702127,-7238.806,1490.9625,-0.06077099,0.028436422,0.015230179,7.227842E-5,-3.613921E-5,0.0
387.5296,538.7125,78927896,0.65000004,0.06382979,-8456.725,1756.2666,-0.06077099,0.028436422,0.015230179,0.0,-0.0,0.0
336.8682,543.6404,78927906,0.45000002,0.08510638,-8262.86,1645.8687,-0.06077099,0.028436422,0.015230179,0.0,-0.0,0.0
336.8682,543.6404,78927912,0.45000002,0.08510638,-8262.86,1645.8687,-0.06077099,0.028436422,0.015230179,0.0,-0.0,0.0
