x,y,timestamp,pressure,fingerarea,velocityx,velocityy,accelx,accely,accelz,gyrox,gyroy,gyroz
170.42238,192.68152,130388792,0.925,0.10638297,0.0,0.0,-0.009836733,0.009648353,0.007953644,0.0,0.0,0.0
170.42238,192.68152,130388810,0.96250004,0.10638297,-0.036984075,-0.045004543,-0.009836733,0.009648353,0.007953644,0.0,0.0,0.0
170.42238,192.68152,130388826,1.0125,0.10638297,0.001766623,0.0016260153,-0.009836733,0.009648353,0.007953644,0.0,0.0,0.0
170.42238,192.68152,130388843,1.0,0.10638297,-0.0075726,-0.0079989545,-0.009836733,0.009648353,0.007953644,0.0,0.0,0.0
196.0198,187.77136,130388860,0.8875,0.12765957,1074.1646,-202.6406,-0.009836733,0.009648353,0.007953644,0.0,0.0,0.0
227.23837,183.08069,130388877,0.90000004,0.10638297,2017.6869,-348.92688,-0.009836733,0.009648353,0.007953644,0.0,0.0,0.0
266.1394,176.89075,130388893,0.875,0.11702127,2922.2664,-469.48535,-0.009836733,0.009648353,0.007953644,0.0,0.0,0.0
310.85873,166.56787,130388910,0.875,0.08510638,3348.6633,-598.2025,-0.009836733,0.009648353,0.007953644,0.0,0.0,0.0
358.70407,152.27295,130388927,0.875,0.08510638,3216.4443,-813.8025,-0.009836733,0.009648353,0.007953644,0.0,0.0,0.0
410.17642,138.12122,130388943,0.83750004,0.09574468,3341.3909,-1001.91864,-0.009836733,0.009648353,0.007953644,0.0,0.0,0.0
459.57275,127.780396,130388960,0.7875,0.10638297,3335.586,-967.8397,-0.009836733,0.009648353,0.007953644,0.0,0.0,0.0
497.4405,122.31482,130388977,0.7875,0.09574468,2841.759,-607.92126,-0.009836733,0.009648353,0.007953644,0.0,0.0,0.0
526.1293,119.66565,130388994,0.75,0.09574468,2028.5973,-166.89195,-0.009836733,0.009648353,0.007953644,0.0,0.0,0.0
541.04456,118.93579,130389010,0.625,0.08510638,1002.85266,130.4577,-0.009836733,0.009648353,0.007953644,0.0,0.0,0.0
541.80145,118.93579,130389016,0.16250001,0.06382979,563.3469,202.0242,-0.009836733,0.009648353,0.007953644,0.0,0.0,0.0
541.80145,118.93579,130389023,0.16250001,0.06382979,563.3469,202.0242,-0.009836733,0.009648353,0.007953644,0.0,0.0,0.0
211.40903,317.07202,130389443,0.7,0.08510638,0.0,0.0,1.3062358E-4,-0.032281324,-0.0896368,0.0,0.0,0.0
211.40903,317.07202,130389461,0.85,0.08510638,-0.05332645,-0.07753554,1.3062358E-4,-0.032281324,-0.0896368,0.0,0.0,0.0
211.40903,317.07202,130389478,1.0,0.08510638,0.009333818,0.012884541,1.3062358E-4,-0.032281324,-0.0896368,0.0,0.0,0.0
211.40903,317.07202,130389495,1.0375,0.08510638,0.009094261,0.013157639,1.3062358E-4,-0.032281324,-0.0896368,0.0,0.0,0.0
223.95654,312.34082,130389512,1.025,0.10638297,472.22394,-178.09422,1.3062358E-4,-0.032281324,-0.0896368,0.0,0.0,0.0
242.40225,306.5868,130389528,0.95,0.10638297,1077.9642,-374.9509,1.3062358E-4,-0.032281324,-0.0896368,0.0,0.0,0.0
267.52945,302.5415,130389545,0.9125,0.10638297,1725.8094,-451.4705,1.3062358E-4,-0.032281324,-0.0896368,0.0,0.0,0.0
297.9629,298.17566,130389562,0.875,0.10638297,2179.7456,-382.42447,1.3062358E-4,-0.032281324,-0.0896368,0.0,0.0,0.0
332.31207,291.71863,130389578,0.8875,0.10638297,2391.182,-331.7547,1.3062358E-4,-0.032281324,-0.0896368,0.0,0.0,0.0
372.6134,282.964,130389595,0.8625,0.11702127,2536.8232,-399.05515,1.0450184E-4,0.03017494,-0.007709503,0.0,0.0,0.0
410.9343,272.62158,130389612,0.825,0.08510638,2656.8875,-625.2296,1.0450184E-4,0.03017494,-0.007709503,0.0,0.0,0.0
447.28607,262.4696,130389629,0.825,0.08510638,2531.4326,-740.854,1.0450184E-4,0.03017494,-0.007709503,0.0,0.0,0.0
477.29486,256.19934,130389645,0.8125,0.08510638,2137.9429,-623.0349,1.0450184E-4,0.03017494,-0.007709503,0.0,0.0,0.0
499.3109,252.65625,130389662,0.825,0.09574468,1521.3595,-352.10165,1.0450184E-4,0.03017494,-0.007709503,0.0,0.0,0.0
513.60297,250.12097,130389679,0.8125,0.10638297,854.6873,-93.14448,1.0450184E-4,0.03017494,-0.007709503,0.0,0.0,0.0
521.3054,248.30286,130389695,0.8,0.11702127,305.1394,41.780495,1.0450184E-4,0.03017494,-0.007709503,0.0,0.0,0.0
524.2947,247.7688,130389712,0.7375,0.11702127,-111.02102,36.59764,1.0450184E-4,0.03017494,-0.007709503,0.0,0.0,0.0
524.807,247.7688,130389716,0.6375,0.11702127,-181.27768,49.491814,1.0450184E-4,0.03017494,-0.007709503,0.0,0.0,0.0
524.807,247.7688,130389724,0.6375,0.11702127,-181.27768,49.491814,1.0450184E-4,0.03017494,-0.007709503,0.0,0.0,0.0
293.38235,77.17615,130390256,0.95,0.10638297,0.0,0.0,8.3610415E-5,0.008139938,0.009833336,0.0,0.0,0.0
293.38235,77.17615,130390280,1.1,0.12765957,0.013313093,0.0043036207,8.3610415E-5,0.008139938,0.009833336,0.0,0.0,0.0
293.38235,77.17615,130390297,1.1125001,0.12765957,-0.020569883,-0.0047511593,8.3610415E-5,0.008139938,0.009833336,0.0,0.0,0.0
293.38235,77.17615,130390314,1.0375,0.10638297,0.018816648,0.0046029384,8.3610415E-5,0.008139938,0.009833336,0.0,0.0,0.0
292.49313,135.99292,130390330,0.925,0.09574468,-47.302467,2531.6743,8.3610415E-5,0.008139938,0.009833336,0.0,0.0,0.0
294.70285,186.51611,130390347,0.9125,0.10638297,39.61617,3722.1494,8.3610415E-5,0.008139938,0.009833336,0.0,0.0,0.0
298.80164,245.20825,130390364,0.925,0.12765957,193.2339,4536.2134,8.3610415E-5,0.008139938,0.009833336,0.0,0.0,0.0
301.69473,304.24402,130390380,0.925,0.12765957,306.8432,4378.0366,8.3610415E-5,0.008139938,0.009833336,0.0,0.0,0.0
302.68915,360.11792,130390397,0.925,0.12765957,236.68611,3847.0627,8.3610415E-5,0.008139938,0.009833336,0.0,0.0,0.0
304.0786,410.89136,130390414,0.925,0.12765957,74.699776,3556.9717,8.3610415E-5,0.008139938,0.009833336,0.0,0.0,0.0
305.2648,450.0636,130390431,0.95,0.10638297,9.182309,2786.68,8.3610415E-5,0.008139938,0.009833336,0.0,0.0,0.0
307.73175,484.4425,130390447,0.95,0.08510638,60.097702,1823.2979,8.3610415E-5,0.008139938,0.009833336,0.0,0.0,0.0
310.31982,507.44153,130390464,0.925,0.12765957,147.57611,1271.6703,8.3610415E-5,0.008139938,0.009833336,0.0,0.0,0.0
313.81207,524.6803,130390481,0.925,0.09574468,217.78926,745.7844,8.3610415E-5,0.008139938,0.009833336,0.0,0.0,0.0
317.03094,537.0879,130390497,0.9125,0.09574468,233.69089,392.743,8.3610415E-5,0.008139938,0.009833336,0.0,0.0,0.0
320.16415,543.26807,130390514,0.8875,0.08510638,226.3219,103.71711,8.3610415E-5,0.008139938,0.009833336,0.0,0.0,0.0
323.13785,544.7644,130390531,0.4875,0.10638297,201.36307,-171.34718,8.3610415E-5,0.008139938,0.009833336,0.0,0.0,0.0
323.13785,544.7644,130390537,0.4875,0.10638297,201.36307,-171.34718,8.3610415E-5,0.008139938,0.009833336,0.0,0.0,0.0
392.35013,524.09326,130391835,0.8625,0.09574468,0.0,0.0,-0.0031571984,-0.029752344,-0.02376461,0.0,0.0,0.0
392.35013,524.09326,130391851,0.96250004,0.09574468,-0.47484303,-0.6101462,-0.0031571984,-0.029752344,-0.02376461,0.0,0.0,0.0
392.35013,524.09326,130391868,1.0125,0.10638297,0.0012678828,-0.0014310797,-0.0031571984,-0.029752344,-0.02376461,0.0,0.0,0.0
392.35013,524.09326,130391884,1.0375,0.10638297,-0.0024265326,-0.0035009354,-0.0031571984,-0.029752344,-0.02376461,0.0,0.0,0.0
392.35013,524.09326,130391901,1.0,0.09574468,-0.030267717,-0.03695979,-0.0031571984,-0.029752344,-0.02376461,0.0,0.0,0.0
392.35013,524.09326,130391918,0.96250004,0.10638297,-0.021121334,-0.030384319,-0.0031571984,-0.029752344,-0.02376461,0.0,0.0,0.0
412.58878,512.9895,130391935,0.8875,0.12765957,505.8024,-278.80685,-0.0031571984,-0.029752344,-0.02376461,0.0,0.0,0.0
429.532,501.26404,130391951,0.8875,0.08510638,1255.2617,-740.36774,-0.0031571984,-0.029752344,-0.02376461,0.0,0.0,0.0
446.8158,484.1283,130391968,0.875,0.06382979,1617.9669,-1208.7964,-0.0031571984,-0.029752344,-0.02376461,0.0,0.0,0.0
459.92548,464.39062,130391985,0.8625,0.12765957,1386.9025,-1433.9049,-0.0031571984,-0.029752344,-0.02376461,0.0,0.0,0.0
477.07257,431.24475,130391999,0.875,0.08510638,1121.7252,-1843.961,-0.0031571984,-0.029752344,-0.02376461,0.0,0.0,0.0
482.08887,406.02356,130392018,0.83750004,0.12765957,506.79047,-1986.1908,-0.0031571984,-0.029752344,-0.02376461,0.0,0.0,0.0
486.29535,386.47205,130392035,0.8625,0.08510638,250.2396,-1841.6051,-0.0031571984,-0.029752344,-0.02376461,0.0,0.0,0.0
487.85498,373.489,130392051,0.8625,0.09574468,-45.4373,-1118.1555,-0.0031571984,-0.029752344,-0.02376461,0.0,0.0,0.0
488.3189,367.34436,130392068,0.90000004,0.11702127,-199.55394,-367.82977,-0.0031571984,-0.029752344,-0.02376461,0.0,0.0,0.0
488.3189,363.95288,130392085,0.8875,0.11702127,-199.48563,103.85807,-0.0031571984,-0.029752344,-0.02376461,0.0,0.0,0.0
487.1892,362.38574,130392102,0.95,0.11702127,-161.88734,295.01944,-0.0031571984,-0.029752344,-0.02376461,0.0,0.0,0.0
484.66174,364.94263,130392118,0.975,0.09574468,-172.0141,328.01044,-0.0031571984,-0.029752344,-0.02376461,0.0,0.0,0.0
479.67023,377.68945,130392135,0.96250004,0.09574468,-272.7339,627.6815,-0.0031571984,-0.029752344,-0.02376461,0.0,0.0,0.0
472.36768,392.51733,130392152,0.96250004,0.12765957,-436.77927,1049.016,-0.0031571984,-0.029752344,-0.02376461,0.0,0.0,0.0
463.1128,410.92896,130392168,0.975,0.09574468,-618.4962,1376.0919,-0.0031571984,-0.029752344,-0.02376461,0.0,0.0,0.0
455.72253,431.08545,130392185,0.975,0.08510638,-664.0371,1527.2507,-0.0031571984,-0.029752344,-0.02376461,0.0,0.0,0.0
451.65942,443.84863,130392202,0.975,0.10638297,-478.1226,1249.8947,-0.0031571984,-0.029752344,-0.02376461,0.0,0.0,0.0
450.83112,455.8556,130392219,0.96250004,0.10638297,-169.02548,874.9077,-0.0031571984,-0.029752344,-0.02376461,0.0,0.0,0.0
452.28265,466.97327,130392235,0.95,0.08510638,147.89069,560.5677,-0.0031571984,-0.029752344,-0.02376461,0.0,0.0,0.0
456.38452,478.95154,130392252,0.96250004,0.08510638,353.72238,489.07144,-0.0031571984,-0.029752344,-0.02376461,0.0,0.0,0.0
460.5291,490.86646,130392269,0.925,0.10638297,422.26028,613.61224,-0.0025257617,-0.0078018904,-0.035012245,0.0,0.0,0.0
464.7129,499.1847,130392285,0.925,0.12765957,402.83142,609.2861,-0.0025257617,-0.0078018904,-0.035012245,0.0,0.0,0.0
468.85706,507.26843,130392302,0.9375,0.12765957,340.43268,500.92795,-0.0025257617,-0.0078018904,-0.035012245,0.0,0.0,0.0
472.15247,511.64893,130392319,0.975,0.11702127,249.21738,304.27695,-0.0025257617,-0.0078018904,-0.035012245,0.0,0.0,0.0
478.3617,517.1227,130392336,0.975,0.11702127,265.83328,185.33371,-0.0025257617,-0.0078018904,-0.035012245,0.0,0.0,0.0
487.25922,521.4065,130392352,0.975,0.10638297,443.1721,187.9407,-0.0025257617,-0.0078018904,-0.035012245,0.0,0.0,0.0
498.74512,523.71265,130392369,0.95,0.09574468,680.9702,135.21147,-0.0025257617,-0.0078018904,-0.035012245,0.0,0.0,0.0
510.21783,524.09326,130392386,0.925,0.09574468,841.19965,49.083694,-0.0025257617,-0.0078018904,-0.035012245,0.0,0.0,0.0
521.8765,524.09326,130392402,0.90000004,0.10638297,848.945,-86.620346,-0.0025257617,-0.0078018904,-0.035012245,0.0,0.0,0.0
534.1255,522.4774,130392419,0.875,0.10638297,789.4531,-158.957,-0.0025257617,-0.0078018904,-0.035012245,0.0,0.0,0.0
546.79474,518.1185,130392436,0.875,0.10638297,781.0238,-240.03267,-0.0025257617,-0.0078018904,-0.035012245,0.0,0.0,0.0
559.7541,509.02283,130392452,0.8625,0.10638297,785.812,-442.27243,-0.0025257617,-0.0078018904,-0.035012245,0.0,0.0,0.0
570.13257,494.16797,130392469,0.85,0.08510638,735.9191,-829.8425,-0.0025257617,-0.0078018904,-0.035012245,0.0,0.0,0.0
582.0044,466.2798,130392486,0.83750004,0.12765957,690.1514,-1494.1812,-0.0025257617,-0.0078018904,-0.035012245,0.0,0.0,0.0
586.3061,440.8993,130392503,0.85,0.08510638,446.2612,-1913.6249,-0.0025257617,-0.0078018904,-0.035012245,0.0,0.0,0.0
589.096,422.74512,130392519,0.825,0.11702127,168.5915,-1826.4541,-0.0025257617,-0.0078018904,-0.035012245,0.0,0.0,0.0
592.05756,402.83398,130392536,0.85,0.11702127,-21.000864,-1474.9094,-0.0025257617,-0.0078018904,-0.035012245,0.0,0.0,0.0
595.248,387.0442,130392553,0.85,0.08510638,-11.75127,-923.75903,-0.0025257617,-0.0078018904,-0.035012245,0.0,0.0,0.0
596.8242,376.86548,130392569,0.85,0.09574468,89.34142,-662.5789,-0.0025257617,-0.0078018904,-0.035012245,0.0,0.0,0.0
598.0858,370.54565,130392586,0.8625,0.08510638,78.56774,-335.6162,-0.0025257617,-0.0078018904,-0.035012245,0.0,0.0,0.0
598.2831,367.1106,130392603,0.90000004,0.08510638,4.2637877,-27.47438,-0.0025257617,-0.0078018904,-0.035012245,0.0,0.0,0.0
598.2831,365.49536,130392619,0.95,0.08510638,-46.179115,147.92813,-0.0025257617,-0.0078018904,-0.035012245,0.0,0.0,0.0
597.8542,366.70215,130392636,0.975,0.08510638,-56.6243,209.03635,-0.0025257617,-0.0078018904,-0.035012245,0.0,0.0,0.0
595.8392,372.85144,130392653,0.975,0.09574468,-101.73818,350.57224,-0.0025257617,-0.0078018904,-0.035012245,0.0,0.0,0.0
593.7489,381.17114,130392670,0.975,0.11702127,-153.19223,587.1581,-0.0025257617,-0.0078018904,-0.035012245,0.0,0.0,0.0
592.7231,387.5935,130392686,0.975,0.12765957,-145.90677,659.7928,-0.0025257617,-0.0078018904,-0.035012245,0.0,0.0,0.0
591.6825,393.14258,130392703,0.96250004,0.12765957,-106.70555,564.1557,-0.0025257617,-0.0078018904,-0.035012245,0.0,0.0,0.0
590.6737,400.49756,130392720,0.95,0.12765957,-38.390987,388.05972,-0.0025257617,-0.0078018904,-0.035012245,0.0,0.0,0.0
590.7855,410.781,130392737,0.975,0.09574468,-3.3680532,451.7529,-0.0025257617,-0.0078018904,-0.035012245,0.0,0.0,0.0
591.2854,421.0359,130392753,0.975,0.09574468,30.553293,599.7696,-0.0025257617,-0.0078018904,-0.035012245,0.0,0.0,0.0
591.7852,432.63123,130392770,0.95,0.09574468,63.660793,795.6421,-0.0025257617,-0.0078018904,-0.035012245,0.0,0.0,0.0
591.4887,443.7367,130392787,0.9375,0.12765957,49.6145,797.8492,-0.0025257617,-0.0078018904,-0.035012245,0.0,0.0,0.0
590.96783,454.62244,130392803,0.9375,0.12765957,-8.09297,721.5887,-0.0020206124,-0.022241503,0.0039901733,0.0,0.0,0.0
590.2857,464.2777,130392820,0.96250004,0.11702127,-60.27714,617.94464,-0.0020206124,-0.022241503,0.0039901733,0.0,0.0,0.0
589.3909,473.59106,130392837,0.96250004,0.09574468,-74.95155,533.62854,-0.0020206124,-0.022241503,0.0039901733,0.0,0.0,0.0
589.286,481.94556,130392854,0.975,0.09574468,-53.02684,492.07968,-0.0020206124,-0.022241503,0.0039901733,0.0,0.0,0.0
588.7862,489.4171,130392870,0.96250004,0.09574468,-26.446049,428.9715,-0.0020206124,-0.022241503,0.0039901733,0.0,0.0,0.0
588.7862,494.98645,130392887,0.975,0.11702127,-4.303378,346.66254,-0.0020206124,-0.022241503,0.0039901733,0.0,0.0,0.0
588.7862,498.61597,130392904,0.975,0.12765957,9.095761,230.47792,-0.0020206124,-0.022241503,0.0039901733,0.0,0.0,0.0
588.7862,501.2235,130392920,0.975,0.12765957,13.575387,111.54547,-0.0020206124,-0.022241503,0.0039901733,0.0,0.0,0.0
588.7862,505.33862,130392937,0.975,0.12765957,7.9466295,83.40379,-0.0020206124,-0.022241503,0.0039901733,0.0,0.0,0.0
588.98193,508.79602,130392954,0.95,0.12765957,7.8973002,127.82807,-0.0020206124,-0.022241503,0.0039901733,0.0,0.0,0.0
590.02,512.90283,130392971,0.975,0.11702127,37.06408,226.00793,-0.0020206124,-0.022241503,0.0039901733,0.0,0.0,0.0
591.0622,517.0803,130392987,0.9875,0.11702127,73.7409,275.62518,-0.0020206124,-0.022241503,0.0039901733,0.0,0.0,0.0
592.0949,520.7517,130393004,0.9875,0.09574468,91.09991,258.5156,-0.0020206124,-0.022241503,0.0039901733,0.0,0.0,0.0
593.141,522.9492,130393021,0.9875,0.09574468,84.32922,185.75703,-0.0020206124,-0.022241503,0.0039901733,0.0,0.0,0.0
595.0528,524.77625,130393037,1.025,0.08510638,87.5644,98.96332,-0.0020206124,-0.022241503,0.0039901733,0.0,0.0,0.0
598.93225,526.63416,130393054,1.0125,0.08510638,158.52138,50.855457,-0.0020206124,-0.022241503,0.0039901733,0.0,0.0,0.0
605.6327,528.49817,130393071,1.0,0.08510638,327.7353,60.228577,-0.0020206124,-0.022241503,0.0039901733,0.0,0.0,0.0
614.9369,529.4243,130393088,0.95,0.08510638,562.2857,67.47479,-0.0020206124,-0.022241503,0.0039901733,0.0,0.0,0.0
625.91754,528.43176,130393104,0.9125,0.08510638,743.2178,3.2849581,-0.0020206124,-0.022241503,0.0039901733,0.0,0.0,0.0
644.22034,524.6167,130393121,0.875,0.10638297,1010.2634,-168.06625,-0.0020206124,-0.022241503,0.0039901733,0.0,0.0,0.0
668.02856,514.67444,130393138,0.8625,0.10638297,1342.3291,-442.74167,-0.0020206124,-0.022241503,0.0039901733,0.0,0.0,0.0
686.04144,504.08008,130393154,0.85,0.09574468,1521.4695,-742.2152,-0.0020206124,-0.022241503,0.0039901733,0.0,0.0,0.0
705.0911,486.0857,130393171,0.8625,0.08510638,1475.6487,-1076.4884,-0.0020206124,-0.022241503,0.0039901733,0.0,0.0,0.0
726.30396,462.70874,130393188,0.83750004,0.10638297,1305.041,-1481.8285,-0.0020206124,-0.022241503,0.0039901733,0.0,0.0,0.0
743.99054,436.20667,130393204,0.83750004,0.08510638,1162.8279,-1801.9231,-0.0020206124,-0.022241503,0.0039901733,0.0,0.0,0.0
764.42633,393.1029,130393221,0.825,0.10638297,1158.8792,-2408.0474,-0.0020206124,-0.022241503,0.0039901733,0.0,0.0,0.0
771.32697,362.44287,130393238,0.8125,0.10638297,824.19025,-2568.7297,-0.0020206124,-0.022241503,0.0039901733,0.0,0.0,0.0
769.1909,335.93005,130393255,0.8125,0.08510638,90.60727,-2232.7598,-0.0020206124,-0.022241503,0.0039901733,0.0,0.0,0.0
761.5108,321.87097,130393271,0.825,0.09574468,-643.0011,-1422.5762,-0.0020206124,-0.022241503,0.0039901733,0.0,0.0,0.0
737.31604,313.53235,130393288,0.875,0.08510638,-1441.159,-395.05807,-0.0020206124,-0.022241503,0.0039901733,0.0,0.0,0.0
698.6675,323.84033,130393305,0.9375,0.08510638,-2388.791,583.80304,-0.0020206124,-0.022241503,0.0039901733,0.0,0.0,0.0
662.3207,341.15234,130393321,0.925,0.12765957,-2869.73,1368.1422,-0.0020206124,-0.022241503,0.0039901733,0.0,0.0,0.0
642.25806,352.2439,130393338,0.9375,0.10638297,-2573.3384,1625.8446,0.014383495,0.014206797,0.019192696,0.0,0.0,0.0
630.5226,359.27588,130393355,0.95,0.09574468,-1480.3153,1253.0215,0.014383495,0.014206797,0.019192696,0.0,0.0,0.0
628.07623,360.60864,130393372,0.96250004,0.09574468,-215.45256,553.13184,0.014383495,0.014206797,0.019192696,0.0,0.0,0.0
627.99365,360.2173,130393388,1.0,0.10638297,560.5983,-210.95049,0.014383495,0.014206797,0.019192696,0.0,0.0,0.0
633.4493,358.05774,130393405,0.975,0.11702127,685.513,-365.18253,0.014383495,0.014206797,0.019192696,0.0,0.0,0.0
646.9722,355.2777,130393422,0.9125,0.12765957,910.4553,-380.91037,0.014383495,0.014206797,0.019192696,0.0,0.0,0.0
663.538,357.41626,130393438,0.8875,0.09574468,1242.1884,-181.21785,0.014383495,0.014206797,0.019192696,0.0,0.0,0.0
676.08124,364.8943,130393455,0.8875,0.08510638,1300.029,211.46407,0.014383495,0.014206797,0.019192696,0.0,0.0,0.0
686.516,382.17883,130393472,0.90000004,0.08510638,1020.0167,778.5585,0.014383495,0.014206797,0.019192696,0.0,0.0,0.0
692.1752,399.39355,130393489,0.8875,0.12765957,539.8179,1353.9492,0.014383495,0.014206797,0.019192696,0.0,0.0,0.0
694.27136,419.56262,130393505,0.925,0.09574468,94.72035,1564.658,0.014383495,0.014206797,0.019192696,0.0,0.0,0.0
695.3148,435.255,130393522,0.9375,0.09574468,-115.293106,1400.353,0.014383495,0.014206797,0.019192696,0.0,0.0,0.0
696.32104,441.95874,130393539,0.925,0.12765957,-167.67162,825.7014,0.014383495,0.014206797,0.019192696,0.0,0.0,0.0
697.4212,449.78174,130393555,0.95,0.12765957,-115.38359,331.9066,0.014383495,0.014206797,0.019192696,0.0,0.0,0.0
698.46655,457.21436,130393572,0.96250004,0.11702127,-0.35435894,157.32724,0.014383495,0.014206797,0.019192696,0.0,0.0,0.0
700.6805,462.5404,130393589,0.95,0.11702127,84.96815,134.27748,0.014383495,0.014206797,0.019192696,0.0,0.0,0.0
703.4628,468.92078,130393606,0.9375,0.09574468,155.37488,320.78934,0.014383495,0.014206797,0.019192696,0.0,0.0,0.0
706.8207,475.35522,130393622,0.95,0.08510638,221.93094,353.65427,0.014383495,0.014206797,0.019192696,0.0,0.0,0.0
709.8734,480.22485,130393639,0.96250004,0.08510638,241.1925,327.73755,0.014383495,0.014206797,0.019192696,0.0,0.0,0.0
712.33844,482.73938,130393656,0.975,0.08510638,197.84862,212.4473,0.014383495,0.014206797,0.019192696,0.0,0.0,0.0
715.0495,484.82532,130393672,0.9875,0.08510638,161.10902,76.15773,0.014383495,0.014206797,0.019192696,0.0,0.0,0.0
717.14923,486.69153,130393689,1.0,0.08510638,125.749855,12.226852,0.014383495,0.014206797,0.019192696,0.0,0.0,0.0
719.23914,488.54907,130393706,0.96250004,0.08510638,113.793846,27.93891,0.014383495,0.014206797,0.019192696,0.0,0.0,0.0
721.323,490.40125,130393722,0.96250004,0.08510638,109.90279,75.848724,0.014383495,0.014206797,0.019192696,0.0,0.0,0.0
723.42664,492.27087,130393739,0.95,0.08510638,109.68484,98.07317,0.014383495,0.014206797,0.019192696,0.0,0.0,0.0
725.8601,493.95435,130393756,0.975,0.10638297,128.34589,106.855125,0.014383495,0.014206797,0.019192696,0.0,0.0,0.0
729.71295,495.94104,130393773,0.96250004,0.10638297,187.94432,109.306015,0.014383495,0.014206797,0.019192696,0.0,0.0,0.0
732.87115,496.54968,130393789,0.95,0.10638297,224.04555,85.05008,0.014383495,0.014206797,0.019192696,0.0,0.0,0.0
736.3516,497.8015,130393806,0.975,0.10638297,241.41331,51.747334,0.014383495,0.014206797,0.019192696,0.0,0.0,0.0
739.3054,498.80127,130393823,0.96250004,0.11702127,207.72144,33.21444,0.014383495,0.014206797,0.019192696,0.0,0.0,0.0
742.66516,499.7655,130393839,0.96250004,0.11702127,186.57753,34.51642,0.014383495,0.014206797,0.019192696,0.0,0.0,0.0
745.3736,500.9922,130393856,0.95,0.11702127,178.62228,64.712975,-0.004493192,-0.020634562,-6.465912E-4,0.0,0.0,0.0
748.8412,501.88074,130393873,0.96250004,0.11702127,174.62515,70.10038,-0.004493192,-0.020634562,-6.465912E-4,0.0,0.0,0.0
751.5004,501.88074,130393890,0.96250004,0.12765957,172.18086,34.544636,-0.004493192,-0.020634562,-6.465912E-4,0.0,0.0,0.0
755.1449,502.73047,130393906,0.95,0.12765957,184.05118,9.203173,-0.004493192,-0.020634562,-6.465912E-4,0.0,0.0,0.0
758.2933,502.76917,130393923,0.9875,0.12765957,205.37526,3.4682095,-0.004493192,-0.020634562,-6.465912E-4,0.0,0.0,0.0
760.8533,502.76917,130393940,0.975,0.12765957,188.40504,-0.7826496,-0.004493192,-0.020634562,-6.465912E-4,0.0,0.0,0.0
763.2679,502.76917,130393956,0.975,0.12765957,150.83678,-4.896756,-0.004493192,-0.020634562,-6.465912E-4,0.0,0.0,0.0
766.02167,503.6577,130393973,0.96250004,0.10638297,138.34648,17.01265,-0.004493192,-0.020634562,-6.465912E-4,0.0,0.0,0.0
768.83655,504.90686,130393990,0.96250004,0.10638297,135.99919,44.814075,-0.004493192,-0.020634562,-6.465912E-4,0.0,0.0,0.0
771.8847,504.93604,130394007,0.9375,0.10638297,168.57114,55.340054,-0.004493192,-0.020634562,-6.465912E-4,0.0,0.0,0.0
774.47864,505.4347,130394023,0.96250004,0.10638297,184.96791,44.457817,-0.004493192,-0.020634562,-6.465912E-4,0.0,0.0,0.0
777.52203,505.4347,130394040,0.975,0.10638297,177.43526,8.112167,-0.004493192,-0.020634562,-6.465912E-4,0.0,0.0,0.0
780.20575,505.4347,130394057,0.975,0.10638297,173.37538,-7.856624,-0.004493192,-0.020634562,-6.465912E-4,0.0,0.0,0.0
782.7891,505.4347,130394073,0.95,0.10638297,149.88167,-17.928501,-0.004493192,-0.020634562,-6.465912E-4,0.0,0.0,0.0
785.92035,505.4347,130394090,0.96250004,0.10638297,160.94342,-15.350167,-0.004493192,-0.020634562,-6.465912E-4,0.0,0.0,0.0
788.6176,505.4347,130394107,0.95,0.12765957,174.3498,0.07376319,-0.004493192,-0.020634562,-6.465912E-4,0.0,0.0,0.0
790.7147,505.4347,130394124,0.95,0.12765957,157.0478,0.020646252,-0.004493192,-0.020634562,-6.465912E-4,0.0,0.0,0.0
792.80206,505.4347,130394140,0.95,0.12765957,126.590485,-0.016715277,-0.004493192,-0.020634562,-6.465912E-4,0.0,0.0,0.0
794.88446,504.39917,130394157,0.95,0.10638297,104.03788,-24.747875,-0.004493192,-0.020634562,-6.465912E-4,0.0,0.0,0.0
796.46326,504.54614,130394174,0.9375,0.11702127,87.47229,-32.53754,-0.004493192,-0.020634562,-6.465912E-4,0.0,0.0,0.0
797.88464,502.47314,130394190,0.95,0.11702127,85.85869,-76.75398,-0.004493192,-0.020634562,-6.465912E-4,0.0,0.0,0.0
799.91205,501.88074,130394207,0.95,0.11702127,93.35377,-94.85915,-0.004493192,-0.020634562,-6.465912E-4,0.0,0.0,0.0
800.9453,500.9922,130394224,0.95,0.11702127,82.234474,-73.78301,-0.004493192,-0.020634562,-6.465912E-4,0.0,0.0,0.0
801.9816,500.9922,130394241,0.96250004,0.11702127,63.622597,-28.619823,-0.004493192,-0.020634562,-6.465912E-4,0.0,0.0,0.0
803.34595,500.9922,130394257,0.95,0.11702127,48.675735,21.263466,-0.004493192,-0.020634562,-6.465912E-4,0.0,0.0,0.0
804.56854,500.9922,130394274,0.95,0.11702127,61.568417,27.223886,-0.004493192,-0.020634562,-6.465912E-4,0.0,0.0,0.0
805.9789,500.10364,130394291,0.96250004,0.11702127,77.42009,-10.264857,-0.004493192,-0.020634562,-6.465912E-4,0.0,0.0,0.0
807.6423,499.34436,130394307,0.96250004,0.11702127,99.06595,-36.86817,-0.004493192,-0.020634562,-6.465912E-4,0.0,0.0,0.0
808.6944,498.32666,130394324,0.96250004,0.11702127,91.54084,-79.574135,-0.004493192,-0.020634562,-6.465912E-4,0.0,0.0,0.0
810.2477,498.32666,130394341,0.9375,0.11702127,81.75901,-51.675125,-0.004493192,-0.020634562,-6.465912E-4,0.0,0.0,0.0
811.82104,498.32666,130394357,0.975,0.11702127,87.728165,-7.828092,-0.004493192,-0.020634562,-6.465912E-4,0.0,0.0,0.0
812.8357,497.43823,130394374,0.9375,0.08510638,77.0069,-7.248346,-0.004493192,-0.020634562,-6.465912E-4,0.0,0.0,0.0
814.9878,496.30518,130394391,0.96250004,0.08510638,102.3784,-29.84401,-0.011594564,0.01549235,-5.168915E-4,0.0,0.0,0.0
816.93604,496.54968,130394408,0.95,0.08510638,122.47345,-40.234364,-0.011594564,0.01549235,-5.168915E-4,0.0,0.0,0.0
818.6461,495.2749,130394424,0.96250004,0.08510638,121.41029,-53.412834,-0.011594564,0.01549235,-5.168915E-4,0.0,0.0,0.0
820.7276,494.7727,130394441,0.95,0.08510638,127.50866,-43.690907,-0.011594564,0.01549235,-5.168915E-4,0.0,0.0,0.0
822.8009,494.24768,130394458,0.95,0.08510638,122.21481,-33.12205,-0.011594564,0.01549235,-5.168915E-4,0.0,0.0,0.0
824.87,493.88416,130394474,0.95,0.08510638,128.94655,-26.708982,-0.011594564,0.01549235,-5.168915E-4,0.0,0.0,0.0
826.936,492.9956,130394491,0.95,0.08510638,130.49179,-28.04269,-0.011594564,0.01549235,-5.168915E-4,0.0,0.0,0.0
829.0104,492.10718,130394508,0.9375,0.08510638,121.97856,-53.281887,-0.011594564,0.01549235,-5.168915E-4,0.0,0.0,0.0
831.12506,491.29175,130394525,0.9375,0.08510638,125.8249,-59.131344,-0.011594564,0.01549235,-5.168915E-4,0.0,0.0,0.0
833.69183,489.45032,130394541,0.925,0.08510638,136.2411,-80.48249,-0.011594564,0.01549235,-5.168915E-4,0.0,0.0,0.0
836.82227,487.59546,130394558,0.9125,0.08510638,173.30348,-121.36192,-0.011594564,0.01549235,-5.168915E-4,0.0,0.0,0.0
839.93823,485.74927,130394575,0.9125,0.08510638,202.30893,-136.014,-0.011594564,0.01549235,-5.168915E-4,0.0,0.0,0.0
843.0707,483.89307,130394591,0.925,0.08510638,213.00003,-136.77127,-0.011594564,0.01549235,-5.168915E-4,0.0,0.0,0.0
846.1768,482.0526,130394608,0.9125,0.08510638,207.67436,-119.911354,-0.011594564,0.01549235,-5.168915E-4,0.0,0.0,0.0
849.4901,480.20618,130394625,0.90000004,0.09574468,195.07216,-110.98064,-0.011594564,0.01549235,-5.168915E-4,0.0,0.0,0.0
853.6182,478.3717,130394642,0.9125,0.09574468,223.24434,-110.54223,-0.011594564,0.01549235,-5.168915E-4,0.0,0.0,0.0
858.51855,475.17566,130394658,0.90000004,0.09574468,278.36755,-144.29994,-0.011594564,0.01549235,-5.168915E-4,0.0,0.0,0.0
863.4586,472.3275,130394675,0.8875,0.09574468,328.98257,-186.45065,-0.011594564,0.01549235,-5.168915E-4,0.0,0.0,0.0
868.4155,468.67163,130394692,0.8625,0.10638297,336.8221,-227.27402,-0.011594564,0.01549235,-5.168915E-4,0.0,0.0,0.0
874.87244,464.98022,130394708,0.85,0.10638297,353.89307,-249.04129,-0.011594564,0.01549235,-5.168915E-4,0.0,0.0,0.0
882.7319,459.8004,130394725,0.83750004,0.10638297,415.00763,-273.5173,-0.011594564,0.01549235,-5.168915E-4,0.0,0.0,0.0
891.5249,453.12146,130394742,0.83750004,0.09574468,543.0616,-372.78287,-0.011594564,0.01549235,-5.168915E-4,0.0,0.0,0.0
897.7976,445.77234,130394759,0.8125,0.07446808,541.0688,-475.12427,-0.011594564,0.01549235,-5.168915E-4,0.0,0.0,0.0
906.4802,436.68958,130394775,0.8,0.08510638,514.56964,-566.7039,-0.011594564,0.01549235,-5.168915E-4,0.0,0.0,0.0
919.3609,422.29175,130394792,0.8,0.10638297,614.70544,-756.3729,-0.011594564,0.01549235,-5.168915E-4,0.0,0.0,0.0
934.78925,403.33765,130394809,0.8,0.09574468,842.3028,-1062.6887,-0.011594564,0.01549235,-5.168915E-4,0.0,0.0,0.0
951.2356,382.37817,130394825,0.77500004,0.07446808,1102.4043,-1388.3911,-0.011594564,0.01549235,-5.168915E-4,0.0,0.0,0.0
967.0737,360.1267,130394842,0.77500004,0.12765957,1169.2672,-1560.5092,-0.011594564,0.01549235,-5.168915E-4,0.0,0.0,0.0
983.7272,335.18604,130394859,0.7875,0.07446808,1088.5565,-1620.4303,-0.011594564,0.01549235,-5.168915E-4,0.0,0.0,0.0
997.37134,314.0188,130394875,0.7875,0.09574468,956.6249,-1523.682,-0.011594564,0.01549235,-5.168915E-4,0.0,0.0,0.0
1012.29224,284.54395,130394892,0.7875,0.08510638,867.7308,-1618.0089,-0.011594564,0.01549235,-5.168915E-4,0.0,0.0,0.0
1019.5895,265.8236,130394909,0.7875,0.08510638,621.74774,-1464.098,-0.011594564,0.01549235,-5.168915E-4,0.0,0.0,0.0
1025.2272,247.65857,130394926,0.7875,0.12765957,301.153,-1175.7467,0.014724344,0.012393892,-0.016412735,0.0,0.0,0.0
1027.6001,229.80103,130394942,0.77500004,0.09574468,50.82912,-976.97235,0.014724344,0.012393892,-0.016412735,0.0,0.0,0.0
1028.1432,216.6903,130394959,0.8,0.08510638,-141.1357,-742.45483,0.014724344,0.012393892,-0.016412735,0.0,0.0,0.0
1027.104,201.89502,130394976,0.7875,0.12765957,-213.59563,-692.58636,0.014724344,0.012393892,-0.016412735,0.0,0.0,0.0
1025.5656,188.15198,130394992,0.7875,0.11702127,-230.9086,-724.6224,0.014724344,0.012393892,-0.016412735,0.0,0.0,0.0
1021.68384,176.34692,130395009,0.8125,0.08510638,-271.87766,-690.67847,0.014724344,0.012393892,-0.016412735,0.0,0.0,0.0
1018.0309,166.43616,130395026,0.8125,0.07446808,-295.73627,-624.85266,0.014724344,0.012393892,-0.016412735,0.0,0.0,0.0
1013.3082,161.11194,130395043,0.825,0.06382979,-324.11578,-410.87378,0.014724344,0.012393892,-0.016412735,0.0,0.0,0.0
1005.78455,155.00952,130395059,0.825,0.08510638,-423.87787,-211.77162,0.014724344,0.012393892,-0.016412735,0.0,0.0,0.0
997.21155,149.95764,130395076,0.825,0.10638297,-543.27203,-168.66893,0.014724344,0.012393892,-0.016412735,0.0,0.0,0.0
988.04285,144.9314,130395093,0.8125,0.11702127,-636.4508,-191.9232,0.014724344,0.012393892,-0.016412735,0.0,0.0,0.0
977.24023,140.93213,130395109,0.83750004,0.12765957,-689.1749,-230.45453,0.014724344,0.012393892,-0.016412735,0.0,0.0,0.0
964.8783,138.78564,130395126,0.85,0.12765957,-741.7182,-157.98212,0.014724344,0.012393892,-0.016412735,0.0,0.0,0.0
951.7506,138.48291,130395143,0.875,0.10638297,-829.4089,-43.63884,0.014724344,0.012393892,-0.016412735,0.0,0.0,0.0
939.47906,140.16064,130395160,0.8875,0.12765957,-871.1741,101.99859,0.014724344,0.012393892,-0.016412735,0.0,0.0,0.0
929.70447,143.8009,130395176,0.9125,0.11702127,-769.8365,271.07477,0.014724344,0.012393892,-0.016412735,0.0,0.0,0.0
919.7208,147.57117,130395193,0.9375,0.09574468,-594.88776,341.5776,0.014724344,0.012393892,-0.016412735,0.0,0.0,0.0
912.5995,153.21545,130395210,0.95,0.08510638,-440.1465,396.07797,0.014724344,0.012393892,-0.016412735,0.0,0.0,0.0
905.77856,158.8335,130395226,0.96250004,0.08510638,-332.65506,411.49905,0.014724344,0.012393892,-0.016412735,0.0,0.0,0.0
901.0272,164.06177,130395243,0.96250004,0.09574468,-253.00151,390.0111,0.014724344,0.012393892,-0.016412735,0.0,0.0,0.0
896.14954,170.16553,130395260,0.9875,0.10638297,-206.81664,384.64792,0.014724344,0.012393892,-0.016412735,0.0,0.0,0.0
888.437,182.91028,130395277,0.95,0.10638297,-307.86414,571.2463,0.014724344,0.012393892,-0.016412735,0.0,0.0,0.0
878.87195,200.77014,130395293,0.9375,0.08510638,-479.23672,937.5821,0.014724344,0.012393892,-0.016412735,0.0,0.0,0.0
869.126,221.6958,130395310,0.90000004,0.11702127,-653.2567,1382.0923,0.014724344,0.012393892,-0.016412735,0.0,0.0,0.0
860.5231,240.85022,130395327,0.90000004,0.12765957,-678.8621,1538.3138,0.014724344,0.012393892,-0.016412735,0.0,0.0,0.0
853.2444,262.7157,130395343,0.9125,0.08510638,-559.432,1481.0034,0.014724344,0.012393892,-0.016412735,0.0,0.0,0.0
846.5087,280.6244,130395360,0.9125,0.09574468,-403.00018,1287.2947,0.014724344,0.012393892,-0.016412735,0.0,0.0,0.0
840.2352,300.98755,130395377,0.925,0.09574468,-306.15,1152.9583,0.014724344,0.012393892,-0.016412735,0.0,0.0,0.0
833.5026,327.63086,130395394,0.90000004,0.09574468,-333.54886,1372.3635,0.014724344,0.012393892,-0.016412735,0.0,0.0,0.0
826.21747,355.49658,130395410,0.8875,0.08510638,-386.056,1631.2137,0.014724344,0.012393892,-0.016412735,0.0,0.0,0.0
819.30505,387.61987,130395427,0.8625,0.10638297,-419.1422,1944.3981,0.014724344,0.012393892,-0.016412735,0.0,0.0,0.0
812.555,415.06982,130395444,0.8875,0.09574468,-421.44785,1994.4655,0.014724344,0.012393892,-0.016412735,0.0,0.0,0.0
807.95966,439.82202,130395460,0.8875,0.11702127,-363.06992,1805.0422,0.011779472,0.009915113,-0.013130188,0.0,0.0,0.0
804.4184,460.2688,130395477,0.8875,0.11702127,-238.06418,1351.662,0.011779472,0.009915113,-0.013130188,0.0,0.0,0.0
801.95184,484.79358,130395494,0.90000004,0.08510638,-129.96136,1220.5642,0.011779472,0.009915113,-0.013130188,0.0,0.0,0.0
800.62744,502.83765,130395510,0.875,0.12765957,-21.18784,1070.2303,0.011779472,0.009915113,-0.013130188,0.0,0.0,0.0
797.0101,521.8163,130395527,0.9125,0.08510638,-47.97175,999.9245,0.011779472,0.009915113,-0.013130188,0.0,0.0,0.0
792.9555,538.35986,130395544,0.90000004,0.08510638,-163.60864,930.2642,0.011779472,0.009915113,-0.013130188,0.0,0.0,0.0
789.8643,547.7002,130395561,0.925,0.09574468,-254.81131,710.52795,0.011779472,0.009915113,-0.013130188,0.0,0.0,0.0
787.7729,550.70264,130395577,0.95,0.09574468,-223.80804,317.12128,0.011779472,0.009915113,-0.013130188,0.0,0.0,0.0
786.7191,550.7484,130395594,1.0125,0.09574468,-95.27434,-177.34067,0.011779472,0.009915113,-0.013130188,0.0,0.0,0.0
784.6197,549.76855,130395611,0.975,0.08510638,-39.502983,-391.30148,0.011779472,0.009915113,-0.013130188,0.0,0.0,0.0
780.6447,538.02844,130395627,0.9125,0.08510638,-124.53299,-660.08044,0.011779472,0.009915113,-0.013130188,0.0,0.0,0.0
776.7783,521.7119,130395644,0.8625,0.12765957,-235.29391,-989.34827,0.011779472,0.009915113,-0.013130188,0.0,0.0,0.0
774.5831,499.72937,130395661,0.83750004,0.07446808,-250.33163,-1450.32,0.011779472,0.009915113,-0.013130188,0.0,0.0,0.0
778.4422,473.36963,130395678,0.83750004,0.10638297,-44.284657,-1845.0421,0.011779472,0.009915113,-0.013130188,0.0,0.0,0.0
786.1648,448.72278,130395694,0.825,0.08510638,415.67703,-1908.845,0.011779472,0.009915113,-0.013130188,0.0,0.0,0.0
793.40094,434.0321,130395711,0.825,0.08510638,685.5264,-1481.6932,0.011779472,0.009915113,-0.013130188,0.0,0.0,0.0
803.86664,418.7495,130395728,0.83750004,0.12765957,757.8126,-895.1337,0.011779472,0.009915113,-0.013130188,0.0,0.0,0.0
821.1984,403.48706,130395744,0.8625,0.10638297,936.9738,-608.17633,0.011779472,0.009915113,-0.013130188,0.0,0.0,0.0
839.17615,395.71082,130395761,0.85,0.09574468,1160.7494,-452.08957,0.011779472,0.009915113,-0.013130188,0.0,0.0,0.0
856.73834,394.37183,130395778,0.83750004,0.11702127,1325.6067,-219.27164,0.011779472,0.009915113,-0.013130188,0.0,0.0,0.0
872.4173,397.5005,130395795,0.83750004,0.12765957,1262.1743,224.23239,0.011779472,0.009915113,-0.013130188,0.0,0.0,0.0
886.61194,406.2113,130395811,0.83750004,0.09574468,962.70386,713.9157,0.011779472,0.009915113,-0.013130188,0.0,0.0,0.0
894.14215,413.56982,130395828,0.85,0.08510638,631.8963,827.72986,0.011779472,0.009915113,-0.013130188,0.0,0.0,0.0
900.5485,428.4685,130395845,0.925,0.08510638,301.372,921.37103,0.011779472,0.009915113,-0.013130188,0.0,0.0,0.0
899.31244,436.4541,130395861,0.9375,0.08510638,-35.900898,915.9055,0.011779472,0.009915113,-0.013130188,0.0,0.0,0.0
895.14606,442.3988,130395878,0.9125,0.10638297,-371.83612,650.378,0.011779472,0.009915113,-0.013130188,0.0,0.0,0.0
890.1126,445.9497,130395895,0.9125,0.10638297,-550.98004,316.7293,0.011779472,0.009915113,-0.013130188,0.0,0.0,0.0
882.55804,449.79443,130395912,0.90000004,0.12765957,-624.1659,31.290415,0.011779472,0.009915113,-0.013130188,0.0,0.0,0.0
876.9063,451.23596,130395928,0.875,0.12765957,-562.2361,-45.196888,0.011779472,0.009915113,-0.013130188,0.0,0.0,0.0
871.8729,451.23596,130395945,0.875,0.12765957,-401.61032,-33.97665,0.011779472,0.009915113,-0.013130188,0.0,0.0,0.0
869.088,451.23596,130395962,0.875,0.12765957,-259.7511,-78.1128,0.011779472,0.009915113,-0.013130188,0.0,0.0,0.0
866.7894,451.23596,130395978,0.90000004,0.12765957,-101.489944,-95.62293,0.011779472,0.009915113,-0.013130188,0.0,0.0,0.0
865.7554,453.69067,130395995,0.925,0.12765957,-17.897863,2.6359186,-0.006576419,-0.008067936,0.02149582,0.0,0.0,0.0
866.2019,457.47717,130396012,0.96250004,0.11702127,51.074898,188.69264,-0.006576419,-0.008067936,0.02149582,0.0,0.0,0.0
868.35614,460.31177,130396028,0.95,0.10638297,141.58115,266.98987,-0.006576419,-0.008067936,0.02149582,0.0,0.0,0.0
875.9016,466.97046,130396045,0.925,0.08510638,351.4816,367.46844,-0.006576419,-0.008067936,0.02149582,0.0,0.0,0.0
886.14685,476.40283,130396062,0.875,0.08510638,617.44135,521.88885,-0.006576419,-0.008067936,0.02149582,0.0,0.0,0.0
896.4661,486.75647,130396079,0.8875,0.08510638,817.6025,677.1875,-0.006576419,-0.008067936,0.02149582,0.0,0.0,0.0
905.37225,494.3297,130396095,0.875,0.11702127,811.565,708.6528,-0.006576419,-0.008067936,0.02149582,0.0,0.0,0.0
915.8608,500.37793,130396112,0.8875,0.12765957,673.5166,509.12003,-0.006576419,-0.008067936,0.02149582,0.0,0.0,0.0
925.1906,505.44092,130396129,0.8875,0.12765957,594.2985,294.32687,-0.006576419,-0.008067936,0.02149582,0.0,0.0,0.0
933.17773,509.11755,130396145,0.90000004,0.10638297,515.48596,150.77711,-0.006576419,-0.008067936,0.02149582,0.0,0.0,0.0
939.5359,512.31665,130396162,0.90000004,0.10638297,427.9487,113.30685,-0.006576419,-0.008067936,0.02149582,0.0,0.0,0.0
944.7457,514.1688,130396179,0.925,0.10638297,275.83972,73.92921,-0.006576419,-0.008067936,0.02149582,0.0,0.0,0.0
948.50134,515.99744,130396196,0.9125,0.10638297,179.33347,50.11829,-0.006576419,-0.008067936,0.02149582,0.0,0.0,0.0
952.1329,516.0968,130396212,0.9125,0.10638297,133.72914,5.9051843,-0.006576419,-0.008067936,0.02149582,0.0,0.0,0.0
954.7237,516.0968,130396229,0.9125,0.10638297,111.14276,-41.101276,-0.006576419,-0.008067936,0.02149582,0.0,0.0,0.0
957.3884,516.0968,130396246,0.9125,0.10638297,104.749115,-52.347042,-0.006576419,-0.008067936,0.02149582,0.0,0.0,0.0
959.8728,516.0968,130396262,0.925,0.11702127,109.801414,-46.57067,-0.006576419,-0.008067936,0.02149582,0.0,0.0,0.0
962.48755,516.0968,130396279,0.90000004,0.11702127,129.21283,-22.157328,-0.006576419,-0.008067936,0.02149582,0.0,0.0,0.0
965.4291,516.0968,130396296,0.90000004,0.11702127,148.02286,0.026374657,-0.006576419,-0.008067936,0.02149582,0.0,0.0,0.0
968.36,516.0968,130396313,0.90000004,0.11702127,179.40704,0.036731575,-0.006576419,-0.008067936,0.02149582,0.0,0.0,0.0
971.38855,516.0968,130396329,0.8875,0.11702127,179.36868,0.035692595,-0.006576419,-0.008067936,0.02149582,0.0,0.0,0.0
975.4674,516.0968,130396346,0.90000004,0.10638297,221.88412,0.035931274,-0.006576419,-0.008067936,0.02149582,0.0,0.0,0.0
978.8584,516.0968,130396363,0.875,0.10638297,229.78896,0.055303257,-0.006576419,-0.008067936,0.02149582,0.0,0.0,0.0
982.6925,516.0968,130396379,0.875,0.10638297,231.73376,0.0036032863,-0.006576419,-0.008067936,0.02149582,0.0,0.0,0.0
987.2307,516.0968,130396396,0.875,0.09574468,258.07227,0.039779063,-0.006576419,-0.008067936,0.02149582,0.0,0.0,0.0
991.85706,516.0968,130396413,0.8625,0.09574468,270.683,0.027149674,-0.006576419,-0.008067936,0.02149582,0.0,0.0,0.0
996.6863,516.0968,130396430,0.875,0.10638297,311.72388,0.0112461075,-0.006576419,-0.008067936,0.02149582,0.0,0.0,0.0
1001.48804,516.0968,130396446,0.875,0.10638297,322.6239,0.06688374,-0.006576419,-0.008067936,0.02149582,0.0,0.0,0.0
1006.1926,516.0968,130396463,0.85,0.12765957,309.75003,-0.0032344623,-0.006576419,-0.008067936,0.02149582,0.0,0.0,0.0
1011.9363,516.0968,130396480,0.85,0.12765957,314.8699,-0.010062881,-0.006576419,-0.008067936,0.02149582,0.0,0.0,0.0
1016.6166,516.0968,130396496,0.83750004,0.12765957,303.45477,-0.033910494,-0.006576419,-0.008067936,0.02149582,0.0,0.0,0.0
1022.1273,515.7477,130396513,0.83750004,0.12765957,321.2727,-4.9052258,-0.006576419,-0.008067936,0.02149582,0.0,0.0,0.0
1028.144,514.7637,130396530,0.83750004,0.12765957,359.79767,-39.89621,-0.005261138,0.009545654,0.03319645,0.0,0.0,0.0
1034.0873,512.91736,130396546,0.83750004,0.12765957,383.58994,-90.546104,-0.005261138,0.009545654,0.03319645,0.0,0.0,0.0
1039.7935,511.0664,130396563,0.85,0.10638297,377.2985,-142.75627,-0.005261138,0.009545654,0.03319645,0.0,0.0,0.0
1044.9843,509.22095,130396580,0.83750004,0.10638297,331.5187,-152.94125,-0.005261138,0.009545654,0.03319645,0.0,0.0,0.0
1049.6842,507.3723,130396597,0.83750004,0.10638297,281.25168,-135.2554,-0.005261138,0.009545654,0.03319645,0.0,0.0,0.0
1054.3707,505.52844,130396613,0.825,0.09574468,253.68053,-120.550316,-0.005261138,0.009545654,0.03319645,0.0,0.0,0.0
1059.0715,502.81287,130396630,0.8,0.09574468,251.63565,-126.49025,-0.005261138,0.009545654,0.03319645,0.0,0.0,0.0
1063.061,499.27808,130396647,0.8125,0.08510638,248.28462,-184.78625,-0.005261138,0.009545654,0.03319645,0.0,0.0,0.0
1067.7947,494.55347,130396663,0.77500004,0.08510638,258.09244,-268.65872,-0.005261138,0.009545654,0.03319645,0.0,0.0,0.0
1074.6368,486.94128,130396680,0.8,0.08510638,328.56763,-408.12616,-0.005261138,0.009545654,0.03319645,0.0,0.0,0.0
1081.143,479.52393,130396697,0.77500004,0.09574468,397.5646,-519.9651,-0.005261138,0.009545654,0.03319645,0.0,0.0,0.0
1086.0293,471.84045,130396714,0.7875,0.12765957,402.5109,-558.19525,-0.005261138,0.009545654,0.03319645,0.0,0.0,0.0
1091.7683,461.2732,130396730,0.7875,0.10638297,346.53073,-595.47876,-0.005261138,0.009545654,0.03319645,0.0,0.0,0.0
1098.2639,446.61414,130396747,0.77500004,0.08510638,353.01593,-779.9158,-0.005261138,0.009545654,0.03319645,0.0,0.0,0.0
1101.862,438.81372,130396764,0.77500004,0.06382979,300.9015,-797.1238,-0.005261138,0.009545654,0.03319645,0.0,0.0,0.0
1105.9849,428.74585,130396780,0.7625,0.08510638,236.78404,-675.86804,-0.005261138,0.009545654,0.03319645,0.0,0.0,0.0
1111.4454,416.00452,130396797,0.7625,0.10638297,223.29604,-595.9589,-0.005261138,0.009545654,0.03319645,0.0,0.0,0.0
1113.9628,406.38806,130396814,0.77500004,0.10638297,199.44604,-589.2861,-0.005261138,0.009545654,0.03319645,0.0,0.0,0.0
1115.5791,397.28967,130396831,0.7875,0.08510638,155.01945,-650.2553,-0.005261138,0.009545654,0.03319645,0.0,0.0,0.0
1115.1138,391.70032,130396847,0.7875,0.06382979,1.6382422,-468.30823,-0.005261138,0.009545654,0.03319645,0.0,0.0,0.0
1113.5361,386.16382,130396864,0.77500004,0.06382979,-150.65517,-253.65039,-0.005261138,0.009545654,0.03319645,0.0,0.0,0.0
1112.027,381.6167,130396881,0.7875,0.06382979,-207.14511,-165.08328,-0.005261138,0.009545654,0.03319645,0.0,0.0,0.0
1110.2518,378.8352,130396897,0.77500004,0.06382979,-181.32211,-127.543365,-0.005261138,0.009545654,0.03319645,0.0,0.0,0.0
1106.295,374.83606,130396914,0.7875,0.07446808,-210.68222,-132.75333,-0.005261138,0.009545654,0.03319645,0.0,0.0,0.0
1099.9182,369.46716,130396931,0.75,0.08510638,-314.92987,-208.1176,-0.005261138,0.009545654,0.03319645,0.0,0.0,0.0
1092.8494,365.15222,130396947,0.7625,0.09574468,-480.16284,-294.4238,-0.005261138,0.009545654,0.03319645,0.0,0.0,0.0
1084.422,361.51587,130396964,0.7625,0.11702127,-586.23785,-292.75668,-0.005261138,0.009545654,0.03319645,0.0,0.0,0.0
1075.1436,357.8507,130396981,0.77500004,0.12765957,-620.9631,-217.11258,-0.005261138,0.009545654,0.03319645,0.0,0.0,0.0
1061.8306,354.21106,130396998,0.7875,0.10638297,-708.2237,-175.35495,-0.005261138,0.009545654,0.03319645,0.0,0.0,0.0
1046.9839,352.61218,130397014,0.7625,0.12765957,-900.8487,-143.46439,-0.005261138,0.009545654,0.03319645,0.0,0.0,0.0
1029.1333,351.72363,130397031,0.77500004,0.12765957,-1123.9578,-75.92358,-0.005261138,0.009545654,0.03319645,0.0,0.0,0.0
1009.4579,351.72363,130397048,0.7875,0.10638297,-1298.1833,27.733774,-0.005261138,0.009545654,0.03319645,0.0,0.0,0.0
988.21216,350.79358,130397064,0.77500004,0.12765957,-1392.1256,50.77755,0.01179108,-0.024363458,0.010558128,0.0,0.0,0.0
964.66016,350.83508,130397081,0.7875,0.10638297,-1455.9558,28.295074,0.01179108,-0.024363458,0.010558128,0.0,0.0,0.0
938.987,350.83508,130397098,0.8,0.12765957,-1583.1144,1.7777585,0.01179108,-0.024363458,0.010558128,0.0,0.0,0.0
910.4966,350.83508,130397115,0.7875,0.10638297,-1728.1765,5.2353606,0.01179108,-0.024363458,0.010558128,0.0,0.0,0.0
882.2902,350.83508,130397131,0.7875,0.12765957,-1847.9156,11.567956,0.01179108,-0.024363458,0.010558128,0.0,0.0,0.0
848.273,349.94666,130397148,0.8125,0.10638297,-2000.5502,-15.173817,0.01179108,-0.024363458,0.010558128,0.0,0.0,0.0
813.19464,351.7721,130397165,0.77500004,0.12765957,-2164.0618,10.601162,0.01179108,-0.024363458,0.010558128,0.0,0.0,0.0
774.8124,354.04346,130397181,0.8125,0.10638297,-2368.556,123.400795,0.01179108,-0.024363458,0.010558128,0.0,0.0,0.0
733.994,356.50183,130397198,0.825,0.09574468,-2565.6548,199.07623,0.01179108,-0.024363458,0.010558128,0.0,0.0,0.0
692.6995,359.31128,130397215,0.8125,0.11702127,-2617.1768,232.5961,0.01179108,-0.024363458,0.010558128,0.0,0.0,0.0
650.746,361.36475,130397232,0.8,0.10638297,-2626.8635,184.70804,0.01179108,-0.024363458,0.010558128,0.0,0.0,0.0
612.6021,363.20288,130397248,0.825,0.09574468,-2544.965,129.98996,0.01179108,-0.024363458,0.010558128,0.0,0.0,0.0
570.5668,364.16272,130397265,0.825,0.08510638,-2430.4023,83.6076,0.01179108,-0.024363458,0.010558128,0.0,0.0,0.0
535.67804,363.26782,130397282,0.83750004,0.10638297,-2247.9277,-19.800482,0.01179108,-0.024363458,0.010558128,0.0,0.0,0.0
501.9449,359.43945,130397298,0.825,0.10638297,-2029.3489,-178.55226,0.01179108,-0.024363458,0.010558128,0.0,0.0,0.0
471.23547,358.83167,130397315,0.83750004,0.09574468,-1796.3534,-225.8303,0.01179108,-0.024363458,0.010558128,0.0,0.0,0.0
446.0291,354.7672,130397332,0.83750004,0.12765957,-1517.7944,-254.79594,0.01179108,-0.024363458,0.010558128,0.0,0.0,0.0
424.40814,353.16187,130397349,0.825,0.12765957,-1222.4359,-198.97379,0.01179108,-0.024363458,0.010558128,0.0,0.0,0.0
406.45105,351.29272,130397365,0.85,0.10638297,-988.2657,-115.3323,0.01179108,-0.024363458,0.010558128,0.0,0.0,0.0
394.24625,349.94666,130397382,0.85,0.10638297,-682.0154,-101.88371,0.01179108,-0.024363458,0.010558128,0.0,0.0,0.0
386.41003,349.94666,130397399,0.83750004,0.12765957,-333.5324,-15.907805,0.01179108,-0.024363458,0.010558128,0.0,0.0,0.0
378.92447,349.94666,130397415,0.825,0.12765957,-143.82022,33.21588,0.01179108,-0.024363458,0.010558128,0.0,0.0,0.0
364.2538,354.12073,130397432,0.6875,0.12765957,-258.51147,146.43623,0.01179108,-0.024363458,0.010558128,0.0,0.0,0.0
359.86072,355.2777,130397434,0.275,0.09574468,-381.011,184.29185,0.01179108,-0.024363458,0.010558128,0.0,0.0,0.0
359.86072,355.2777,130397444,0.275,0.09574468,-381.011,184.29185,0.01179108,-0.024363458,0.010558128,0.0,0.0,0.0
