x,y,timestamp,pressure,fingerarea,velocityx,velocityy,accelx,accely,accelz,gyrox,gyroy,gyroz
159.42596,330.39954,78904235,1.0,0.08510638,0.0,0.0,-0.014439106,-0.03493452,-0.0975647,0.0,0.0,0.0
159.42596,330.39954,78904267,1.0500001,0.09574468,-0.001783768,-0.0047773,-0.014439106,-0.03493452,-0.0975647,0.0,0.0,0.0
159.42596,330.39954,78904279,1.0375,0.08510638,-0.010059235,-0.023273773,-0.014439106,-0.03493452,-0.0975647,0.0,0.0,0.0
201.5102,306.1969,78904301,0.975,0.11702127,1803.47,-1037.1605,0.0044486523,0.10805249,-0.26205158,3.355443E-6,0.0,0.0
235.85468,296.40918,78904317,0.9375,0.10638297,2668.2961,-1218.4796,0.0044486523,0.10805249,-0.26205158,3.355443E-6,0.0,0.0
278.22372,283.81555,78904334,0.9375,0.08510638,3303.191,-1234.3514,0.0044486523,0.10805249,-0.26205158,3.355443E-6,0.0,0.0
323.88226,266.7196,78904351,0.9375,0.08510638,3576.6833,-1094.795,0.0044486523,0.10805249,-0.26205158,3.355443E-6,0.0,0.0
363.292,252.44653,78904368,0.925,0.11702127,3149.537,-980.21735,0.0044486523,0.10805249,-0.26205158,6.710883E-5,-5.0331622E-5,0.0
394.22382,242.89868,78904384,0.9125,0.10638297,2175.155,-714.3647,0.0044486523,0.10805249,-0.26205158,6.710883E-5,-5.0331622E-5,0.0
414.98044,238.25757,78904401,0.875,0.12765957,1329.8,-411.19684,0.0044486523,0.10805249,-0.26205158,6.710883E-5,-5.0331622E-5,0.0
426.2657,237.75684,78904418,0.825,0.12765957,529.9797,35.09823,0.0044486523,0.10805249,-0.26205158,6.710883E-5,-5.0331622E-5,0.0
428.9038,244.94275,78904434,0.52500004,0.12765957,-121.0787,431.038,0.0044486523,0.10805249,-0.26205158,-1.1981315E-4,1.1981315E-4,0.0
428.83826,245.9917,78904435,0.2375,0.11702127,-156.131,484.58328,0.0044486523,0.10805249,-0.26205158,-1.1981315E-4,1.1981315E-4,0.0
428.83826,245.9917,78904444,0.2375,0.11702127,-156.131,484.58328,0.0044486523,0.10805249,-0.26205158,-1.1981315E-4,1.1981315E-4,0.0
223.40512,445.90503,78904580,1.0375,0.08510638,0.0,0.0,0.0044486523,0.10805249,-0.26205158,-9.034802E-5,3.613921E-5,0.0
223.40512,445.90503,78904618,0.96250004,0.08510638,0.005285003,0.0099471,0.0044486523,0.10805249,-0.26205158,-9.034802E-5,3.613921E-5,0.0
259.04318,424.36243,78904635,0.8875,0.09574468,2281.4624,-1391.5804,0.0044486523,0.10805249,-0.26205158,7.1349903E-4,-7.729573E-4,0.0
297.76187,405.37012,78904652,0.8875,0.10638297,3073.4116,-1682.8425,0.0044486523,0.10805249,-0.26205158,7.1349903E-4,-7.729573E-4,0.0
340.3982,384.20166,78904668,0.8875,0.08510638,3479.3,-1784.2524,0.0044486523,0.10805249,-0.26205158,7.1349903E-4,-7.729573E-4,0.0
377.9713,363.8307,78904685,0.875,0.09574468,2968.5942,-1475.3491,0.0044486523,0.10805249,-0.26205158,-0.0,0.0,0.0
411.72107,347.2494,78904702,0.8625,0.11702127,2657.335,-1313.7721,0.0044486523,0.10805249,-0.26205158,-0.0,0.0,0.0
440.00012,335.52612,78904718,0.8625,0.08510638,1828.9258,-838.425,0.0044486523,0.10805249,-0.26205158,-0.0,0.0,0.0
461.38574,325.48706,78904735,0.83750004,0.07446808,1282.0142,-546.4518,0.0044486523,0.10805249,-0.26205158,-0.0,0.0,0.0
477.95795,317.36304,78904752,0.7,0.09574468,827.90546,-309.32812,0.0044486523,0.10805249,-0.26205158,5.3687072E-5,0.0,0.0
477.82233,317.07202,78904759,0.4,0.09574468,604.6013,-214.48866,0.0044486523,0.10805249,-0.26205158,5.3687072E-5,0.0,0.0
477.82233,317.07202,78904765,0.4,0.09574468,604.6013,-214.48866,0.0044486523,0.10805249,-0.26205158,5.3687072E-5,0.0,0.0
282.38593,174.02295,78904990,1.0375,0.08510638,0.0,0.0,-0.084441185,-0.0015580654,0.17435837,3.3386226E-5,-1.1128742E-5,0.0
282.38593,174.02295,78905019,1.075,0.08510638,-0.0032882628,-0.0027855202,-0.084441185,-0.0015580654,0.17435837,6.843774E-5,-3.421887E-4,0.0
282.38593,174.02295,78905036,1.0375,0.10638297,-0.018606374,-0.010609635,-0.084441185,-0.0015580654,0.17435837,6.843774E-5,-3.421887E-4,0.0
279.88675,213.6958,78905053,0.9875,0.08510638,-140.51251,1977.7552,-0.084441185,-0.0015580654,0.17435837,6.843774E-5,-3.421887E-4,0.0
281.67142,252.71228,78905069,0.9875,0.10638297,-49.43929,2993.492,-0.084441185,-0.0015580654,0.17435837,6.843774E-5,-3.421887E-4,0.0
285.755,292.75964,78905086,0.975,0.09574468,117.56969,3436.292,-0.084441185,-0.0015580654,0.17435837,6.843784E-5,-5.132838E-5,0.0
291.93768,334.22974,78905103,0.9875,0.12765957,368.88266,3407.5747,-0.084441185,-0.0015580654,0.17435837,6.843784E-5,-5.132838E-5,0.0
299.7576,379.83704,78905120,0.975,0.08510638,564.7652,2961.9216,-0.084441185,-0.0015580654,0.17435837,6.843784E-5,-5.132838E-5,0.0
307.08853,413.83765,78905136,0.975,0.09574468,609.3852,2373.685,-0.084441185,-0.0015580654,0.17435837,6.843784E-5,-5.132838E-5,0.0
315.32318,449.51477,78905153,0.96250004,0.12765957,582.8291,2222.8696,-0.084441185,-0.0015580654,0.17435837,8.219123E-6,-1.6438245E-5,0.0
325.33856,493.38635,78905170,0.975,0.08510638,589.5141,2191.5679,-0.084441185,-0.0015580654,0.17435837,8.219123E-6,-1.6438245E-5,0.0
334.13266,525.76135,78905186,0.95,0.08510638,588.9455,2101.1233,-0.084441185,-0.0015580654,0.17435837,8.219123E-6,-1.6438245E-5,0.0
344.30276,565.5842,78905203,0.8875,0.10638297,636.0569,2266.2542,-0.084441185,-0.0015580654,0.17435837,8.219123E-6,-1.6438245E-5,0.0
351.733,602.88904,78905220,0.8625,0.08510638,579.3085,2325.582,-0.084441185,-0.0015580654,0.17435837,0.0,0.0,0.0
356.5175,636.2627,78905237,0.83750004,0.07446808,392.8769,2187.2578,-0.084441185,-0.0015580654,0.17435837,0.0,0.0,0.0
358.58963,661.1,78905253,0.8,0.08510638,134.47443,1734.0593,-0.084441185,-0.0015580654,0.17435837,0.0,0.0,0.0
358.3612,685.55774,78905270,0.77500004,0.08510638,-105.26322,1235.7218,-0.084441185,-0.0015580654,0.17435837,0.0,0.0,0.0
358.86102,700.6428,78905287,0.725,0.07446808,-164.85217,849.5377,-0.084441185,-0.0015580654,0.17435837,0.0,1.710946E-5,0.0
358.86102,704.4595,78905299,0.4375,0.12765957,-174.64124,501.5433,-0.084441185,-0.0015580654,0.17435837,0.0,1.710946E-5,0.0
358.86102,704.4595,78905303,0.4375,0.12765957,-174.64124,501.5433,-0.084441185,-0.0015580654,0.17435837,0.0,1.710946E-5,0.0
418.84152,676.02734,78906343,0.85,0.12765957,0.0,0.0,0.0051574707,-0.064997196,-0.0052108765,0.0,0.0,0.0
418.84152,676.02734,78906373,0.9125,0.12765957,-0.037095033,-0.06610872,0.0051574707,-0.064997196,-0.0052108765,0.0,0.0,0.0
418.84152,676.02734,78906389,0.925,0.12765957,-0.01868252,-0.028820943,0.0051574707,-0.064997196,-0.0052108765,0.0,0.0,0.0
418.84152,676.02734,78906399,0.9375,0.12765957,-0.01723777,-0.026725268,0.0051574707,-0.064997196,-0.0052108765,0.0,0.0,0.0
418.84152,676.02734,78906423,0.9125,0.12765957,0.0018517975,0.0033685477,0.05212617,0.01200223,-0.26816845,1.709958E-4,-4.885594E-5,0.0
428.1548,657.6328,78906440,0.875,0.07446808,242.32776,-478.6178,0.05212617,0.01200223,-0.26816845,1.709958E-4,-4.885594E-5,0.0
439.97882,629.0919,78906456,0.875,0.10638297,697.0549,-1527.5554,0.05212617,0.01200223,-0.26816845,1.709958E-4,-4.885594E-5,0.0
454.69775,591.52734,78906473,0.875,0.06382979,1076.9873,-2555.367,0.05212617,0.01200223,-0.26816845,1.709958E-4,-4.885594E-5,0.0
467.10858,556.3943,78906490,0.875,0.07446808,1150.885,-2973.28,0.05212617,0.01200223,-0.26816845,-9.034802E-5,3.613921E-5,0.0
477.75128,526.7577,78906506,0.85,0.11702127,858.5115,-2506.3242,0.05212617,0.01200223,-0.26816845,-9.034802E-5,3.613921E-5,0.0
483.8819,509.52454,78906523,0.875,0.08510638,549.31793,-1736.6165,0.05212617,0.01200223,-0.26816845,-9.034802E-5,3.613921E-5,0.0
487.32007,499.21216,78906540,0.8625,0.07446808,201.96591,-656.6646,0.05212617,0.01200223,-0.26816845,-9.034802E-5,3.613921E-5,0.0
488.3189,494.27148,78906557,0.875,0.07446808,-34.15886,21.733692,0.05212617,0.01200223,-0.26816845,3.3386226E-5,-1.1128742E-5,0.0
488.3189,492.9956,78906573,0.925,0.07446808,-180.04417,380.7983,0.05212617,0.01200223,-0.26816845,3.3386226E-5,-1.1128742E-5,0.0
487.88586,493.76538,78906590,0.96250004,0.09574468,-200.86234,448.33548,0.05212617,0.01200223,-0.26816845,3.3386226E-5,-1.1128742E-5,0.0
484.33502,503.0824,78906607,0.9125,0.12765957,-225.3872,558.7418,0.05212617,0.01200223,-0.26816845,3.3386226E-5,-1.1128742E-5,0.0
476.72632,530.3479,78906623,0.9125,0.09574468,-378.77896,1198.826,0.05212617,0.01200223,-0.26816845,-6.0023962E-5,3.0011981E-5,0.0
471.4074,553.8596,78906640,0.9125,0.10638297,-518.0864,1918.5646,0.05212617,0.01200223,-0.26816845,-6.0023962E-5,3.0011981E-5,0.0
468.78088,576.06055,78906657,0.8875,0.07446808,-414.80243,2050.7996,0.05212617,0.01200223,-0.26816845,-6.0023962E-5,3.0011981E-5,0.0
470.49365,592.4199,78906673,0.875,0.08510638,-101.5922,1610.5956,0.05212617,0.01200223,-0.26816845,-6.0023962E-5,3.0011981E-5,0.0
474.22455,604.23914,78906690,0.83750004,0.11702127,260.07913,885.47546,0.05212617,0.01200223,-0.26816845,-1.2554915E-5,3.7664744E-5,0.0
478.9463,611.9988,78906707,0.825,0.12765957,462.99863,357.3271,0.05212617,0.01200223,-0.26816845,-1.2554915E-5,3.7664744E-5,0.0
488.17426,620.6284,78906724,0.825,0.09574468,591.40375,197.3526,0.05212617,0.01200223,-0.26816845,-1.2554915E-5,3.7664744E-5,0.0
500.80353,625.76196,78906740,0.85,0.09574468,769.22906,139.17752,0.05212617,0.01200223,-0.26816845,-1.2554915E-5,3.7664744E-5,0.0
515.77496,626.28,78906757,0.875,0.10638297,1002.688,76.368416,0.05212617,0.01200223,-0.26816845,2.2135724E-4,0.0,0.0
529.10944,620.5823,78906774,0.875,0.12765957,1087.2439,-259.7973,0.05212617,0.01200223,-0.26816845,2.2135724E-4,0.0,0.0
540.5331,611.104,78906791,0.875,0.08510638,917.8583,-673.5307,0.05212617,0.01200223,-0.26816845,2.2135724E-4,0.0,0.0
549.0364,601.63403,78906807,0.8625,0.06382979,625.71027,-909.31104,0.05212617,0.01200223,-0.26816845,2.2135724E-4,0.0,0.0
555.3364,590.8248,78906824,0.875,0.08510638,346.93954,-895.59607,0.05212617,0.01200223,-0.26816845,7.5029975E-6,-1.5005995E-5,0.0
561.43427,578.1249,78906841,0.85,0.10638297,201.3448,-823.16406,0.05212617,0.01200223,-0.26816845,7.5029975E-6,-1.5005995E-5,0.0
566.81384,563.12366,78906857,0.83750004,0.08510638,206.50609,-897.59406,0.05212617,0.01200223,-0.26816845,7.5029975E-6,-1.5005995E-5,0.0
569.98096,551.9667,78906874,0.83750004,0.07446808,171.852,-880.0334,0.05212617,0.01200223,-0.26816845,7.5029975E-6,-1.5005995E-5,0.0
571.9642,545.84607,78906891,0.825,0.07446808,121.45885,-662.8484,0.05212617,0.01200223,-0.26816845,-0.0,0.0,0.0
573.4182,541.41187,78906908,0.8625,0.07446808,37.224358,-307.08994,0.05212617,0.01200223,-0.26816845,-0.0,0.0,0.0
574.98834,538.8468,78906924,0.875,0.07446808,-3.9047117,-14.776017,0.05212617,0.01200223,-0.26816845,-0.0,0.0,0.0
575.9898,537.4208,78906941,0.9125,0.08510638,11.776937,94.35175,0.05212617,0.01200223,-0.26816845,-0.0,0.0,0.0
576.7901,537.4208,78906958,0.96250004,0.08510638,31.469887,85.000854,0.32970095,-0.34239817,0.2894659,-1.5724091E-4,0.0,0.0
577.5663,541.1627,78906974,0.925,0.08510638,26.07655,179.56316,0.32970095,-0.34239817,0.2894659,-1.5724091E-4,0.0,0.0
577.7898,547.12024,78906991,0.875,0.08510638,15.679566,375.2854,0.32970095,-0.34239817,0.2894659,-1.5724091E-4,0.0,0.0
576.1178,564.4446,78907008,0.83750004,0.12765957,-44.11683,783.77057,0.32970095,-0.34239817,0.2894659,-1.5724091E-4,0.0,0.0
574.13245,585.3352,78907024,0.8,0.06382979,-125.858376,1343.2896,0.32970095,-0.34239817,0.2894659,2.07441E-4,-5.9268856E-5,0.0
573.7911,599.82434,78907040,0.8125,0.08510638,-148.18546,1546.5741,0.32970095,-0.34239817,0.2894659,2.07441E-4,-5.9268856E-5,0.0
575.1393,611.2483,78907057,0.8125,0.12765957,-61.595478,1268.718,0.32970095,-0.34239817,0.2894659,2.07441E-4,-5.9268856E-5,0.0
577.70197,618.1185,78907074,0.7875,0.10638297,109.203445,697.6479,0.32970095,-0.34239817,0.2894659,2.07441E-4,-5.9268856E-5,0.0
583.3968,622.7897,78907091,0.7875,0.09574468,312.7667,119.747734,0.32970095,-0.34239817,0.2894659,2.0132621E-4,0.0,0.0
604.5812,628.33887,78907107,0.8,0.09574468,812.9156,28.862839,0.32970095,-0.34239817,0.2894659,2.0132621E-4,0.0,0.0
625.74243,624.85803,78907124,0.5625,0.12765957,1428.9451,-90.0907,0.32970095,-0.34239817,0.2894659,2.0132621E-4,0.0,0.0
639.2698,619.1631,78907134,0.3125,0.12765957,1702.0944,-280.21292,0.32970095,-0.34239817,0.2894659,2.0132621E-4,0.0,0.0
639.2698,619.1631,78907138,0.3125,0.12765957,1702.0944,-280.21292,0.32970095,-0.34239817,0.2894659,2.0132621E-4,0.0,0.0
638.2701,655.5918,78907929,0.8625,0.08510638,0.0,0.0,-0.024239063,0.046081305,-0.07242775,0.0,0.0,0.0
638.2701,655.5918,78907960,0.90000004,0.08510638,-0.029985264,-0.030798549,-0.024239063,0.046081305,-0.07242775,2.1781932E-4,-1.8670228E-4,0.0
638.2701,655.5918,78907977,0.9125,0.08510638,-0.012379823,-0.009554752,-0.024239063,0.046081305,-0.07242775,2.1781932E-4,-1.8670228E-4,0.0
638.2701,655.5918,78907994,0.8625,0.08510638,-0.02376024,-0.024480691,-0.024239063,0.046081305,-0.07242775,2.1781932E-4,-1.8670228E-4,0.0
643.26,645.7362,78908010,0.83750004,0.10638297,164.99245,-325.8932,-0.024239063,0.046081305,-0.07242775,2.1781932E-4,-1.8670228E-4,0.0
654.98987,623.93835,78908027,0.825,0.09574468,504.78687,-956.19104,-0.08339143,0.05286503,0.03005886,-0.0,0.0,0.0
662.2615,601.9031,78908044,0.83750004,0.06382979,740.92786,-1620.0248,-0.08339143,0.05286503,0.03005886,-0.0,0.0,0.0
667.75635,579.37585,78908061,0.825,0.09574468,692.19385,-1908.1611,-0.08339143,0.05286503,0.03005886,-0.0,0.0,0.0
671.39233,555.1339,78908077,0.83750004,0.06382979,435.74802,-1876.5164,-0.08339143,0.05286503,0.03005886,-0.0,0.0,0.0
673.4873,532.94995,78908094,0.85,0.08510638,38.77518,-1492.6357,-0.08339143,0.05286503,0.03005886,3.0198984E-5,0.0,0.0
673.75854,512.03174,78908111,0.83750004,0.09574468,-67.27646,-1342.2551,-0.08339143,0.05286503,0.03005886,3.0198984E-5,0.0,0.0
673.10986,497.53284,78908127,0.83750004,0.06382979,-118.801895,-1077.4944,-0.08339143,0.05286503,0.03005886,3.0198984E-5,0.0,0.0
670.66595,488.62756,78908144,0.825,0.06382979,-198.30421,-589.7247,-0.08339143,0.05286503,0.03005886,3.0198984E-5,0.0,0.0
666.8574,483.85828,78908161,0.85,0.07446808,-270.69705,-138.89088,-0.08339143,0.05286503,0.03005886,-4.7453127E-6,4.7453127E-6,0.0
659.8372,481.44507,78908178,0.875,0.07446808,-387.3497,115.85413,-0.08339143,0.05286503,0.03005886,-4.7453127E-6,4.7453127E-6,0.0
648.963,484.90393,78908194,0.8875,0.08510638,-607.8136,323.39172,-0.08339143,0.05286503,0.03005886,-4.7453127E-6,4.7453127E-6,0.0
639.4995,492.34717,78908211,0.90000004,0.10638297,-757.1311,539.97363,-0.08339143,0.05286503,0.03005886,-4.7453127E-6,4.7453127E-6,0.0
634.5219,499.65845,78908228,0.90000004,0.12765957,-639.566,697.9342,-0.08339143,0.05286503,0.03005886,1.8981249E-5,0.0,0.0
633.2717,507.08276,78908244,0.875,0.12765957,-299.6678,725.75323,-0.08339143,0.05286503,0.03005886,1.8981249E-5,0.0,0.0
638.2247,513.39087,78908261,0.83750004,0.09574468,194.54073,586.4901,-0.08339143,0.05286503,0.03005886,1.8981249E-5,0.0,0.0
661.30115,524.4951,78908278,0.8625,0.08510638,991.83,557.56964,-0.08339143,0.05286503,0.03005886,1.8981249E-5,0.0,0.0
685.8412,531.4242,78908295,0.8625,0.08510638,1859.175,545.3669,-0.08339143,0.05286503,0.03005886,-4.150452E-5,2.7669681E-5,0.0
705.1583,536.0581,78908311,0.85,0.06382979,2015.0474,408.68338,-0.08339143,0.05286503,0.03005886,-4.150452E-5,2.7669681E-5,0.0
718.6651,541.6997,78908328,0.8625,0.06382979,1523.6775,281.22437,-0.08339143,0.05286503,0.03005886,-4.150452E-5,2.7669681E-5,0.0
724.06793,546.2958,78908345,0.875,0.08510638,559.8741,174.77115,-0.08339143,0.05286503,0.03005886,-4.150452E-5,2.7669681E-5,0.0
727.4748,556.8524,78908361,0.85,0.10638297,-94.09498,344.09308,-0.08339143,0.05286503,0.03005886,1.342177E-5,0.0,0.0
726.9224,575.6322,78908378,0.825,0.08510638,-320.85986,829.60846,-0.08339143,0.05286503,0.03005886,1.342177E-5,0.0,0.0
722.8063,591.7937,78908395,0.7875,0.06382979,-452.68045,1255.1555,-0.08339143,0.05286503,0.03005886,1.342177E-5,0.0,0.0
719.2548,607.53357,78908412,0.77500004,0.09574468,-481.90405,1350.3152,-0.08339143,0.05286503,0.03005886,1.342177E-5,0.0,0.0
717.2241,622.11694,78908428,0.7625,0.08510638,-371.77417,1106.7224,-0.08339143,0.05286503,0.03005886,1.342177E-5,0.0,0.0
717.8257,630.40466,78908445,0.75,0.06382979,-154.293,685.87787,-0.08339143,0.05286503,0.03005886,1.342177E-5,0.0,0.0
719.96625,635.5521,78908462,0.725,0.06382979,112.35518,321.8998,-0.08339143,0.05286503,0.03005886,1.342177E-5,0.0,0.0
726.6695,640.5504,78908478,0.7375,0.06382979,355.9776,106.607635,-0.08339143,0.05286503,0.03005886,1.342177E-5,0.0,0.0
747.09076,640.69055,78908495,0.7375,0.08510638,879.6193,-76.00862,-0.08339143,0.05286503,0.03005886,-8.6982946E-5,2.1745736E-5,0.0
767.6761,633.09814,78908512,0.675,0.09574468,1485.7858,-329.21027,-0.08339143,0.05286503,0.03005886,-8.6982946E-5,2.1745736E-5,0.0
777.22485,628.0481,78908524,0.22500001,0.12765957,1617.6018,-552.38165,-0.08339143,0.05286503,0.03005886,-8.6982946E-5,2.1745736E-5,0.0
777.22485,628.0481,78908531,0.22500001,0.12765957,1617.6018,-552.38165,-0.08339143,0.05286503,0.03005886,-8.6982946E-5,2.1745736E-5,0.0
729.7403,652.0377,78912469,0.6875,0.06382979,0.0,0.0,-0.041022778,-0.02017045,0.009507179,0.0,0.0,0.0
729.7403,652.0377,78912489,0.725,0.06382979,-0.034546535,-0.025170907,-0.041022778,-0.02017045,0.009507179,0.0,0.0,0.0
729.7403,652.0377,78912505,0.7875,0.06382979,-0.048908047,-0.045357697,-0.041022778,-0.02017045,0.009507179,0.0,0.0,0.0
729.7403,652.0377,78912522,0.8125,0.06382979,-0.033135906,-0.030861175,-0.041022778,-0.02017045,0.009507179,0.0,0.0,0.0
729.7403,652.0377,78912539,0.8125,0.06382979,-0.02154955,-0.019824404,-0.041022778,-0.02017045,0.009507179,0.0,0.0,0.0
729.7403,652.0377,78912553,0.8125,0.06382979,-0.033017635,-0.029786615,-0.041022778,-0.02017045,0.009507179,0.0,0.0,0.0
729.7403,652.0377,78912589,0.83750004,0.06382979,-0.023499357,-0.02203581,-0.041022778,-0.02017045,0.009507179,0.0,0.0,0.0
729.7403,652.0377,78912606,0.85,0.06382979,0.061365746,0.05280725,-0.041022778,-0.02017045,0.009507179,0.0,0.0,0.0
729.7403,652.0377,78912622,0.8625,0.06382979,-0.026441215,-0.025879543,-0.041022778,-0.02017045,0.009507179,4.7453127E-6,-4.7453127E-6,0.0
729.7403,652.0377,78912639,0.8875,0.07446808,-0.0017514733,-0.0031041203,-0.041022778,-0.02017045,0.009507179,4.7453127E-6,-4.7453127E-6,0.0
729.7403,652.0377,78912651,0.875,0.08510638,0.038321912,0.031071974,-0.041022778,-0.02017045,0.009507179,4.7453127E-6,-4.7453127E-6,0.0
729.7403,652.0377,78912673,0.875,0.08510638,-0.03191204,-0.027331915,-0.041022778,-0.02017045,0.009507179,4.7453127E-6,-4.7453127E-6,0.0
729.7403,652.0377,78912689,0.875,0.07446808,-0.048014533,-0.047254372,-0.041022778,-0.02017045,0.009507179,0.0,0.0,0.0
729.7403,652.0377,78912706,0.8625,0.07446808,-0.08183715,-0.071633734,-0.041022778,-0.02017045,0.009507179,0.0,0.0,0.0
729.7403,652.0377,78912723,0.875,0.07446808,-0.0056314706,-0.006833609,-0.041022778,-0.02017045,0.009507179,0.0,0.0,0.0
729.7403,652.0377,78912739,0.875,0.07446808,-0.063235804,-0.05596922,-0.041022778,-0.02017045,0.009507179,0.0,0.0,0.0
729.7403,652.0377,78912756,0.8625,0.07446808,0.040451463,0.03604756,-0.041022778,-0.02017045,0.009507179,0.0,0.0,0.0
729.7403,652.0377,78912761,0.8875,0.08510638,0.008341484,0.0050281174,-0.041022778,-0.02017045,0.009507179,0.0,0.0,0.0
729.7403,652.0377,78912806,0.9125,0.08510638,0.025953462,0.02328752,-0.041022778,-0.02017045,0.009507179,0.0,0.0,0.0
729.7403,652.0377,78912823,0.9125,0.08510638,0.03423563,0.0294073,0.06318188,0.03186345,-0.07239437,4.7453127E-6,4.7453127E-6,0.0
729.7403,652.0377,78912840,0.9125,0.08510638,0.0051211156,0.0035057927,0.06318188,0.03186345,-0.07239437,4.7453127E-6,4.7453127E-6,0.0
729.7403,652.0377,78912856,0.875,0.08510638,-0.010721337,-0.008385763,0.06318188,0.03186345,-0.07239437,4.7453127E-6,4.7453127E-6,0.0
729.7403,652.0377,78912873,0.90000004,0.08510638,0.054284614,0.046213116,0.06318188,0.03186345,-0.07239437,4.7453127E-6,4.7453127E-6,0.0
740.35596,650.77966,78912890,0.8875,0.08510638,239.03879,-28.243355,0.06318188,0.03186345,-0.07239437,-1.342177E-5,0.0,0.0
749.2427,649.3722,78912906,0.8875,0.08510638,682.84564,-92.90099,0.06318188,0.03186345,-0.07239437,-1.342177E-5,0.0,0.0
752.8132,647.968,78912923,0.90000004,0.08510638,692.375,-117.83436,0.06318188,0.03186345,-0.07239437,-1.342177E-5,0.0,0.0
754.8968,647.5952,78912940,0.90000004,0.08510638,360.33023,-94.01703,0.06318188,0.03186345,-0.07239437,-1.342177E-5,0.0,0.0
756.473,646.9364,78912957,0.9125,0.08510638,-28.10689,-31.090792,0.06318188,0.03186345,-0.07239437,3.355443E-6,0.0,0.0
757.64355,645.974,78912973,0.90000004,0.07446808,-154.91922,-12.951576,0.06318188,0.03186345,-0.07239437,3.355443E-6,0.0,0.0
759.1376,644.124,78912990,0.875,0.07446808,-2.5952525,-64.946144,0.06318188,0.03186345,-0.07239437,3.355443E-6,0.0,0.0
760.7203,643.1527,78913007,0.90000004,0.07446808,54.03412,-102.17941,0.06318188,0.03186345,-0.07239437,3.355443E-6,0.0,0.0
762.8005,642.2012,78913023,0.90000004,0.07446808,104.47785,-88.351616,0.06318188,0.03186345,-0.07239437,0.0,0.0,0.0
765.4471,640.3578,78913040,0.8875,0.06382979,149.23946,-81.20292,0.06318188,0.03186345,-0.07239437,0.0,0.0,0.0
768.6763,638.51086,78913057,0.8875,0.08510638,199.5176,-98.90279,0.06318188,0.03186345,-0.07239437,0.0,0.0,0.0
772.81976,636.66956,78913074,0.9125,0.08510638,246.36942,-123.79025,0.06318188,0.03186345,-0.07239437,0.0,0.0,0.0
777.456,634.5065,78913090,0.8875,0.08510638,295.54196,-142.04047,0.06318188,0.03186345,-0.07239437,0.0,0.0,0.0
782.8733,631.19336,78913107,0.8875,0.09574468,339.85678,-168.5192,0.06318188,0.03186345,-0.07239437,0.0,0.0,0.0
788.83936,627.978,78913124,0.8875,0.10638297,379.55176,-208.81015,0.06318188,0.03186345,-0.07239437,0.0,0.0,0.0
793.76105,624.28687,78913140,0.8625,0.12765957,379.5093,-244.39305,0.06318188,0.03186345,-0.07239437,0.0,0.0,0.0
799.22797,620.6378,78913157,0.8625,0.12765957,343.19406,-252.16101,0.06318188,0.03186345,-0.07239437,0.0,-3.355443E-6,0.0
804.63934,616.90735,78913174,0.8625,0.11702127,320.0382,-238.69937,0.06318188,0.03186345,-0.07239437,0.0,-3.355443E-6,0.0
810.31934,611.5875,78913191,0.8625,0.08510638,318.4134,-273.65753,0.06318188,0.03186345,-0.07239437,0.0,-3.355443E-6,0.0
815.8377,607.0569,78913207,0.8625,0.08510638,333.8439,-299.48962,0.06318188,0.03186345,-0.07239437,0.0,-3.355443E-6,0.0
822.23566,601.3705,78913224,0.8625,0.06382979,367.35797,-344.03372,0.06318188,0.03186345,-0.07239437,3.183252E-5,-1.0610839E-5,0.0
827.58417,595.72815,78913241,0.8625,0.06382979,348.08023,-361.71393,0.06318188,0.03186345,-0.07239437,3.183252E-5,-1.0610839E-5,0.0
834.307,588.344,78913257,0.875,0.08510638,378.0906,-414.68518,0.06318188,0.03186345,-0.07239437,3.183252E-5,-1.0610839E-5,0.0
840.31433,581.30396,78913274,0.8625,0.10638297,390.75052,-462.8454,0.06318188,0.03186345,-0.07239437,3.183252E-5,-1.0610839E-5,0.0
846.8453,574.4657,78913291,0.83750004,0.12765957,397.51642,-471.5702,0.06318188,0.03186345,-0.07239437,0.0,0.0,0.0
853.63934,567.0569,78913308,0.85,0.11702127,411.278,-462.35684,0.06318188,0.03186345,-0.07239437,0.0,0.0,0.0
860.1627,559.67505,78913324,0.85,0.09574468,394.71988,-434.66995,0.06318188,0.03186345,-0.07239437,0.0,0.0,0.0
866.39056,550.9042,78913341,0.85,0.07446808,392.06628,-486.73923,0.06318188,0.03186345,-0.07239437,0.0,0.0,0.0
873.65936,540.3539,78913358,0.875,0.08510638,395.7979,-592.0363,0.08254552,0.009490728,0.054084778,-4.7453127E-6,4.7453127E-6,0.0
880.71783,529.1299,78913374,0.8625,0.09574468,419.89536,-696.9067,0.08254552,0.009490728,0.054084778,-4.7453127E-6,4.7453127E-6,0.0
888.7154,517.3938,78913391,0.8625,0.10638297,457.70407,-765.5127,0.08254552,0.009490728,0.054084778,-4.7453127E-6,4.7453127E-6,0.0
896.2686,506.07056,78913408,0.85,0.08510638,495.87204,-774.7684,0.08254552,0.009490728,0.054084778,-4.7453127E-6,4.7453127E-6,0.0
905.03345,490.5963,78913425,0.8625,0.08510638,506.64246,-813.1756,0.08254552,0.009490728,0.054084778,-3.355443E-6,0.0,0.0
912.8433,476.7135,78913441,0.83750004,0.12765957,514.9548,-910.63074,0.08254552,0.009490728,0.054084778,-3.355443E-6,0.0,0.0
919.6143,462.79004,78913458,0.85,0.08510638,467.15033,-927.33014,0.08254552,0.009490728,0.054084778,-3.355443E-6,0.0,0.0
929.3184,440.63672,78913475,0.85,0.07446808,499.72333,-1144.7184,0.08254552,0.009490728,0.054084778,-3.355443E-6,0.0,0.0
934.332,427.15186,78913491,0.8625,0.08510638,427.3998,-1120.2705,0.08254552,0.009490728,0.054084778,1.342177E-5,0.0,0.0
938.9035,413.42175,78913508,0.83750004,0.10638297,300.78476,-958.62634,0.08254552,0.009490728,0.054084778,1.342177E-5,0.0,0.0
942.32324,399.27808,78913525,0.8625,0.08510638,166.09639,-783.487,0.08254552,0.009490728,0.054084778,1.342177E-5,0.0,0.0
945.4405,383.61304,78913541,0.85,0.06382979,76.268776,-724.9222,0.08254552,0.009490728,0.054084778,1.342177E-5,0.0,0.0
947.7532,368.5277,78913558,0.8625,0.08510638,110.00993,-918.29156,0.08254552,0.009490728,0.054084778,-3.355443E-6,0.0,0.0
949.00305,354.08167,78913575,0.8625,0.12765957,65.109184,-926.97015,0.08254552,0.009490728,0.054084778,-3.355443E-6,0.0,0.0
950.0427,339.29614,78913592,0.8625,0.08510638,26.048758,-895.3884,0.08254552,0.009490728,0.054084778,-3.355443E-6,0.0,0.0
949.26825,326.30518,78913608,0.83750004,0.06382979,-35.098995,-828.04346,0.08254552,0.009490728,0.054084778,-3.355443E-6,0.0,0.0
948.2382,314.25415,78913625,0.8625,0.08510638,-100.15544,-728.03613,0.08254552,0.009490728,0.054084778,0.0,-0.0,0.0
946.697,303.02612,78913642,0.8625,0.12765957,-130.50812,-618.7502,0.08254552,0.009490728,0.054084778,0.0,-0.0,0.0
944.0664,293.6626,78913658,0.8625,0.10638297,-175.17075,-552.71844,0.08254552,0.009490728,0.054084778,0.0,-0.0,0.0
940.8808,285.3285,78913675,0.8625,0.07446808,-212.56076,-478.36996,0.08254552,0.009490728,0.054084778,0.0,-0.0,0.0
937.21423,276.95947,78913692,0.8625,0.07446808,-249.42159,-439.9729,0.08254552,0.009490728,0.054084778,3.355443E-6,0.0,0.0
934.21967,270.95142,78913709,0.8625,0.07446808,-258.65225,-378.2444,0.08254552,0.009490728,0.054084778,3.355443E-6,0.0,0.0
931.2952,265.75305,78913725,0.8625,0.09574468,-219.71507,-287.53455,0.08254552,0.009490728,0.054084778,3.355443E-6,0.0,0.0
927.7491,260.74976,78913742,0.85,0.11702127,-186.75664,-233.73761,0.08254552,0.009490728,0.054084778,3.355443E-6,0.0,0.0
922.82666,255.21362,78913759,0.8875,0.11702127,-235.20174,-231.44362,0.08254552,0.009490728,0.054084778,0.0,0.0,0.0
916.31903,251.10925,78913775,0.875,0.12765957,-357.20642,-257.53183,0.08254552,0.009490728,0.054084778,0.0,0.0,0.0
909.8679,247.40723,78913792,0.8625,0.12765957,-443.80927,-237.4485,0.08254552,0.009490728,0.054084778,0.0,0.0,0.0
902.3847,245.31079,78913809,0.875,0.12765957,-498.70874,-142.8396,0.08254552,0.009490728,0.054084778,0.0,0.0,0.0
895.024,245.10327,78913826,0.90000004,0.12765957,-487.67142,-20.976421,0.08254552,0.009490728,0.054084778,3.355443E-6,0.0,0.0
887.45123,245.92517,78913842,0.90000004,0.12765957,-481.36795,81.61961,0.08254552,0.009490728,0.054084778,3.355443E-6,0.0,0.0
880.1374,247.78479,78913859,0.875,0.09574468,-472.91104,170.43106,0.08254552,0.009490728,0.054084778,3.355443E-6,0.0,0.0
871.268,252.46375,78913876,0.8875,0.09574468,-492.01987,281.34033,0.08254552,0.009490728,0.054084778,3.355443E-6,0.0,0.0
861.8864,257.9746,78913892,0.8625,0.07446808,-546.50964,382.69696,0.018036366,-0.024407387,-0.036732674,1.5005995E-5,-7.5029975E-6,0.0
852.0643,266.66052,78913909,0.875,0.08510638,-608.0838,523.32153,0.018036366,-0.024407387,-0.036732674,1.5005995E-5,-7.5029975E-6,0.0
839.24384,277.05457,78913926,0.875,0.10638297,-719.6392,674.7497,0.018036366,-0.024407387,-0.036732674,1.5005995E-5,-7.5029975E-6,0.0
827.8644,288.52307,78913943,0.85,0.12765957,-789.6513,784.10443,0.018036366,-0.024407387,-0.036732674,1.5005995E-5,-7.5029975E-6,0.0
817.5166,302.33203,78913959,0.8625,0.09574468,-729.55237,873.3042,0.018036366,-0.024407387,-0.036732674,0.0,0.0,0.0
807.13965,317.58606,78913976,0.875,0.08510638,-648.33325,977.50684,0.018036366,-0.024407387,-0.036732674,0.0,0.0,0.0
796.4874,333.79016,78913993,0.875,0.10638297,-587.9736,1047.1897,0.018036366,-0.024407387,-0.036732674,0.0,0.0,0.0
786.12836,349.47437,78914009,0.8625,0.08510638,-587.9327,1061.6316,0.018036366,-0.024407387,-0.036732674,0.0,0.0,0.0
772.0171,372.53137,78914026,0.85,0.07446808,-695.91425,1157.611,0.018036366,-0.024407387,-0.036732674,5.0331622E-5,0.0,0.0
764.2203,384.73865,78914043,0.83750004,0.11702127,-691.19336,1151.5305,0.018036366,-0.024407387,-0.036732674,5.0331622E-5,0.0,0.0
751.3549,406.59473,78914059,0.8625,0.11702127,-657.5896,1107.6492,0.018036366,-0.024407387,-0.036732674,5.0331622E-5,0.0,0.0
742.58856,424.9087,78914076,0.875,0.07446808,-620.6315,1178.9218,0.018036366,-0.024407387,-0.036732674,5.0331622E-5,0.0,0.0
735.8268,439.6327,78914093,0.85,0.09574468,-477.4766,1063.3281,0.018036366,-0.024407387,-0.036732674,4.7453127E-6,0.0,0.0
729.13617,455.33337,78914110,0.85,0.09574468,-364.35223,953.52985,0.018036366,-0.024407387,-0.036732674,4.7453127E-6,0.0,0.0
724.56195,470.93958,78914126,0.85,0.06382979,-260.24628,902.1911,0.018036366,-0.024407387,-0.036732674,4.7453127E-6,0.0,0.0
719.71124,485.114,78914143,0.85,0.07446808,-166.62527,763.5464,0.018036366,-0.024407387,-0.036732674,4.7453127E-6,0.0,0.0
716.0939,496.19727,78914160,0.85,0.10638297,-185.28728,745.07806,0.018036366,-0.024407387,-0.036732674,0.0,-0.0,0.0
712.7199,507.28076,78914176,0.85,0.12765957,-151.50233,603.0025,0.018036366,-0.024407387,-0.036732674,0.0,-0.0,0.0
709.65045,516.9691,78914193,0.85,0.09574468,-157.51265,509.19565,0.018036366,-0.024407387,-0.036732674,0.0,-0.0,0.0
706.7458,527.0608,78914210,0.8625,0.08510638,-142.15712,502.844,0.018036366,-0.024407387,-0.036732674,0.0,-0.0,0.0
704.51086,536.4883,78914227,0.83750004,0.08510638,-133.0624,533.61646,0.018036366,-0.024407387,-0.036732674,1.5005995E-5,-7.5029975E-6,0.0
702.4415,544.563,78914243,0.85,0.09574468,-108.41247,487.05704,0.018036366,-0.024407387,-0.036732674,1.5005995E-5,-7.5029975E-6,0.0
701.3004,552.16394,78914260,0.83750004,0.11702127,-72.616806,438.35336,0.018036366,-0.024407387,-0.036732674,1.5005995E-5,-7.5029975E-6,0.0
700.2543,558.72156,78914277,0.83750004,0.12765957,-42.949696,383.07675,0.018036366,-0.024407387,-0.036732674,1.5005995E-5,-7.5029975E-6,0.0
699.219,565.1869,78914293,0.85,0.11702127,-27.65987,337.36197,0.018036366,-0.024407387,-0.036732674,0.0,0.0,0.0
698.75037,570.68665,78914310,0.85,0.09574468,-23.724802,316.7301,0.018036366,-0.024407387,-0.036732674,0.0,0.0,0.0
698.25055,575.1349,78914327,0.83750004,0.08510638,-17.620153,269.63303,0.018036366,-0.024407387,-0.036732674,0.0,0.0,0.0
698.39777,579.96545,78914344,0.8625,0.08510638,1.6003063,236.608,0.018036366,-0.024407387,-0.036732674,0.0,0.0,0.0
698.9393,584.29456,78914360,0.875,0.08510638,38.370804,228.48445,0.018036366,-0.024407387,-0.036732674,3.355443E-6,0.0,0.0
699.48315,588.4192,78914377,0.8625,0.08510638,57.38001,219.25179,0.018036366,-0.024407387,-0.036732674,3.355443E-6,0.0,0.0
700.0182,592.0962,78914394,0.85,0.08510638,54.726475,230.37033,0.018036366,-0.024407387,-0.036732674,3.355443E-6,0.0,0.0
700.5588,593.94556,78914410,0.8625,0.08510638,40.788597,157.30789,0.018036366,-0.024407387,-0.036732674,3.355443E-6,0.0,0.0
701.2496,595.7886,78914427,0.875,0.08510638,40.587524,72.93936,0.06242895,0.01247406,-0.02938652,0.0,0.0,0.0
701.2496,597.37756,78914444,0.8875,0.08510638,25.124298,42.75,0.06242895,0.01247406,-0.02938652,0.0,0.0,0.0
701.2496,596.95056,78914461,0.875,0.08510638,1.9759701,-17.210022,0.06242895,0.01247406,-0.02938652,0.0,0.0,0.0
701.733,596.95056,78914477,0.8875,0.09574468,-3.9852166,-34.108536,0.06242895,0.01247406,-0.02938652,0.0,0.0,0.0
702.2456,596.95056,78914494,0.8875,0.09574468,12.135256,-54.844902,0.06242895,0.01247406,-0.02938652,-1.5005995E-5,7.5029975E-6,0.0
702.772,597.87964,78914511,0.8875,0.09574468,38.0061,-11.802877,0.06242895,0.01247406,-0.02938652,-1.5005995E-5,7.5029975E-6,0.0
703.83154,598.87463,78914527,0.8875,0.09574468,59.99784,46.456997,0.06242895,0.01247406,-0.02938652,-1.5005995E-5,7.5029975E-6,0.0
703.8705,598.94385,78914544,0.875,0.08510638,35.136803,52.728756,0.06242895,0.01247406,-0.02938652,-1.5005995E-5,7.5029975E-6,0.0
704.91077,599.6161,78914561,0.8875,0.08510638,39.42263,49.343464,0.06242895,0.01247406,-0.02938652,0.0,0.0,0.0
705.45197,599.97815,78914577,0.875,0.08510638,40.892513,23.9235,0.06242895,0.01247406,-0.02938652,0.0,0.0,0.0
706.4911,600.5045,78914594,0.8875,0.08510638,52.194138,24.61726,0.06242895,0.01247406,-0.02938652,0.0,0.0,0.0
707.5306,600.5045,78914611,0.8875,0.08510638,69.08828,11.44486,0.06242895,0.01247406,-0.02938652,0.0,0.0,0.0
708.56696,601.39307,78914628,0.90000004,0.08510638,68.20057,20.680496,0.06242895,0.01247406,-0.02938652,3.355443E-6,0.0,0.0
709.60266,601.39307,78914644,0.90000004,0.08510638,70.70889,24.712008,0.06242895,0.01247406,-0.02938652,3.355443E-6,0.0,0.0
710.13446,601.39307,78914661,0.875,0.08510638,51.897697,4.592691,0.06242895,0.01247406,-0.02938652,3.355443E-6,0.0,0.0
711.172,602.14954,78914678,0.90000004,0.10638297,42.099876,11.79101,0.06242895,0.01247406,-0.02938652,3.355443E-6,0.0,0.0
711.7205,603.1245,78914694,0.9125,0.08510638,36.650864,32.679832,0.06242895,0.01247406,-0.02938652,0.0,0.0,0.0
712.7649,603.17004,78914711,0.90000004,0.10638297,47.075302,46.18007,0.06242895,0.01247406,-0.02938652,0.0,0.0,0.0
713.17163,603.17004,78914728,0.90000004,0.09574468,43.79167,32.9509,0.06242895,0.01247406,-0.02938652,0.0,0.0,0.0
714.46356,603.17004,78914745,0.90000004,0.09574468,50.333,-6.3130965,0.06242895,0.01247406,-0.02938652,0.0,0.0,0.0
714.88214,603.17004,78914761,0.9125,0.09574468,45.623768,-24.536713,0.06242895,0.01247406,-0.02938652,0.0,0.0,0.0
715.95667,603.17004,78914778,0.90000004,0.09574468,53.684715,-13.193402,0.06242895,0.01247406,-0.02938652,0.0,0.0,0.0
716.46185,603.17004,78914795,0.90000004,0.09574468,50.079666,-0.03748631,0.06242895,0.01247406,-0.02938652,0.0,0.0,0.0
717.501,603.17004,78914811,0.9125,0.09574468,46.836674,-0.013799502,0.06242895,0.01247406,-0.02938652,0.0,0.0,0.0
718.04224,603.17004,78914828,0.90000004,0.08510638,43.250996,-0.011315036,0.06242895,0.01247406,-0.02938652,4.7453127E-6,-4.7453127E-6,0.0
718.58,603.17004,78914845,0.9125,0.09574468,28.489752,-0.024441963,0.06242895,0.01247406,-0.02938652,4.7453127E-6,-4.7453127E-6,0.0
718.7439,603.17004,78914862,0.9125,0.09574468,18.76676,0.057575,0.06242895,0.01247406,-0.02938652,4.7453127E-6,-4.7453127E-6,0.0
719.6444,603.17004,78914878,0.9125,0.09574468,18.209942,0.02711994,0.06242895,0.01247406,-0.02938652,4.7453127E-6,-4.7453127E-6,0.0
720.2434,603.17004,78914895,0.9125,0.08510638,36.11444,0.04445853,0.06242895,0.01247406,-0.02938652,0.0,0.0,0.0
721.22217,603.17004,78914912,0.9125,0.09574468,53.588585,0.034411058,0.06242895,0.01247406,-0.02938652,0.0,0.0,0.0
721.75836,603.17004,78914928,0.90000004,0.08510638,53.914387,0.021650372,0.06242895,0.01247406,-0.02938652,0.0,0.0,0.0
722.8161,603.17004,78914945,0.90000004,0.09574468,55.444633,0.018128198,0.06242895,0.01247406,-0.02938652,0.0,0.0,0.0
723.8249,603.17004,78914962,0.8875,0.09574468,57.35836,0.008071191,-0.046056986,0.009979248,0.080491066,0.0,0.0,0.0
724.49194,603.17004,78914975,0.90000004,0.09574468,63.909634,0.056891747,-0.046056986,0.009979248,0.080491066,0.0,0.0,0.0
725.4283,604.0586,78914995,0.90000004,0.09574468,52.054413,23.840008,-0.046056986,0.009979248,0.080491066,0.0,0.0,0.0
726.46576,604.0586,78915012,0.8875,0.08510638,54.806076,31.281038,-0.046056986,0.009979248,0.080491066,0.0,0.0,0.0
727.49884,604.0586,78915029,0.8875,0.09574468,59.62442,17.80048,-0.046056986,0.009979248,0.080491066,4.7453127E-6,0.0,0.0
728.841,604.0586,78915045,0.875,0.08510638,73.90358,-3.1657093,-0.046056986,0.009979248,0.080491066,4.7453127E-6,0.0,0.0
730.0773,604.0586,78915062,0.875,0.08510638,86.937546,-15.626838,-0.046056986,0.009979248,0.080491066,4.7453127E-6,0.0,0.0
731.3827,604.0586,78915079,0.8625,0.08510638,78.565125,-9.045903,-0.046056986,0.009979248,0.080491066,4.7453127E-6,0.0,0.0
733.58356,604.0586,78915095,0.875,0.08510638,106.97011,-0.012881431,-0.046056986,0.009979248,0.080491066,-4.7453127E-6,4.7453127E-6,0.0
735.6668,604.0586,78915112,0.8625,0.08510638,134.57158,0.02789836,-0.046056986,0.009979248,0.080491066,-4.7453127E-6,4.7453127E-6,0.0
737.745,604.0586,78915129,0.8625,0.08510638,146.85716,0.009050643,-0.046056986,0.009979248,0.080491066,-4.7453127E-6,4.7453127E-6,0.0
739.829,604.0586,78915146,0.83750004,0.09574468,146.87057,-0.038437117,-0.046056986,0.009979248,0.080491066,-4.7453127E-6,4.7453127E-6,0.0
741.8951,604.0586,78915162,0.85,0.09574468,128.57349,0.012896013,-0.046056986,0.009979248,0.080491066,3.355443E-6,0.0,0.0
745.1146,602.057,78915179,0.83750004,0.09574468,155.27249,-54.495422,-0.046056986,0.009979248,0.080491066,3.355443E-6,0.0,0.0
748.24554,601.0902,78915196,0.825,0.08510638,191.38867,-90.34509,-0.046056986,0.009979248,0.080491066,3.355443E-6,0.0,0.0
751.83826,599.25757,78915213,0.85,0.08510638,229.13092,-127.43007,-0.046056986,0.009979248,0.080491066,3.355443E-6,0.0,0.0
754.4559,597.4104,78915229,0.83750004,0.08510638,213.20639,-139.50775,-0.046056986,0.009979248,0.080491066,-0.0,0.0,0.0
757.8638,595.55884,78915246,0.85,0.07446808,185.00781,-127.14457,-0.046056986,0.009979248,0.080491066,-0.0,0.0,0.0
761.511,593.14685,78915263,0.85,0.07446808,194.91298,-136.72772,-0.046056986,0.009979248,0.080491066,-0.0,0.0,0.0
765.15906,590.34875,78915279,0.83750004,0.06382979,217.61328,-154.00023,-0.046056986,0.009979248,0.080491066,-0.0,0.0,0.0
768.75543,586.708,78915296,0.83750004,0.08510638,237.09032,-206.3881,-0.046056986,0.009979248,0.080491066,2.0684325E-5,-2.0684325E-5,0.0
772.93427,582.9939,78915313,0.83750004,0.08510638,242.31091,-248.1411,-0.046056986,0.009979248,0.080491066,2.0684325E-5,-2.0684325E-5,0.0
778.6072,579.2638,78915329,0.83750004,0.08510638,292.0179,-264.4198,-0.046056986,0.009979248,0.080491066,2.0684325E-5,-2.0684325E-5,0.0
783.28485,575.5714,78915346,0.825,0.10638297,335.80496,-248.02867,-0.046056986,0.009979248,0.080491066,2.0684325E-5,-2.0684325E-5,0.0
788.4991,571.875,78915363,0.825,0.12765957,344.3665,-233.80989,-0.046056986,0.009979248,0.080491066,-8.6982946E-5,2.1745736E-5,0.0
793.70276,568.1749,78915380,0.8,0.12765957,330.4256,-222.18549,-0.046056986,0.009979248,0.080491066,-8.6982946E-5,2.1745736E-5,0.0
799.00946,562.4839,78915396,0.8,0.11702127,310.3031,-274.80438,-0.046056986,0.009979248,0.080491066,-8.6982946E-5,2.1745736E-5,0.0
804.6385,556.7634,78915413,0.8125,0.09574468,328.33655,-340.28363,-0.046056986,0.009979248,0.080491066,-8.6982946E-5,2.1745736E-5,0.0
812.40826,547.97754,78915430,0.8125,0.07446808,401.09042,-463.70636,-0.046056986,0.009979248,0.080491066,-4.7453127E-6,4.7453127E-6,0.0
821.766,536.9188,78915446,0.825,0.08510638,526.137,-648.05194,-0.046056986,0.009979248,0.080491066,-4.7453127E-6,4.7453127E-6,0.0
834.4258,524.52673,78915463,0.825,0.10638297,732.8518,-817.9259,-0.046056986,0.009979248,0.080491066,-4.7453127E-6,4.7453127E-6,0.0
849.5009,511.08813,78915480,0.825,0.11702127,928.6462,-923.23285,-0.046056986,0.009979248,0.080491066,-4.7453127E-6,4.7453127E-6,0.0
869.18146,494.34033,78915497,0.7875,0.07446808,1183.391,-1006.969,0.027154684,-0.024016619,0.04839325,0.0,0.0,0.0
892.0455,475.51428,78915513,0.825,0.08510638,1408.3628,-1124.0151,0.027154684,-0.024016619,0.04839325,0.0,0.0,0.0
916.5835,458.43726,78915530,0.8,0.12765957,1602.4578,-1199.6594,0.027154684,-0.024016619,0.04839325,0.0,0.0,0.0
942.809,441.70374,78915547,0.825,0.08510638,1746.249,-1161.7339,0.027154684,-0.024016619,0.04839325,0.0,0.0,0.0
970.86633,425.052,78915563,0.8125,0.08510638,1826.1323,-1057.87,0.027154684,-0.024016619,0.04839325,0.0,0.0,0.0
997.23145,415.15662,78915580,0.825,0.10638297,1779.1677,-791.20856,0.027154684,-0.024016619,0.04839325,0.0,0.0,0.0
1019.76917,409.28772,78915597,0.7875,0.12765957,1569.8948,-443.5369,0.027154684,-0.024016619,0.04839325,0.0,0.0,0.0
1038.7596,408.5879,78915614,0.8125,0.10638297,1274.8807,-36.400833,0.027154684,-0.024016619,0.04839325,0.0,0.0,0.0
1052.5995,409.7937,78915630,0.825,0.09574468,884.0208,301.35345,0.027154684,-0.024016619,0.04839325,-3.355443E-6,0.0,0.0
1062.2158,412.0575,78915647,0.825,0.10638297,503.36978,381.44147,0.027154684,-0.024016619,0.04839325,-3.355443E-6,0.0,0.0
1067.1823,414.8534,78915664,0.85,0.09574468,165.8083,358.7406,0.027154684,-0.024016619,0.04839325,-3.355443E-6,0.0,0.0
1070.2277,418.0044,78915680,0.875,0.09574468,-59.731823,292.59723,0.027154684,-0.024016619,0.04839325,-3.355443E-6,0.0,0.0
1072.4645,423.4132,78915697,0.875,0.09574468,-115.79497,290.3043,0.027154684,-0.024016619,0.04839325,3.355443E-6,0.0,0.0
1071.8939,430.094,78915714,0.8625,0.07446808,-140.264,395.74918,0.027154684,-0.024016619,0.04839325,3.355443E-6,0.0,0.0
1067.6124,436.50586,78915731,0.85,0.08510638,-240.28676,472.19037,0.027154684,-0.024016619,0.04839325,3.355443E-6,0.0,0.0
1050.2367,451.23535,78915747,0.83750004,0.10638297,-663.34204,658.6268,0.027154684,-0.024016619,0.04839325,3.355443E-6,0.0,0.0
1022.62744,468.1272,78915764,0.875,0.08510638,-1538.9525,1018.74994,0.027154684,-0.024016619,0.04839325,-0.0,0.0,0.0
992.46985,483.8031,78915781,0.8625,0.08510638,-2235.0522,1209.158,0.027154684,-0.024016619,0.04839325,-0.0,0.0,0.0
960.01953,498.578,78915797,0.90000004,0.09574468,-2530.4285,1198.1687,0.027154684,-0.024016619,0.04839325,-0.0,0.0,0.0
925.29913,512.2273,78915814,0.90000004,0.12765957,-2516.215,982.92523,0.027154684,-0.024016619,0.04839325,-0.0,0.0,0.0
891.15454,526.0377,78915831,0.8875,0.08510638,-2304.272,772.982,0.027154684,-0.024016619,0.04839325,1.709958E-4,-4.885594E-5,0.0
861.8827,539.86926,78915847,0.8625,0.07446808,-2047.2815,755.08844,0.027154684,-0.024016619,0.04839325,1.709958E-4,-4.885594E-5,0.0
835.7898,552.35583,78915864,0.875,0.09574468,-1683.0457,770.9116,0.027154684,-0.024016619,0.04839325,1.709958E-4,-4.885594E-5,0.0
817.5789,562.0814,78915881,0.83750004,0.12765957,-1189.7579,667.07184,0.027154684,-0.024016619,0.04839325,1.709958E-4,-4.885594E-5,0.0
805.7534,569.08826,78915898,0.85,0.10638297,-673.7889,463.0958,0.027154684,-0.024016619,0.04839325,-3.0198984E-5,0.0,0.0
798.14734,574.8008,78915914,0.875,0.08510638,-227.80789,255.48341,0.027154684,-0.024016619,0.04839325,-3.0198984E-5,0.0,0.0
794.5793,579.42896,78915931,0.8625,0.06382979,79.958694,137.68521,0.027154684,-0.024016619,0.04839325,-3.0198984E-5,0.0,0.0
794.13196,584.2009,78915948,0.90000004,0.07446808,221.57764,148.043,0.027154684,-0.024016619,0.04839325,-3.0198984E-5,0.0,0.0
797.0743,588.8259,78915964,0.875,0.07446808,329.7476,198.6372,0.027154684,-0.024016619,0.04839325,8.55473E-5,-1.710946E-5,0.0
810.917,596.1522,78915981,0.8625,0.08510638,702.0431,327.36044,0.027154684,-0.024016619,0.04839325,8.55473E-5,-1.710946E-5,0.0
831.7805,602.56775,78915998,0.8625,0.08510638,1266.3345,419.26865,0.027154684,-0.024016619,0.04839325,8.55473E-5,-1.710946E-5,0.0
853.5875,609.14,78916015,0.83750004,0.11702127,1693.5706,446.4778,0.027154684,-0.024016619,0.04839325,8.55473E-5,-1.710946E-5,0.0
875.6348,614.48303,78916031,0.8625,0.10638297,1815.3936,405.81656,0.053723812,-0.035213232,0.20671463,5.3687072E-5,0.0,0.0
894.5511,622.13794,78916048,0.825,0.09574468,1567.6746,390.24332,0.053723812,-0.035213232,0.20671463,5.3687072E-5,0.0,0.0
910.74805,628.651,78916065,0.83750004,0.09574468,1159.0663,395.5553,0.053723812,-0.035213232,0.20671463,5.3687072E-5,0.0,0.0
927.20624,634.5554,78916081,0.83750004,0.08510638,873.6788,406.44608,0.053723812,-0.035213232,0.20671463,5.3687072E-5,0.0,0.0
944.874,639.6936,78916098,0.83750004,0.06382979,859.8854,342.76935,0.053723812,-0.035213232,0.20671463,-3.183252E-5,1.0610839E-5,0.0
961.365,641.95325,78916115,0.85,0.08510638,957.6063,196.94748,0.053723812,-0.035213232,0.20671463,-3.183252E-5,1.0610839E-5,0.0
976.3102,641.62854,78916132,0.83750004,0.07446808,970.9409,13.315134,0.053723812,-0.035213232,0.20671463,-3.183252E-5,1.0610839E-5,0.0
989.0475,639.1499,78916148,0.85,0.08510638,817.36615,-183.36263,0.053723812,-0.035213232,0.20671463,-3.183252E-5,1.0610839E-5,0.0
1001.1958,635.43933,78916165,0.83750004,0.08510638,659.8091,-334.5413,0.053723812,-0.035213232,0.20671463,3.183252E-5,-1.0610839E-5,0.0
1013.40015,629.9453,78916182,0.825,0.10638297,604.2256,-420.34717,0.053723812,-0.035213232,0.20671463,3.183252E-5,-1.0610839E-5,0.0
1028.9913,623.4508,78916198,0.8125,0.12765957,760.23175,-471.1315,0.053723812,-0.035213232,0.20671463,3.183252E-5,-1.0610839E-5,0.0
1052.0605,611.2843,78916215,0.8125,0.08510638,1138.9731,-645.6285,0.053723812,-0.035213232,0.20671463,3.183252E-5,-1.0610839E-5,0.0
1080.8257,592.0841,78916232,0.8,0.08510638,1629.1521,-1007.2036,0.053723812,-0.035213232,0.20671463,-1.8981249E-5,1.8981249E-5,0.0
1110.7511,571.8937,78916249,0.7875,0.10638297,2034.7114,-1374.9563,0.053723812,-0.035213232,0.20671463,-1.8981249E-5,1.8981249E-5,0.0
1144.5112,548.391,78916265,0.7875,0.07446808,2282.5076,-1638.9409,0.053723812,-0.035213232,0.20671463,-1.8981249E-5,1.8981249E-5,0.0
1175.5017,527.027,78916282,0.8,0.10638297,2249.099,-1655.6044,0.053723812,-0.035213232,0.20671463,-1.8981249E-5,1.8981249E-5,0.0
1208.5569,508.11548,78916299,0.8,0.10638297,2074.902,-1369.285,0.053723812,-0.035213232,0.20671463,0.0,-0.0,0.0
1247.0035,487.5724,78916315,0.8125,0.08510638,2127.9927,-1174.4121,0.053723812,-0.035213232,0.20671463,0.0,-0.0,0.0
1285.9387,465.31824,78916332,0.7,0.09574468,2317.1536,-1160.6971,0.053723812,-0.035213232,0.20671463,0.0,-0.0,0.0
1293.5568,461.00952,78916335,0.38750002,0.12765957,2378.3315,-1201.1002,0.053723812,-0.035213232,0.20671463,0.0,-0.0,0.0
1293.5568,461.00952,78916344,0.38750002,0.12765957,2378.3315,-1201.1002,0.053723812,-0.035213232,0.20671463,0.0,-0.0,0.0
1277.0621,473.4486,78916941,0.825,0.08510638,0.0,0.0,-0.03702092,0.019829273,-0.17062855,0.0,0.0,0.0
1277.0621,473.4486,78916967,0.85,0.08510638,-0.0543527,-0.025321756,-0.03702092,0.019829273,-0.17062855,0.0,0.0,0.0
1277.0621,473.4486,78916984,0.85,0.08510638,0.021673568,0.008008766,-0.03702092,0.019829273,-0.17062855,0.0,0.0,0.0
1251.32,478.92786,78917001,0.85,0.08510638,-1312.0647,281.1546,-0.03702092,0.019829273,-0.17062855,0.0,0.0,0.0
1214.4521,485.78015,78917017,0.85,0.07446808,-2329.877,462.40054,-0.03702092,0.019829273,-0.17062855,0.0,0.0,0.0
1162.3649,494.063,78917034,0.875,0.08510638,-3313.3936,598.53314,-0.03702092,0.019829273,-0.17062855,-2.4196437E-5,0.0,0.0
1095.9591,499.9956,78917051,0.875,0.08510638,-4524.226,608.962,-0.03702092,0.019829273,-0.17062855,-2.4196437E-5,0.0,0.0
1012.9675,505.52856,78917067,0.8625,0.10638297,-5369.892,447.54782,-0.03702092,0.019829273,-0.17062855,-2.4196437E-5,0.0,0.0
924.44507,511.75378,78917084,0.90000004,0.10638297,-6064.1143,302.94925,-0.03702092,0.019829273,-0.17062855,-2.4196437E-5,0.0,0.0
825.44745,519.9369,78917101,0.8875,0.12765957,-6446.8403,359.5229,-0.0136168,-0.03213644,-0.040503502,1.5005995E-5,0.0,0.0
714.6244,534.92444,78917117,0.8625,0.08510638,-6857.3057,615.38165,-0.0136168,-0.03213644,-0.040503502,1.5005995E-5,0.0,0.0
587.5222,557.10474,78917134,0.8,0.11702127,-7700.396,1193.372,-0.0136168,-0.03213644,-0.040503502,1.5005995E-5,0.0,0.0
452.63873,583.16626,78917151,0.875,0.08510638,-8541.087,1689.0427,-0.0136168,-0.03213644,-0.040503502,1.5005995E-5,0.0,0.0
325.85825,612.96765,78917168,0.725,0.09574468,-8785.271,2079.2239,-0.0136168,-0.03213644,-0.040503502,2.4196437E-5,-3.6294656E-5,0.0
188.6076,648.26917,78917184,0.275,0.08510638,-8261.27,2258.0854,-0.0136168,-0.03213644,-0.040503502,2.4196437E-5,-3.6294656E-5,0.0
188.6076,648.26917,78917191,0.275,0.08510638,-8261.27,2258.0854,-0.0136168,-0.03213644,-0.040503502,2.4196437E-5,-3.6294656E-5,0.0
