x,y,timestamp,pressure,fingerarea,velocityx,velocityy,accelx,accely,accelz,gyrox,gyroy,gyroz
384.85257,247.7688,100572257,0.96250004,0.12765957,0.0,0.0,0.01574251,-0.025285676,-0.020777702,0.0,0.0,0.0
384.85257,247.7688,100572278,0.975,0.12765957,-0.05087972,-0.032751743,0.01574251,-0.025285676,-0.020777702,0.0,0.0,0.0
384.85257,247.7688,100572309,0.9875,0.12765957,-8.092516E-4,-4.8040264E-4,0.01574251,-0.025285676,-0.020777702,0.0,0.0,0.0
423.9482,230.1593,100572345,1.0,0.11702127,1299.1206,-590.8513,0.01574251,-0.025285676,-0.020777702,0.0,0.0,0.0
459.122,213.59082,100572362,0.96250004,0.09574468,2235.8247,-1025.6721,0.01574251,-0.025285676,-0.020777702,0.0,0.0,0.0
498.31384,195.09729,100572378,0.95,0.12765957,2830.4182,-1342.7823,0.01574251,-0.025285676,-0.020777702,0.0,0.0,0.0
540.39703,177.67468,100572395,0.975,0.10638297,3084.1052,-1396.2877,-0.0034059957,0.011771459,0.015377998,0.0,0.0,0.0
588.8836,154.7893,100572412,0.9125,0.09574468,2973.0742,-1315.619,-0.0034059957,0.011771459,0.015377998,0.0,0.0,0.0
632.66516,140.29785,100572429,0.8875,0.12765957,3099.308,-1253.3254,-0.0034059957,0.011771459,0.015377998,0.0,0.0,0.0
677.78,128.8761,100572445,0.8625,0.12765957,2973.0095,-889.59186,-0.0034059957,0.011771459,0.015377998,0.0,0.0,0.0
717.0926,122.52637,100572462,0.825,0.10638297,2616.7605,-451.9105,-0.0034059957,0.011771459,0.015377998,0.0,0.0,0.0
750.6109,121.256714,100572479,0.725,0.09574468,2178.653,21.20272,-0.0034059957,0.011771459,0.015377998,0.0,0.0,0.0
759.7305,121.60132,100572490,0.175,0.08510638,1684.0015,251.57661,-0.0034059957,0.011771459,0.015377998,0.0,0.0,0.0
759.7305,121.60132,100572497,0.175,0.08510638,1684.0015,251.57661,-0.0034059957,0.011771459,0.015377998,0.0,0.0,0.0
430.83762,363.27417,100572796,0.75,0.09574468,0.0,0.0,-0.0034059957,0.011771459,0.015377998,0.0,0.0,0.0
430.83762,363.27417,100572813,0.75,0.10638297,1.2481205,1.0610944,-0.0034059957,0.011771459,0.015377998,0.0,0.0,0.0
447.24634,350.77368,100572830,0.75,0.10638297,1570.6775,-1196.6028,-0.0034059957,0.011771459,0.015377998,0.0,0.0,0.0
475.28632,338.66394,100572846,0.71250004,0.09574468,2292.2544,-1190.1152,-0.0034059957,0.011771459,0.015377998,0.0,0.0,0.0
507.5221,326.20886,100572863,0.725,0.06382979,2554.3818,-1050.5717,-0.0034059957,0.011771459,0.015377998,0.0,0.0,0.0
548.78284,316.62146,100572880,0.6875,0.06382979,2904.64,-874.1605,-0.0034059957,0.011771459,0.015377998,0.0,0.0,0.0
589.29486,302.85205,100572896,0.7,0.11702127,2959.96,-676.04944,-0.0034059957,0.011771459,0.015377998,0.0,0.0,0.0
634.48035,283.8601,100572913,0.6875,0.08510638,2933.4214,-879.67,-0.0034059957,0.011771459,0.015377998,0.0,0.0,0.0
676.8341,265.94897,100572930,0.6875,0.06382979,2910.7654,-1207.7048,-0.0027247965,0.009417167,0.028302193,0.0,0.0,0.0
717.9333,252.53271,100572947,0.6625,0.09574468,2626.6016,-1192.7118,-0.0027247965,0.009417167,0.028302193,0.0,0.0,0.0
752.51306,248.65723,100572963,0.6625,0.12765957,2251.854,-674.5025,-0.0027247965,0.009417167,0.028302193,0.0,0.0,0.0
776.7279,253.7085,100572980,0.625,0.08510638,1734.0392,146.10352,-0.0027247965,0.009417167,0.028302193,0.0,0.0,0.0
780.7237,254.87683,100572990,0.26250002,0.08510638,1216.8217,498.0338,-0.0027247965,0.009417167,0.028302193,0.0,0.0,0.0
780.7237,254.87683,100572996,0.26250002,0.08510638,1216.8217,498.0338,-0.0027247965,0.009417167,0.028302193,0.0,0.0,0.0
576.7901,177.57703,100573288,0.875,0.10638297,0.0,0.0,-0.0027247965,0.009417167,0.028302193,0.0,0.0,0.0
573.1446,193.12952,100573331,0.90000004,0.12765957,-396.75748,1692.5757,-0.0027247965,0.009417167,0.028302193,0.0,0.0,0.0
568.2203,222.99463,100573348,0.8875,0.08510638,-422.24808,2333.271,-0.0027247965,0.009417167,0.028302193,0.0,0.0,0.0
563.74567,265.63293,100573364,0.8625,0.08510638,-389.724,3008.8347,-0.0027247965,0.009417167,0.028302193,0.0,0.0,0.0
560.2726,317.47778,100573381,0.7875,0.08510638,-347.2904,3647.9006,-0.0027247965,0.009417167,0.028302193,0.0,0.0,0.0
558.0261,374.3645,100573398,0.7,0.08510638,-133.90726,3984.4062,-0.0027247965,0.009417167,0.028302193,0.0,0.0,0.0
558.01624,425.6587,100573415,0.65000004,0.08510638,-15.765653,3996.6592,-0.0027247965,0.009417167,0.028302193,0.0,0.0,0.0
553.94037,469.463,100573431,0.6375,0.10638297,-23.31771,3293.2034,-0.0027247965,0.009417167,0.028302193,0.0,0.0,0.0
546.1874,491.46875,100573448,0.6625,0.11702127,-274.70892,1976.8762,-0.0027247965,0.009417167,0.028302193,0.0,0.0,0.0
534.6131,508.17603,100573465,0.7375,0.08510638,-620.2052,773.31866,-0.0021798387,-4.6626665E-4,0.0066423416,0.0,0.0,0.0
518.8922,530.7042,100573481,0.77500004,0.08510638,-1009.4911,407.74142,-0.0021798387,-4.6626665E-4,0.0066423416,0.0,0.0,0.0
502.1963,560.1017,100573498,0.7875,0.10638297,-1191.4852,752.1228,-0.0021798387,-4.6626665E-4,0.0066423416,0.0,0.0,0.0
497.8158,573.40515,100573514,0.7875,0.08510638,-937.5274,985.6463,-0.0021798387,-4.6626665E-4,0.0066423416,0.0,0.0,0.0
499.24066,579.04785,100573531,0.77500004,0.06382979,-298.64362,895.5052,-0.0021798387,-4.6626665E-4,0.0066423416,0.0,0.0,0.0
504.9973,580.52234,100573548,0.7875,0.08510638,475.78622,20.32573,-0.0021798387,-4.6626665E-4,0.0066423416,0.0,0.0,0.0
523.18066,570.92993,100573565,0.7625,0.12765957,1110.8534,-682.23615,-0.0021798387,-4.6626665E-4,0.0066423416,0.0,0.0,0.0
549.718,547.8612,100573582,0.7875,0.06382979,1750.5991,-1453.8657,-0.0021798387,-4.6626665E-4,0.0066423416,0.0,0.0,0.0
576.0019,518.8043,100573598,0.7875,0.12765957,2151.9836,-2137.702,-0.0021798387,-4.6626665E-4,0.0066423416,0.0,0.0,0.0
604.4357,488.85168,100573615,0.77500004,0.07446808,2194.9578,-2480.0376,-0.0021798387,-4.6626665E-4,0.0066423416,0.0,0.0,0.0
630.0187,459.68115,100573632,0.7875,0.12765957,1936.9714,-2390.2212,-0.0021798387,-4.6626665E-4,0.0066423416,0.0,0.0,0.0
659.2249,430.8369,100573648,0.77500004,0.07446808,1745.5302,-2050.3127,-0.0021798387,-4.6626665E-4,0.0066423416,0.0,0.0,0.0
686.0457,407.0244,100573665,0.725,0.11702127,1685.0448,-1646.7845,-0.0021798387,-4.6626665E-4,0.0066423416,0.0,0.0,0.0
713.0441,388.81775,100573682,0.7,0.06382979,1673.6495,-1254.066,-0.0021798387,-4.6626665E-4,0.0066423416,0.0,0.0,0.0
729.26135,379.32422,100573699,0.675,0.07446808,1323.3397,-689.3375,-0.0021798387,-4.6626665E-4,0.0066423416,0.0,0.0,0.0
738.01526,374.27197,100573715,0.6625,0.07446808,737.4505,-151.06354,-0.0021798387,-4.6626665E-4,0.0066423416,0.0,0.0,0.0
740.5392,373.39893,100573732,0.6625,0.07446808,62.693207,236.86569,-0.0021798387,-4.6626665E-4,0.0066423416,0.0,0.0,0.0
736.30884,378.7445,100573749,0.675,0.06382979,-529.2861,492.49515,-0.0021798387,-4.6626665E-4,0.0066423416,0.0,0.0,0.0
722.40906,399.28516,100573765,0.6875,0.09574468,-959.2826,1003.3019,-0.0021798387,-4.6626665E-4,0.0066423416,0.0,0.0,0.0
703.67883,426.63513,100573782,0.7,0.08510638,-1434.057,1834.8622,-0.0021798387,-4.6626665E-4,0.0066423416,0.0,0.0,0.0
682.6072,462.8058,100573799,0.71250004,0.09574468,-1646.2527,2435.2805,-0.0021798387,-4.6626665E-4,0.0066423416,0.0,0.0,0.0
670.2521,489.55994,100573816,0.725,0.06382979,-1492.9637,2602.3994,-0.0021798387,-4.6626665E-4,0.0066423416,0.0,0.0,0.0
663.01733,518.9513,100573832,0.71250004,0.09574468,-866.1308,2204.3704,-0.0021798387,-4.6626665E-4,0.0066423416,0.0,0.0,0.0
661.76245,532.8335,100573849,0.7,0.06382979,-145.22195,1450.8641,-0.0021798387,-4.6626665E-4,0.0066423416,0.0,0.0,0.0
664.3063,535.6703,100573866,0.6875,0.06382979,374.62747,390.96786,-0.0021798387,-4.6626665E-4,0.0066423416,0.0,0.0,0.0
676.8191,531.6183,100573882,0.675,0.08510638,818.67926,-519.6413,-0.0021798387,-4.6626665E-4,0.0066423416,0.0,0.0,0.0
700.4101,505.79688,100573899,0.7,0.07446808,1353.8928,-1464.8431,-0.0021798387,-4.6626665E-4,0.0066423416,0.0,0.0,0.0
724.51636,468.26587,100573916,0.675,0.09574468,1878.2423,-2551.267,-0.0021798387,-4.6626665E-4,0.0066423416,0.0,0.0,0.0
748.4681,424.05664,100573933,0.6875,0.11702127,1990.3711,-3194.2524,-0.0021798387,-4.6626665E-4,0.0066423416,0.0,0.0,0.0
765.4463,390.1123,100573949,0.7,0.06382979,1626.806,-3361.203,-0.0021798387,-4.6626665E-4,0.0066423416,0.0,0.0,0.0
774.009,371.15308,100573966,0.725,0.09574468,830.27563,-2196.471,-0.0021798387,-4.6626665E-4,0.0066423416,0.0,0.0,0.0
775.22546,365.4237,100573983,0.71250004,0.09574468,57.346615,-641.7872,-0.0021798387,-4.6626665E-4,0.0066423416,0.0,0.0,0.0
773.84906,369.05615,100573999,0.71250004,0.06382979,-467.02753,632.09174,-0.01774387,-3.7301332E-4,-0.010686874,0.0,0.0,0.0
766.71576,402.8849,100574016,0.71250004,0.12765957,-766.40393,1898.672,-0.01774387,-3.7301332E-4,-0.010686874,0.0,0.0,0.0
762.90094,439.761,100574033,0.675,0.07446808,-640.2025,2842.3804,-0.01774387,-3.7301332E-4,-0.010686874,0.0,0.0,0.0
765.06616,476.13562,100574050,0.65000004,0.08510638,-369.5489,3429.0005,-0.01774387,-3.7301332E-4,-0.010686874,0.0,0.0,0.0
770.2807,491.34558,100574066,0.65000004,0.09574468,163.19612,2484.4497,-0.01774387,-3.7301332E-4,-0.010686874,0.0,0.0,0.0
780.3067,498.70337,100574083,0.6375,0.09574468,647.16156,932.03375,-0.01774387,-3.7301332E-4,-0.010686874,0.0,0.0,0.0
800.8229,497.09802,100574100,0.65000004,0.08510638,1170.0499,-382.2473,-0.01774387,-3.7301332E-4,-0.010686874,0.0,0.0,0.0
827.609,474.5962,100574116,0.6625,0.09574468,1683.3348,-1380.8612,-0.01774387,-3.7301332E-4,-0.010686874,0.0,0.0,0.0
853.38763,438.81543,100574133,0.675,0.08510638,2013.387,-2388.4956,-0.01774387,-3.7301332E-4,-0.010686874,0.0,0.0,0.0
879.6579,384.5514,100574150,0.725,0.06382979,2027.3058,-3397.672,-0.01774387,-3.7301332E-4,-0.010686874,0.0,0.0,0.0
896.681,337.53162,100574167,0.75,0.08510638,1555.8694,-4172.03,-0.01774387,-3.7301332E-4,-0.010686874,0.0,0.0,0.0
900.105,310.14294,100574183,0.77500004,0.12765957,641.419,-3265.1575,-0.01774387,-3.7301332E-4,-0.010686874,0.0,0.0,0.0
897.70825,300.80957,100574200,0.7875,0.10638297,-293.7031,-1385.3496,-0.01774387,-3.7301332E-4,-0.010686874,0.0,0.0,0.0
884.83435,303.39624,100574217,0.7875,0.12765957,-1050.7393,469.75354,-0.01774387,-3.7301332E-4,-0.010686874,0.0,0.0,0.0
864.8434,324.2351,100574233,0.7625,0.08510638,-1606.893,1793.3284,-0.01774387,-3.7301332E-4,-0.010686874,0.0,0.0,0.0
842.4075,363.59863,100574250,0.7625,0.09574468,-1728.8418,2522.0654,-0.01774387,-3.7301332E-4,-0.010686874,0.0,0.0,0.0
834.75305,387.90198,100574267,0.7375,0.08510638,-1530.4192,3002.6753,-0.01774387,-3.7301332E-4,-0.010686874,0.0,0.0,0.0
839.44977,409.14807,100574283,0.71250004,0.08510638,-429.24243,2401.5103,-0.01774387,-3.7301332E-4,-0.010686874,0.0,0.0,0.0
857.36505,418.24536,100574300,0.65000004,0.08510638,893.3259,1242.5795,-0.01774387,-3.7301332E-4,-0.010686874,0.0,0.0,0.0
893.11957,423.88293,100574317,0.6375,0.06382979,2270.4321,169.73611,-0.01774387,-3.7301332E-4,-0.010686874,0.0,0.0,0.0
931.53955,422.26367,100574334,0.625,0.08510638,3105.747,-459.54718,-0.01774387,-3.7301332E-4,-0.010686874,0.0,0.0,0.0
957.3037,419.4475,100574350,0.58750004,0.08510638,2905.4304,-570.285,-0.01774387,-3.7301332E-4,-0.010686874,0.0,0.0,0.0
976.5974,418.76294,100574367,0.575,0.08510638,1846.2097,-465.28406,-0.01774387,-3.7301332E-4,-0.010686874,0.0,0.0,0.0
984.25916,421.1172,100574384,0.625,0.06382979,594.8238,-196.09477,-0.01774387,-3.7301332E-4,-0.010686874,0.0,0.0,0.0
986.34106,430.84595,100574400,0.65000004,0.06382979,-231.49185,341.93716,-0.01774387,-3.7301332E-4,-0.010686874,0.0,0.0,0.0
982.41016,462.77185,100574417,0.6375,0.12765957,-669.6278,1308.086,-0.01774387,-3.7301332E-4,-0.010686874,0.0,0.0,0.0
976.6393,488.87585,100574434,0.6375,0.08510638,-811.91223,2175.7998,-0.01774387,-3.7301332E-4,-0.010686874,0.0,0.0,0.0
975.1604,509.68164,100574451,0.6375,0.12765957,-627.92084,2244.7292,-0.01774387,-3.7301332E-4,-0.010686874,0.0,0.0,0.0
978.55994,514.2844,100574467,0.65000004,0.11702127,-216.07965,1380.4586,-0.01774387,-3.7301332E-4,-0.010686874,0.0,0.0,0.0
994.5343,500.59473,100574484,0.65000004,0.06382979,597.5294,-395.89352,-0.01774387,-3.7301332E-4,-0.010686874,0.0,0.0,0.0
1025.2549,452.25854,100574501,0.675,0.08510638,1616.6345,-2453.2668,-0.01774387,-3.7301332E-4,-0.010686874,0.0,0.0,0.0
1064.3724,376.3744,100574517,0.7,0.08510638,2699.903,-4836.723,-0.01774387,-3.7301332E-4,-0.010686874,0.0,0.0,0.0
1104.0613,295.92224,100574534,0.71250004,0.10638297,3155.3088,-6321.9614,0.0018049031,0.0077015907,-0.024549484,0.0,0.0,0.0
1142.6201,219.35718,100574551,0.71250004,0.09574468,2951.5466,-6252.5127,0.0018049031,0.0077015907,-0.024549484,0.0,0.0,0.0
1168.2046,161.87488,100574568,0.725,0.06382979,2278.999,-5121.435,0.0018049031,0.0077015907,-0.024549484,0.0,0.0,0.0
1187.2806,106.82471,100574584,0.7375,0.08510638,1258.9916,-3344.0264,0.0018049031,0.0077015907,-0.024549484,0.0,0.0,0.0
1198.7112,61.761963,100574601,0.7375,0.09574468,716.65607,-2799.3381,0.0018049031,0.0077015907,-0.024549484,0.0,0.0,0.0
1199.4268,36.353394,100574618,0.71250004,0.12765957,-52.40975,-1796.0278,0.0018049031,0.0077015907,-0.024549484,0.0,0.0,0.0
1194.5842,27.28955,100574634,0.71250004,0.12765957,-672.1741,-396.11298,0.0018049031,0.0077015907,-0.024549484,0.0,0.0,0.0
1171.056,34.848145,100574651,0.725,0.10638297,-1315.0995,797.2682,0.0018049031,0.0077015907,-0.024549484,0.0,0.0,0.0
1130.7228,68.512085,100574668,0.71250004,0.09574468,-2383.4434,2213.1802,0.0018049031,0.0077015907,-0.024549484,0.0,0.0,0.0
1088.5714,116.94287,100574685,0.725,0.12765957,-3184.3025,3468.5273,0.0018049031,0.0077015907,-0.024549484,0.0,0.0,0.0
1048.2468,174.02686,100574701,0.7375,0.12765957,-3434.9922,4419.226,0.0018049031,0.0077015907,-0.024549484,0.0,0.0,0.0
1003.71204,257.65088,100574718,0.7375,0.09574468,-3175.424,5340.345,0.0018049031,0.0077015907,-0.024549484,0.0,0.0,0.0
975.4756,313.0631,100574735,0.71250004,0.09574468,-2427.0608,5182.055,0.0018049031,0.0077015907,-0.024549484,0.0,0.0,0.0
948.0847,370.22083,100574751,0.7375,0.06382979,-1785.9104,4494.474,0.0018049031,0.0077015907,-0.024549484,0.0,0.0,0.0
928.38855,411.63745,100574768,0.71250004,0.09574468,-1183.4666,3226.5447,0.0018049031,0.0077015907,-0.024549484,0.0,0.0,0.0
918.9241,434.37085,100574785,0.725,0.09574468,-511.61432,1507.6422,0.0018049031,0.0077015907,-0.024549484,0.0,0.0,0.0
919.50226,440.17334,100574802,0.725,0.11702127,156.34981,98.72999,0.0018049031,0.0077015907,-0.024549484,0.0,0.0,0.0
939.22784,431.41064,100574818,0.725,0.06382979,1060.9701,-1088.864,0.0018049031,0.0077015907,-0.024549484,0.0,0.0,0.0
988.12305,388.18176,100574835,0.725,0.11702127,2582.1228,-2522.314,0.0018049031,0.0077015907,-0.024549484,0.0,0.0,0.0
1040.3529,338.3158,100574852,0.71250004,0.12765957,3952.6128,-3870.4414,0.0018049031,0.0077015907,-0.024549484,0.0,0.0,0.0
1091.9287,294.70154,100574868,0.6875,0.12765957,4445.2295,-4235.9854,0.0018049031,0.0077015907,-0.024549484,0.0,0.0,0.0
1126.8837,275.40662,100574885,0.675,0.07446808,3732.7512,-3259.2224,0.0018049031,0.0077015907,-0.024549484,0.0,0.0,0.0
1143.9924,275.43738,100574902,0.675,0.08510638,1890.2118,-855.2531,0.0018049031,0.0077015907,-0.024549484,0.0,0.0,0.0
1149.0441,323.3733,100574918,0.625,0.07446808,277.40518,2088.791,0.0018049031,0.0077015907,-0.024549484,0.0,0.0,0.0
1124.0721,389.16748,100574935,0.625,0.08510638,-1359.175,4648.6587,0.0018049031,0.0077015907,-0.024549484,0.0,0.0,0.0
1095.8053,436.85034,100574952,0.6125,0.11702127,-2620.732,5520.1187,0.0018049031,0.0077015907,-0.024549484,0.0,0.0,0.0
1062.3787,480.0879,100574969,0.6375,0.06382979,-3127.3628,4629.6606,0.0018049031,0.0077015907,-0.024549484,0.0,0.0,0.0
1038.8903,501.65808,100574985,0.675,0.12765957,-2606.7292,2058.833,0.0018049031,0.0077015907,-0.024549484,0.0,0.0,0.0
1030.1144,508.10022,100575002,0.7,0.12765957,-1304.682,156.08722,0.0018049031,0.0077015907,-0.024549484,0.0,0.0,0.0
1038.9937,498.62573,100575019,0.725,0.08510638,142.89307,-923.8257,0.0018049031,0.0077015907,-0.024549484,0.0,0.0,0.0
1091.3857,450.85962,100575035,0.7,0.12765957,2304.5361,-2517.1746,0.0018049031,0.0077015907,-0.024549484,0.0,0.0,0.0
1155.9847,399.63757,100575052,0.6875,0.11702127,4543.0425,-4049.6196,0.0018049031,0.0077015907,-0.024549484,0.0,0.0,0.0
1221.231,356.55798,100575069,0.675,0.08510638,5617.9155,-4352.597,0.033443928,-0.0018387269,-0.0036401749,0.0,0.0,0.0
1273.8745,335.1128,100575086,0.6625,0.08510638,5234.609,-3296.8596,0.033443928,-0.0018387269,-0.0036401749,0.0,0.0,0.0
1308.0929,335.80176,100575102,0.58750004,0.08510638,3318.739,-806.13995,0.033443928,-0.0018387269,-0.0036401749,0.0,0.0,0.0
1320.3757,346.91028,100575119,0.575,0.09574468,1173.6472,1141.2125,0.033443928,-0.0018387269,-0.0036401749,0.0,0.0,0.0
1329.3047,373.6969,100575136,0.575,0.08510638,-163.31981,2355.4072,0.033443928,-0.0018387269,-0.0036401749,0.0,0.0,0.0
1325.3607,402.3833,100575152,0.6,0.09574468,-970.7198,2753.4946,0.033443928,-0.0018387269,-0.0036401749,0.0,0.0,0.0
1320.198,417.82874,100575169,0.6375,0.07446808,-1182.4515,2241.9417,0.033443928,-0.0018387269,-0.0036401749,0.0,0.0,0.0
1319.7684,423.1953,100575186,0.6625,0.07446808,-889.8812,1212.6509,0.033443928,-0.0018387269,-0.0036401749,0.0,0.0,0.0
1330.3534,423.68408,100575203,0.65000004,0.06382979,-102.97318,-124.95363,0.033443928,-0.0018387269,-0.0036401749,0.0,0.0,0.0
1360.9473,417.2567,100575219,0.625,0.09574468,1291.4941,-731.6961,0.033443928,-0.0018387269,-0.0036401749,0.0,0.0,0.0
1384.2847,408.5055,100575236,0.5375,0.10638297,2203.2007,-964.6386,0.033443928,-0.0018387269,-0.0036401749,0.0,0.0,0.0
1394.6571,381.4663,100575286,0.45000002,0.06382979,-264.59222,-688.2881,0.033443928,-0.0018387269,-0.0036401749,0.0,0.0,0.0
1338.2782,366.7921,100575303,0.6,0.08510638,-2800.4485,-822.00793,0.033443928,-0.0018387269,-0.0036401749,0.0,0.0,0.0
1246.3005,368.75256,100575320,0.6,0.08510638,-5677.157,-391.4791,0.033443928,-0.0018387269,-0.0036401749,0.0,0.0,0.0
1154.1929,384.3828,100575336,0.6,0.06382979,-7208.2466,1094.108,0.033443928,-0.0018387269,-0.0036401749,0.0,0.0,0.0
1037.1157,408.14587,100575353,0.575,0.10638297,-8115.183,1811.1628,0.033443928,-0.0018387269,-0.0036401749,0.0,0.0,0.0
921.3591,431.88525,100575370,0.55,0.06382979,-8478.128,2200.6404,0.033443928,-0.0018387269,-0.0036401749,0.0,0.0,0.0
807.27356,445.3324,100575386,0.52500004,0.08510638,-7887.7407,1941.3378,0.033443928,-0.0018387269,-0.0036401749,0.0,0.0,0.0
698.8636,437.51953,100575403,0.6125,0.08510638,-7097.012,415.63733,0.033443928,-0.0018387269,-0.0036401749,0.0,0.0,0.0
591.53253,412.82654,100575420,0.625,0.07446808,-6279.111,-1311.9355,0.033443928,-0.0018387269,-0.0036401749,0.0,0.0,0.0
481.54547,376.26306,100575437,0.6875,0.08510638,-6314.2515,-2785.7554,0.033443928,-0.0018387269,-0.0036401749,0.0,0.0,0.0
385.48972,351.11768,100575453,0.7625,0.12765957,-5950.916,-3030.9758,0.033443928,-0.0018387269,-0.0036401749,0.0,0.0,0.0
336.36835,346.39258,100575465,0.55,0.12765957,-5501.657,-2595.879,0.033443928,-0.0018387269,-0.0036401749,0.0,0.0,0.0
336.36835,346.39258,100575471,0.55,0.12765957,-5501.657,-2595.879,0.033443928,-0.0018387269,-0.0036401749,0.0,0.0,0.0
