x,y,timestamp,pressure,fingerarea,velocityx,velocityy,accelx,accely,accelz,gyrox,gyroy,gyroz
244.89813,255.76526,13041353,0.55,0.08510638,0.0,0.0,-0.0091021545,-0.008985236,-0.015608788,0.0,0.0,0.0
244.89813,255.76526,13041371,0.6375,0.09574468,-0.10821311,-0.111083806,-0.0091021545,-0.008985236,-0.015608788,0.0,0.0,0.0
244.89813,255.76526,13041387,0.6875,0.09574468,-0.017037999,-0.0180843,-0.0091021545,-0.008985236,-0.015608788,0.0,0.0,0.0
244.89813,255.76526,13041404,0.725,0.10638297,0.01439282,0.014738539,-0.0091021545,-0.008985236,-0.015608788,0.0,0.0,0.0
244.89813,255.76526,13041421,0.7625,0.10638297,-0.004538607,-0.0032245782,-0.0091021545,-0.008985236,-0.015608788,0.0,0.0,0.0
244.89813,255.76526,13041437,0.8,0.09574468,-0.018677527,-0.01965198,-0.0091021545,-0.008985236,-0.015608788,0.0,0.0,0.0
244.89813,255.76526,13041454,0.8125,0.09574468,0.0021430023,0.001696745,-0.0091021545,-0.008985236,-0.015608788,0.0,0.0,0.0
244.89813,255.76526,13041469,0.8125,0.08510638,0.014071932,0.014274592,-0.0091021545,-0.008985236,-0.015608788,0.0,0.0,0.0
225.7109,271.43152,13041505,0.83750004,0.08510638,-542.23584,428.85504,-0.0091021545,-0.008985236,-0.015608788,0.0,0.0,0.0
218.33783,282.54297,13041521,0.8,0.12765957,-789.5576,789.90204,-0.0091021545,-0.008985236,-0.015608788,0.0,0.0,0.0
213.40332,296.65454,13041538,0.85,0.11702127,-603.5583,1046.9755,0.0087182745,-0.023188174,-0.0124874115,0.0,0.0,0.0
209.12964,317.8429,13041555,0.825,0.09574468,-373.37247,1304.4006,0.0087182745,-0.023188174,-0.0124874115,0.0,0.0,0.0
205.94034,335.29468,13041571,0.85,0.12765957,30.344986,1260.2788,0.0087182745,-0.023188174,-0.0124874115,0.0,0.0,0.0
202.1623,353.27747,13041588,0.83750004,0.11702127,11.181098,1244.6348,0.0087182745,-0.023188174,-0.0124874115,0.0,0.0,0.0
195.16077,374.09473,13041605,0.83750004,0.08510638,-230.07758,1271.0487,0.0087182745,-0.023188174,-0.0124874115,0.0,0.0,0.0
188.9538,385.43677,13041621,0.83750004,0.10638297,-410.75143,977.73553,0.0087182745,-0.023188174,-0.0124874115,0.0,0.0,0.0
178.48378,399.8396,13041638,0.83750004,0.09574468,-585.3007,798.22705,0.0087182745,-0.023188174,-0.0124874115,0.0,0.0,0.0
165.3808,415.5548,13041655,0.825,0.08510638,-779.8591,721.4058,0.0087182745,-0.023188174,-0.0124874115,0.0,0.0,0.0
151.22008,429.97485,13041672,0.83750004,0.08510638,-949.0844,761.1143,0.0087182745,-0.023188174,-0.0124874115,0.0,0.0,0.0
136.3727,439.84326,13041688,0.83750004,0.09574468,-1043.3887,775.67004,0.0087182745,-0.023188174,-0.0124874115,0.0,0.0,0.0
125.132,444.76953,13041705,0.85,0.09574468,-938.44617,503.65387,0.0087182745,-0.023188174,-0.0124874115,0.0,0.0,0.0
117.593124,444.17346,13041722,0.85,0.10638297,-638.82623,-13.248068,0.0087182745,-0.023188174,-0.0124874115,0.0,0.0,0.0
113.54521,440.6975,13041738,0.83750004,0.08510638,-288.02454,-392.18176,0.0087182745,-0.023188174,-0.0124874115,0.0,0.0,0.0
109.725784,426.2212,13041755,0.85,0.10638297,-50.536102,-813.30884,0.0087182745,-0.023188174,-0.0124874115,0.0,0.0,0.0
110.539444,415.71753,13041772,0.85,0.12765957,118.714264,-1056.6992,0.0087182745,-0.023188174,-0.0124874115,0.0,0.0,0.0
112.09601,409.8153,13041789,0.85,0.10638297,213.78557,-917.12726,0.0087182745,-0.023188174,-0.0124874115,0.0,0.0,0.0
115.83934,404.724,13041805,0.8625,0.09574468,298.28723,-537.13916,0.0087182745,-0.023188174,-0.0124874115,0.0,0.0,0.0
123.16234,401.0968,13041822,0.85,0.09574468,453.59814,-185.23984,0.0087182745,-0.023188174,-0.0124874115,0.0,0.0,0.0
131.97765,401.04504,13041839,0.83750004,0.12765957,616.76575,68.49458,0.0087182745,-0.023188174,-0.0124874115,0.0,0.0,0.0
140.30174,405.72437,13041855,0.83750004,0.11702127,687.7842,214.18315,0.0087182745,-0.023188174,-0.0124874115,0.0,0.0,0.0
149.08308,414.2008,13041872,0.83750004,0.08510638,661.0202,533.6039,0.0087182745,-0.023188174,-0.0124874115,0.0,0.0,0.0
158.64203,425.64905,13041889,0.83750004,0.08510638,579.6813,852.74335,0.0087182745,-0.023188174,-0.0124874115,0.0,0.0,0.0
168.07645,436.18408,13041906,0.85,0.09574468,572.83124,936.7506,0.0087182745,-0.023188174,-0.0124874115,0.0,0.0,0.0
180.25696,447.09363,13041922,0.85,0.10638297,650.96124,849.6256,0.0087182745,-0.023188174,-0.0124874115,0.0,0.0,0.0
192.8205,456.4906,13041939,0.825,0.12765957,764.1671,694.5,0.0087182745,-0.023188174,-0.0124874115,0.0,0.0,0.0
203.8082,464.84558,13041956,0.8125,0.08510638,776.3783,533.7468,0.0087182745,-0.023188174,-0.0124874115,0.0,0.0,0.0
217.39032,472.20923,13041972,0.825,0.08510638,807.03046,435.1312,0.0087182745,-0.023188174,-0.0124874115,0.0,0.0,0.0
232.66898,480.09082,13041989,0.825,0.08510638,838.98285,391.64764,0.0087182745,-0.023188174,-0.0124874115,0.0,0.0,0.0
244.7651,483.92322,13042006,0.8125,0.09574468,850.1861,298.58917,0.0087182745,-0.023188174,-0.0124874115,0.0,0.0,0.0
254.99692,484.99915,13042022,0.825,0.09574468,787.9016,141.59067,0.0087182745,-0.023188174,-0.0124874115,0.0,0.0,0.0
265.4604,483.28064,13042039,0.825,0.08510638,619.5468,-113.7255,0.0087182745,-0.023188174,-0.0124874115,0.0,0.0,0.0
273.81094,479.5807,13042056,0.825,0.08510638,501.2717,-333.44226,0.0087182745,-0.023188174,-0.0124874115,0.0,0.0,0.0
279.0792,475.94336,13042073,0.83750004,0.08510638,319.52005,-413.84998,0.022974618,0.029449463,-0.025990486,0.0,0.0,0.0
281.8684,472.2849,13042089,0.85,0.09574468,133.75461,-366.4442,0.022974618,0.029449463,-0.025990486,0.0,0.0,0.0
283.26965,470.1007,13042106,0.85,0.09574468,-40.862953,-252.82275,0.022974618,0.029449463,-0.025990486,0.0,0.0,0.0
283.79276,468.28235,13042123,0.85,0.09574468,-113.01445,-121.93584,0.022974618,0.029449463,-0.025990486,0.0,0.0,0.0
284.3677,467.26038,13042139,0.825,0.09574468,-99.25479,-49.454597,0.022974618,0.029449463,-0.025990486,0.0,0.0,0.0
286.38464,466.34058,13042149,0.575,0.10638297,-48.723495,-26.614862,0.022974618,0.029449463,-0.025990486,0.0,0.0,0.0
286.38464,466.34058,13042156,0.575,0.10638297,-48.723495,-26.614862,0.022974618,0.029449463,-0.025990486,0.0,0.0,0.0
358.3612,431.68896,13042583,0.5,0.06382979,0.0,0.0,0.022974618,0.029449463,-0.025990486,0.0,0.0,0.0
358.3612,431.68896,13042607,0.625,0.06382979,-0.09095284,-0.10760028,0.002379693,-0.008440435,0.027208328,0.0,0.0,0.0
358.3612,431.68896,13042624,0.725,0.07446808,0.0060314885,0.007561968,0.002379693,-0.008440435,0.027208328,0.0,0.0,0.0
358.3612,431.68896,13042657,0.725,0.07446808,0.006658231,0.007526782,0.002379693,-0.008440435,0.027208328,0.0,0.0,0.0
358.3612,431.68896,13042669,0.7625,0.08510638,-0.01865018,-0.023527157,0.002379693,-0.008440435,0.027208328,0.0,0.0,0.0
358.3612,431.68896,13042724,0.8,0.10638297,-0.010922622,-0.019491363,0.002379693,-0.008440435,0.027208328,0.0,0.0,0.0
358.3612,431.68896,13042741,0.7875,0.10638297,0.01611672,0.020043982,0.002379693,-0.008440435,0.027208328,0.0,0.0,0.0
358.3612,431.68896,13042758,0.8125,0.10638297,0.02646611,0.03369927,0.002379693,-0.008440435,0.027208328,0.0,0.0,0.0
343.51587,420.49365,13042775,0.8,0.10638297,-696.36523,-525.1324,0.002379693,-0.008440435,0.027208328,0.0,0.0,0.0
330.49994,414.14258,13042791,0.7875,0.10638297,-1096.9852,-716.18555,0.002379693,-0.008440435,0.027208328,0.0,0.0,0.0
320.1506,414.75818,13042808,0.8,0.11702127,-1103.6792,-502.80496,0.002379693,-0.008440435,0.027208328,0.0,0.0,0.0
308.63412,418.44775,13042825,0.8125,0.08510638,-931.9444,28.306087,0.002379693,-0.008440435,0.027208328,0.0,0.0,0.0
300.82556,425.14392,13042841,0.8125,0.08510638,-606.54175,505.09317,0.002379693,-0.008440435,0.027208328,0.0,0.0,0.0
295.05557,432.86353,13042858,0.825,0.08510638,-316.2424,737.9498,0.002379693,-0.008440435,0.027208328,0.0,0.0,0.0
290.77292,444.15833,13042875,0.8125,0.10638297,-227.21875,779.2515,0.002379693,-0.008440435,0.027208328,0.0,0.0,0.0
290.38333,453.45862,13042892,0.825,0.10638297,-33.45248,763.4873,0.002379693,-0.008440435,0.027208328,0.0,0.0,0.0
293.81848,461.7848,13042908,0.8125,0.08510638,207.1732,722.4203,0.002379693,-0.008440435,0.027208328,0.0,0.0,0.0
297.6588,467.26868,13042925,0.825,0.08510638,387.24228,458.6361,0.002379693,-0.008440435,0.027208328,0.0,0.0,0.0
303.95502,474.14124,13042942,0.8,0.09574468,508.24252,294.67673,0.002379693,-0.008440435,0.027208328,0.0,0.0,0.0
312.29575,479.04395,13042958,0.8125,0.09574468,566.48663,244.31323,0.002379693,-0.008440435,0.027208328,0.0,0.0,0.0
323.31323,479.6681,13042975,0.8125,0.08510638,679.4743,108.13089,0.002379693,-0.008440435,0.027208328,0.0,0.0,0.0
335.3733,476.43567,13042992,0.8125,0.08510638,832.78815,-109.2236,0.002379693,-0.008440435,0.027208328,0.0,0.0,0.0
346.28476,471.06433,13043008,0.8,0.09574468,840.41907,-424.45578,0.002379693,-0.008440435,0.027208328,0.0,0.0,0.0
355.79794,463.73193,13043025,0.7875,0.12765957,744.74774,-616.51154,0.002379693,-0.008440435,0.027208328,0.0,0.0,0.0
362.02594,457.27856,13043042,0.8,0.11702127,494.95505,-611.6956,0.002379693,-0.008440435,0.027208328,0.0,0.0,0.0
366.64883,449.83167,13043059,0.7875,0.08510638,262.47238,-546.69135,0.002379693,-0.008440435,0.027208328,0.0,0.0,0.0
371.53317,436.9944,13043075,0.7875,0.08510638,140.29962,-618.05396,0.002379693,-0.008440435,0.027208328,0.0,0.0,0.0
372.5084,428.563,13043092,0.8,0.09574468,43.07445,-679.5482,0.002379693,-0.008440435,0.027208328,0.0,0.0,0.0
372.35663,423.0365,13043109,0.8,0.09574468,-44.911076,-591.36,0.002379693,-0.008440435,0.027208328,0.0,0.0,0.0
372.1354,419.74512,13043125,0.8,0.11702127,-109.52819,-297.90375,-0.030096246,-0.07075235,0.005765915,0.0,0.0,0.0
371.58603,417.88,13043142,0.8125,0.11702127,-138.5062,-0.30011633,-0.030096246,-0.07075235,0.005765915,0.0,0.0,0.0
370.95218,417.4729,13043159,0.8,0.09574468,-107.6777,132.81898,-0.030096246,-0.07075235,0.005765915,0.0,0.0,0.0
370.0167,419.57227,13043176,0.8,0.09574468,-65.75583,167.14424,-0.030096246,-0.07075235,0.005765915,0.0,0.0,0.0
368.07864,428.04333,13043192,0.77500004,0.09574468,-94.8622,387.38733,-0.030096246,-0.07075235,0.005765915,0.0,0.0,0.0
367.35828,438.14734,13043209,0.8,0.09574468,-104.87642,703.946,-0.030096246,-0.07075235,0.005765915,0.0,0.0,0.0
367.35828,444.8329,13043226,0.8125,0.11702127,-57.947853,789.4224,-0.030096246,-0.07075235,0.005765915,0.0,0.0,0.0
367.86072,452.1432,13043242,0.7875,0.12765957,19.820032,612.28864,-0.030096246,-0.07075235,0.005765915,0.0,0.0,0.0
369.4459,458.57935,13043259,0.7875,0.11702127,101.538635,425.1413,-0.030096246,-0.07075235,0.005765915,0.0,0.0,0.0
373.1211,466.07922,13043276,0.8,0.08510638,204.3761,346.5634,-0.030096246,-0.07075235,0.005765915,0.0,0.0,0.0
375.72665,470.55396,13043293,0.7875,0.08510638,240.12747,318.66483,-0.030096246,-0.07075235,0.005765915,0.0,0.0,0.0
382.45053,476.20044,13043309,0.8,0.08510638,347.5642,303.25153,-0.030096246,-0.07075235,0.005765915,0.0,0.0,0.0
390.02856,480.9054,13043326,0.7875,0.08510638,467.058,266.73953,-0.030096246,-0.07075235,0.005765915,0.0,0.0,0.0
397.2635,482.75903,13043343,0.8,0.08510638,544.4742,177.6739,-0.030096246,-0.07075235,0.005765915,0.0,0.0,0.0
405.08038,483.22217,13043359,0.7875,0.08510638,572.9376,47.951145,-0.030096246,-0.07075235,0.005765915,0.0,0.0,0.0
411.9461,481.26624,13043376,0.8,0.09574468,492.38187,-136.89279,-0.030096246,-0.07075235,0.005765915,0.0,0.0,0.0
418.9899,477.50696,13043393,0.8,0.09574468,428.97818,-301.13205,-0.030096246,-0.07075235,0.005765915,0.0,0.0,0.0
425.94022,472.3562,13043410,0.7875,0.10638297,385.68356,-392.81854,-0.030096246,-0.07075235,0.005765915,0.0,0.0,0.0
435.65704,465.04626,13043426,0.7875,0.10638297,454.73508,-493.22055,-0.030096246,-0.07075235,0.005765915,0.0,0.0,0.0
445.55066,456.81763,13043443,0.7625,0.10638297,576.5302,-560.0353,-0.030096246,-0.07075235,0.005765915,0.0,0.0,0.0
458.08466,443.8385,13043460,0.77500004,0.08510638,743.6398,-727.4662,-0.030096246,-0.07075235,0.005765915,0.0,0.0,0.0
469.44043,427.2401,13043476,0.7625,0.11702127,812.5301,-996.06116,-0.030096246,-0.07075235,0.005765915,0.0,0.0,0.0
481.09314,408.4524,13043493,0.77500004,0.10638297,782.1348,-1231.2861,-0.030096246,-0.07075235,0.005765915,0.0,0.0,0.0
492.1604,388.1931,13043510,0.7625,0.08510638,737.71075,-1408.4867,-0.030096246,-0.07075235,0.005765915,0.0,0.0,0.0
502.66772,369.45337,13043526,0.7875,0.10638297,662.17633,-1387.8247,-0.030096246,-0.07075235,0.005765915,0.0,0.0,0.0
511.53253,353.10754,13043543,0.77500004,0.10638297,566.1112,-1195.0891,-0.030096246,-0.07075235,0.005765915,0.0,0.0,0.0
522.5857,329.88354,13043560,0.8,0.08510638,548.816,-1136.2394,-0.030096246,-0.07075235,0.005765915,0.0,0.0,0.0
529.2178,312.16833,13043577,0.7625,0.11702127,487.51242,-1191.6914,-0.030096246,-0.07075235,0.005765915,0.0,0.0,0.0
534.3753,296.61108,13043593,0.7875,0.12765957,360.5079,-1107.2402,-0.030096246,-0.07075235,0.005765915,0.0,0.0,0.0
539.64545,277.87976,13043610,0.77500004,0.08510638,224.97255,-1009.3161,-0.030096246,-0.07075235,0.005765915,0.0,0.0,0.0
542.17944,261.26917,13043627,0.7875,0.08510638,107.14748,-909.23334,-0.030096246,-0.07075235,0.005765915,0.0,0.0,0.0
542.3773,247.8258,13043643,0.7625,0.12765957,5.182466,-837.24835,-0.030096246,-0.07075235,0.005765915,0.0,0.0,0.0
541.31165,236.30737,13043660,0.77500004,0.10638297,-102.28525,-795.51056,0.007923003,0.0073981136,-0.011386871,0.0,0.0,0.0
539.7419,224.34644,13043677,0.7875,0.09574468,-209.1575,-607.90594,0.007923003,0.0073981136,-0.011386871,0.0,0.0,0.0
537.66705,215.17932,13043694,0.7875,0.09574468,-229.24234,-495.51395,0.007923003,0.0073981136,-0.011386871,0.0,0.0,0.0
534.4807,208.98889,13043710,0.7875,0.09574468,-223.23363,-394.29456,0.007923003,0.0073981136,-0.011386871,0.0,0.0,0.0
529.97217,205.41699,13043727,0.8,0.08510638,-259.461,-213.55885,0.007923003,0.0073981136,-0.011386871,0.0,0.0,0.0
521.95416,204.56152,13043744,0.8,0.08510638,-399.15442,-15.68464,0.007923003,0.0073981136,-0.011386871,0.0,0.0,0.0
510.2674,208.10852,13043760,0.8125,0.08510638,-680.8607,236.28987,0.007923003,0.0073981136,-0.011386871,0.0,0.0,0.0
500.14404,215.96497,13043777,0.8,0.08510638,-825.3911,504.07184,0.007923003,0.0073981136,-0.011386871,0.0,0.0,0.0
492.3747,225.84985,13043794,0.8125,0.12765957,-741.8176,755.59314,0.007923003,0.0073981136,-0.011386871,0.0,0.0,0.0
481.4005,248.15735,13043811,0.7875,0.11702127,-601.9193,1173.4462,0.007923003,0.0073981136,-0.011386871,0.0,0.0,0.0
474.47772,271.6333,13043827,0.8125,0.08510638,-477.38388,1620.5615,0.007923003,0.0073981136,-0.011386871,0.0,0.0,0.0
469.75476,289.625,13043844,0.8,0.12765957,-347.37186,1690.0302,0.007923003,0.0073981136,-0.011386871,0.0,0.0,0.0
465.45355,311.57422,13043861,0.8,0.08510638,-218.14793,1509.425,0.007923003,0.0073981136,-0.011386871,0.0,0.0,0.0
461.3271,333.0686,13043877,0.7875,0.10638297,-134.17966,1340.7075,0.007923003,0.0073981136,-0.011386871,0.0,0.0,0.0
457.6562,355.61658,13043894,0.7875,0.08510638,-123.73974,1256.9525,0.007923003,0.0073981136,-0.011386871,0.0,0.0,0.0
454.5556,380.32837,13043911,0.77500004,0.08510638,-167.47176,1464.9783,0.007923003,0.0073981136,-0.011386871,0.0,0.0,0.0
450.83167,399.47803,13043928,0.7625,0.10638297,-175.87447,1401.7527,0.007923003,0.0073981136,-0.011386871,0.0,0.0,0.0
447.77972,418.4065,13043944,0.7625,0.08510638,-180.79068,1189.7959,0.007923003,0.0073981136,-0.011386871,0.0,0.0,0.0
444.73535,432.92468,13043961,0.7875,0.08510638,-182.87013,999.0624,0.007923003,0.0073981136,-0.011386871,0.0,0.0,0.0
441.3627,443.13806,13043978,0.77500004,0.12765957,-193.76944,606.89374,0.007923003,0.0073981136,-0.011386871,0.0,0.0,0.0
438.84006,451.21802,13043994,0.77500004,0.12765957,-170.63272,392.78043,0.007923003,0.0073981136,-0.011386871,0.0,0.0,0.0
436.75262,458.1211,13044011,0.77500004,0.10638297,-135.11273,202.88661,0.007923003,0.0073981136,-0.011386871,0.0,0.0,0.0
435.01907,463.589,13044028,0.7875,0.08510638,-95.06109,133.02782,0.007923003,0.0073981136,-0.011386871,0.0,0.0,0.0
433.94562,467.7301,13044044,0.7875,0.08510638,-51.143112,166.95073,0.007923003,0.0073981136,-0.011386871,0.0,0.0,0.0
433.3368,469.0061,13044061,0.7625,0.08510638,-23.8955,91.93604,0.007923003,0.0073981136,-0.011386871,0.0,0.0,0.0
433.3368,469.0061,13044066,0.7875,0.08510638,-16.027903,47.089233,0.007923003,0.0073981136,-0.011386871,0.0,0.0,0.0
432.31805,469.0061,13044095,0.77500004,0.08510638,2.862952,-115.993385,0.007923003,0.0073981136,-0.011386871,0.0,0.0,0.0
431.83728,469.0061,13044111,0.7625,0.10638297,-11.59548,-128.46727,0.007923003,0.0073981136,-0.011386871,0.0,0.0,0.0
431.33743,467.0642,13044128,0.7625,0.10638297,-26.415861,-121.38616,0.007923003,0.0073981136,-0.011386871,0.0,0.0,0.0
430.83762,465.198,13044145,0.7625,0.12765957,-32.867706,-132.3228,0.007923003,0.0073981136,-0.011386871,0.0,0.0,0.0
430.83762,462.1167,13044161,0.7625,0.12765957,-12.9320135,-182.86472,0.007923003,0.0073981136,-0.011386871,0.0,0.0,0.0
431.7586,453.94666,13044178,0.7625,0.08510638,33.716362,-367.14435,0.007923003,0.0073981136,-0.011386871,0.0,0.0,0.0
435.9798,438.69214,13044195,0.75,0.07446808,163.17491,-765.74054,0.022338402,0.02191849,0.038889885,0.0,0.0,0.0
440.99548,424.35767,13044212,0.7625,0.09574468,328.00107,-1104.3894,0.022338402,0.02191849,0.038889885,0.0,0.0,0.0
447.22607,413.39404,13044228,0.77500004,0.10638297,452.45395,-1115.4169,0.022338402,0.02191849,0.038889885,0.0,0.0,0.0
457.64532,402.83972,13044245,0.77500004,0.10638297,595.67426,-810.2584,0.022338402,0.02191849,0.038889885,0.0,0.0,0.0
467.70563,395.9237,13044262,0.7875,0.09574468,712.6028,-456.84088,0.022338402,0.02191849,0.038889885,0.0,0.0,0.0
477.987,391.9762,13044278,0.77500004,0.09574468,735.3861,-200.37733,0.022338402,0.02191849,0.038889885,0.0,0.0,0.0
487.87604,390.01685,13044295,0.7875,0.08510638,727.4794,-35.601936,0.022338402,0.02191849,0.038889885,0.0,0.0,0.0
498.63452,389.92932,13044312,0.77500004,0.08510638,650.8192,98.40208,0.022338402,0.02191849,0.038889885,0.0,0.0,0.0
507.54688,391.8694,13044329,0.7875,0.10638297,575.3083,211.67662,0.022338402,0.02191849,0.038889885,0.0,0.0,0.0
513.95624,393.67444,13044345,0.8,0.10638297,486.27692,238.37875,0.022338402,0.02191849,0.038889885,0.0,0.0,0.0
518.9409,395.54102,13044362,0.8,0.12765957,319.3613,227.13174,0.022338402,0.02191849,0.038889885,0.0,0.0,0.0
521.67004,397.359,13044379,0.7875,0.12765957,158.21503,181.38022,0.022338402,0.02191849,0.038889885,0.0,0.0,0.0
523.24963,399.99292,13044395,0.7875,0.12765957,7.7948565,144.31808,0.022338402,0.02191849,0.038889885,0.0,0.0,0.0
524.3072,404.03943,13044412,0.7875,0.10638297,-44.175663,205.72824,0.022338402,0.02191849,0.038889885,0.0,0.0,0.0
523.2217,407.85193,13044429,0.8,0.10638297,-91.7803,269.33755,0.022338402,0.02191849,0.038889885,0.0,0.0,0.0
520.12787,411.2683,13044446,0.8,0.08510638,-179.45445,267.2373,0.022338402,0.02191849,0.038889885,0.0,0.0,0.0
512.8533,416.12134,13044462,0.77500004,0.08510638,-381.70963,277.55133,0.022338402,0.02191849,0.038889885,0.0,0.0,0.0
504.211,419.07275,13044479,0.8,0.08510638,-596.3579,241.83978,0.022338402,0.02191849,0.038889885,0.0,0.0,0.0
498.0783,419.24988,13044496,0.8,0.08510638,-645.0278,132.0251,0.022338402,0.02191849,0.038889885,0.0,0.0,0.0
493.83588,419.24988,13044512,0.7875,0.08510638,-482.8479,-19.137087,0.022338402,0.02191849,0.038889885,0.0,0.0,0.0
492.248,419.24988,13044529,0.7875,0.08510638,-178.10016,-105.57262,0.022338402,0.02191849,0.038889885,0.0,0.0,0.0
491.1742,419.24988,13044546,0.7875,0.08510638,27.481007,-89.2994,0.022338402,0.02191849,0.038889885,0.0,0.0,0.0
491.31793,419.24988,13044562,0.77500004,0.08510638,111.245056,-31.764008,0.022338402,0.02191849,0.038889885,0.0,0.0,0.0
491.99182,420.44788,13044579,0.77500004,0.08510638,117.395935,26.831327,0.022338402,0.02191849,0.038889885,0.0,0.0,0.0
495.7046,423.59302,13044596,0.77500004,0.08510638,185.60606,118.254,0.022338402,0.02191849,0.038889885,0.0,0.0,0.0
501.8739,431.167,13044613,0.77500004,0.08510638,364.81317,377.26862,0.022338402,0.02191849,0.038889885,0.0,0.0,0.0
508.14697,438.44287,13044629,0.7875,0.09574468,508.83667,577.5105,0.022338402,0.02191849,0.038889885,0.0,0.0,0.0
514.1697,445.44202,13044646,0.7875,0.12765957,506.159,591.72253,0.022338402,0.02191849,0.038889885,0.0,0.0,0.0
519.38745,452.5918,13044663,0.7875,0.12765957,415.3313,521.2904,0.022338402,0.02191849,0.038889885,0.0,0.0,0.0
524.5842,459.98193,13044679,0.77500004,0.09574468,308.05432,435.96442,0.022338402,0.02191849,0.038889885,0.0,0.0,0.0
529.7899,467.38477,13044696,0.77500004,0.09574468,271.62607,426.76807,0.022338402,0.02191849,0.038889885,0.0,0.0,0.0
536.0973,474.98145,13044713,0.77500004,0.08510638,320.0032,466.01047,0.022338402,0.02191849,0.038889885,0.0,0.0,0.0
542.3647,480.6129,13044730,0.7875,0.08510638,371.7827,404.39066,0.0018707216,0.0015347898,-0.03288746,0.0,0.0,0.0
549.6762,486.13916,13044746,0.77500004,0.08510638,433.97614,339.9114,0.0018707216,0.0015347898,-0.03288746,0.0,0.0,0.0
556.3108,488.70532,13044763,0.77500004,0.08510638,458.21167,215.17885,0.0018707216,0.0015347898,-0.03288746,0.0,0.0,0.0
560.83264,489.44165,13044780,0.7625,0.08510638,383.17374,54.197716,0.0018707216,0.0015347898,-0.03288746,0.0,0.0,0.0
565.5552,489.44165,13044796,0.7875,0.08510638,286.73053,-75.50961,0.0018707216,0.0015347898,-0.03288746,0.0,0.0,0.0
568.195,488.1958,13044813,0.77500004,0.08510638,169.71846,-159.11748,0.0018707216,0.0015347898,-0.03288746,0.0,0.0,0.0
570.27563,485.9171,13044830,0.7625,0.08510638,76.41183,-191.4104,0.0018707216,0.0015347898,-0.03288746,0.0,0.0,0.0
572.06335,482.25647,13044847,0.7625,0.08510638,56.566914,-242.45,0.0018707216,0.0015347898,-0.03288746,0.0,0.0,0.0
573.56165,478.7068,13044863,0.77500004,0.08510638,36.311893,-285.73508,0.0018707216,0.0015347898,-0.03288746,0.0,0.0,0.0
574.6436,475.74866,13044880,0.77500004,0.10638297,39.010735,-269.18414,0.0018707216,0.0015347898,-0.03288746,0.0,0.0,0.0
576.0644,472.07312,13044897,0.77500004,0.10638297,44.989555,-227.52603,0.0018707216,0.0015347898,-0.03288746,0.0,0.0,0.0
576.2903,470.03088,13044913,0.75,0.10638297,35.05281,-170.22083,0.0018707216,0.0015347898,-0.03288746,0.0,0.0,0.0
576.2903,469.89453,13044914,0.4875,0.12765957,31.221857,-164.53108,0.0018707216,0.0015347898,-0.03288746,0.0,0.0,0.0
576.2903,469.89453,13044924,0.4875,0.12765957,31.221857,-164.53108,0.0018707216,0.0015347898,-0.03288746,0.0,0.0,0.0
589.7859,471.67163,13046381,0.6,0.09574468,0.0,0.0,-0.011842191,0.032145813,0.029881477,0.0,0.0,0.0
589.7859,471.67163,13046401,0.6375,0.11702127,-0.04358033,-0.032426164,-0.011842191,0.032145813,0.029881477,0.0,0.0,0.0
589.7859,471.67163,13046417,0.6875,0.11702127,-0.037599202,-0.031139426,-0.011842191,0.032145813,0.029881477,0.0,0.0,0.0
589.7859,471.67163,13046434,0.725,0.12765957,0.003958123,0.0013446843,-0.011842191,0.032145813,0.029881477,0.0,0.0,0.0
589.7859,471.67163,13046449,0.725,0.12765957,-0.02802143,-0.018994892,-0.011842191,0.032145813,0.029881477,0.0,0.0,0.0
589.7859,471.67163,13046468,0.7375,0.12765957,-0.020440018,-0.017022902,-0.011842191,0.032145813,0.029881477,0.0,0.0,0.0
596.7253,455.2245,13046484,0.7375,0.10638297,141.04478,-334.18533,-0.011842191,0.032145813,0.029881477,0.0,0.0,0.0
602.3099,444.07812,13046501,0.75,0.08510638,411.03244,-918.2413,-0.011842191,0.032145813,0.029881477,0.0,0.0,0.0
613.26227,431.1416,13046518,0.77500004,0.08510638,680.26025,-1163.6329,-0.011842191,0.032145813,0.029881477,0.0,0.0,0.0
623.7818,421.46497,13046534,0.7625,0.10638297,828.46594,-1031.9971,-0.011842191,0.032145813,0.029881477,0.0,0.0,0.0
634.4104,415.02124,13046551,0.75,0.11702127,781.66833,-460.89734,-0.011842191,0.032145813,0.029881477,0.0,0.0,0.0
647.54694,409.42993,13046568,0.7625,0.12765957,782.28436,-202.71147,-0.011842191,0.032145813,0.029881477,0.0,0.0,0.0
660.6751,407.34204,13046585,0.75,0.10638297,844.4896,-106.43944,-0.011842191,0.032145813,0.029881477,0.0,0.0,0.0
671.928,405.92236,13046601,0.75,0.10638297,810.3223,27.926254,-0.011842191,0.032145813,0.029881477,0.0,0.0,0.0
681.01776,405.92236,13046618,0.75,0.12765957,678.5665,85.4059,-0.011842191,0.032145813,0.029881477,0.0,0.0,0.0
688.1539,406.8108,13046635,0.7625,0.12765957,454.6841,140.48009,-0.011842191,0.032145813,0.029881477,0.0,0.0,0.0
693.0957,408.29626,13046651,0.75,0.11702127,239.10931,158.36127,-0.011842191,0.032145813,0.029881477,0.0,0.0,0.0
697.28076,410.156,13046668,0.77500004,0.10638297,135.62675,166.85631,-0.011842191,0.032145813,0.029881477,0.0,0.0,0.0
700.9915,411.989,13046685,0.77500004,0.08510638,106.303696,158.59145,-0.011842191,0.032145813,0.029881477,0.0,0.0,0.0
703.2003,413.8756,13046701,0.7875,0.08510638,83.7235,146.16713,-0.011842191,0.032145813,0.029881477,0.0,0.0,0.0
704.76807,413.91882,13046718,0.77500004,0.08510638,62.96896,74.301,-0.011842191,0.032145813,0.029881477,0.0,0.0,0.0
705.778,413.91882,13046735,0.7875,0.08510638,24.521605,-2.0518377,-0.011842191,0.032145813,0.029881477,0.0,0.0,0.0
705.7481,413.91882,13046752,0.77500004,0.10638297,-29.505775,-44.026657,-0.011842191,0.032145813,0.029881477,0.0,0.0,0.0
705.7481,411.88,13046768,0.7625,0.11702127,-50.39563,-103.20136,-0.011842191,0.032145813,0.029881477,0.0,0.0,0.0
704.5523,410.01624,13046785,0.77500004,0.12765957,-77.97355,-141.62373,-0.011842191,0.032145813,0.029881477,0.0,0.0,0.0
700.4709,407.83032,13046802,0.77500004,0.12765957,-169.87791,-163.44481,-0.011842191,0.032145813,0.029881477,0.0,0.0,0.0
690.7055,405.47107,13046818,0.77500004,0.12765957,-444.25278,-186.26424,-0.011842191,0.032145813,0.029881477,0.0,0.0,0.0
675.2544,404.1454,13046835,0.77500004,0.10638297,-872.7975,-140.68158,-0.011842191,0.032145813,0.029881477,0.0,0.0,0.0
658.66565,405.61743,13046852,0.7625,0.12765957,-1240.595,-14.283333,-0.011842191,0.032145813,0.029881477,0.0,0.0,0.0
643.3981,409.48865,13046869,0.77500004,0.10638297,-1271.5511,182.58835,0.022526246,-0.0062833577,-0.008094788,0.0,0.0,0.0
624.9999,417.32068,13046885,0.77500004,0.08510638,-1177.0851,440.25543,0.022526246,-0.0062833577,-0.008094788,0.0,0.0,0.0
610.4086,425.89185,13046902,0.77500004,0.08510638,-1062.5348,646.05444,0.022526246,-0.0062833577,-0.008094788,0.0,0.0,0.0
601.35144,435.1725,13046919,0.7875,0.09574468,-797.8136,746.56854,0.022526246,-0.0062833577,-0.008094788,0.0,0.0,0.0
594.09796,447.12488,13046935,0.77500004,0.12765957,-437.09454,749.5404,0.022526246,-0.0062833577,-0.008094788,0.0,0.0,0.0
591.71466,458.208,13046952,0.7875,0.11702127,-91.87502,771.8273,0.022526246,-0.0062833577,-0.008094788,0.0,0.0,0.0
594.1056,469.2589,13046969,0.7875,0.08510638,219.90384,762.8087,0.022526246,-0.0062833577,-0.008094788,0.0,0.0,0.0
598.5102,477.08325,13046986,0.7875,0.08510638,413.0866,657.30554,0.022526246,-0.0062833577,-0.008094788,0.0,0.0,0.0
608.45105,485.69287,13047002,0.77500004,0.08510638,651.10455,503.0085,0.022526246,-0.0062833577,-0.008094788,0.0,0.0,0.0
623.19824,490.72974,13047019,0.8,0.08510638,989.23114,309.0458,0.022526246,-0.0062833577,-0.008094788,0.0,0.0,0.0
636.215,490.27698,13047036,0.7625,0.09574468,1098.6088,83.355965,0.022526246,-0.0062833577,-0.008094788,0.0,0.0,0.0
650.6062,485.50635,13047052,0.77500004,0.08510638,1104.1727,-269.49008,0.022526246,-0.0062833577,-0.008094788,0.0,0.0,0.0
663.17365,478.35205,13047069,0.77500004,0.08510638,924.71875,-620.5505,0.022526246,-0.0062833577,-0.008094788,0.0,0.0,0.0
674.5826,470.05078,13047086,0.7625,0.10638297,719.44336,-771.88214,0.022526246,-0.0062833577,-0.008094788,0.0,0.0,0.0
681.3538,462.46985,13047103,0.7625,0.12765957,537.4759,-695.2174,0.022526246,-0.0062833577,-0.008094788,0.0,0.0,0.0
686.59784,455.88696,13047119,0.77500004,0.11702127,281.72607,-552.83527,0.022526246,-0.0062833577,-0.008094788,0.0,0.0,0.0
691.11755,444.5487,13047136,0.77500004,0.09574468,113.74449,-524.7183,0.022526246,-0.0062833577,-0.008094788,0.0,0.0,0.0
693.8623,432.8778,13047153,0.7625,0.09574468,52.722717,-669.363,0.022526246,-0.0062833577,-0.008094788,0.0,0.0,0.0
695.33655,423.9762,13047169,0.77500004,0.11702127,24.601725,-723.1041,0.022526246,-0.0062833577,-0.008094788,0.0,0.0,0.0
695.2515,417.67993,13047186,0.75,0.11702127,-29.629927,-592.1219,0.022526246,-0.0062833577,-0.008094788,0.0,0.0,0.0
694.5983,413.3734,13047203,0.77500004,0.12765957,-105.80141,-321.71735,0.022526246,-0.0062833577,-0.008094788,0.0,0.0,0.0
693.752,410.8927,13047219,0.77500004,0.12765957,-141.29227,-68.04085,0.022526246,-0.0062833577,-0.008094788,0.0,0.0,0.0
693.01025,409.47632,13047236,0.77500004,0.12765957,-118.36555,37.184383,0.022526246,-0.0062833577,-0.008094788,0.0,0.0,0.0
691.97046,409.47632,13047253,0.8,0.11702127,-79.78147,68.83744,0.022526246,-0.0062833577,-0.008094788,0.0,0.0,0.0
690.6096,410.93665,13047270,0.77500004,0.10638297,-76.68249,132.39142,0.022526246,-0.0062833577,-0.008094788,0.0,0.0,0.0
688.91785,416.90198,13047286,0.7875,0.08510638,-98.9515,275.47006,0.022526246,-0.0062833577,-0.008094788,0.0,0.0,0.0
688.75366,427.59644,13047303,0.7875,0.08510638,-80.541115,573.8482,0.022526246,-0.0062833577,-0.008094788,0.0,0.0,0.0
689.1653,437.1244,13047320,0.77500004,0.08510638,-10.421584,790.25574,0.022526246,-0.0062833577,-0.008094788,0.0,0.0,0.0
692.1866,445.7489,13047336,0.77500004,0.12765957,119.04416,826.8246,0.022526246,-0.0062833577,-0.008094788,0.0,0.0,0.0
696.3354,454.97705,13047353,0.7625,0.11702127,273.6678,657.485,0.022526246,-0.0062833577,-0.008094788,0.0,0.0,0.0
700.52527,461.40112,13047370,0.7875,0.08510638,344.63745,459.60318,0.022526246,-0.0062833577,-0.008094788,0.0,0.0,0.0
706.9261,469.8672,13047387,0.77500004,0.08510638,409.8668,411.69962,0.022526246,-0.0062833577,-0.008094788,0.0,0.0,0.0
714.5983,478.0133,13047403,0.7625,0.08510638,491.20108,452.0569,0.002020996,-0.005026683,-0.0064754486,0.0,0.0,0.0
724.0601,485.5464,13047420,0.77500004,0.08510638,574.7202,463.04895,0.002020996,-0.005026683,-0.0064754486,0.0,0.0,0.0
732.1856,489.32166,13047437,0.7875,0.08510638,616.00244,366.3272,0.002020996,-0.005026683,-0.0064754486,0.0,0.0,0.0
740.03033,491.21863,13047453,0.7625,0.09574468,564.9729,148.75264,0.002020996,-0.005026683,-0.0064754486,0.0,0.0,0.0
747.0069,490.714,13047470,0.7625,0.09574468,461.47382,-73.42431,0.002020996,-0.005026683,-0.0064754486,0.0,0.0,0.0
754.11017,488.32935,13047487,0.7625,0.08510638,402.2048,-234.51192,0.002020996,-0.005026683,-0.0064754486,0.0,0.0,0.0
761.02563,484.61133,13047504,0.77500004,0.08510638,375.07645,-340.1874,0.002020996,-0.005026683,-0.0064754486,0.0,0.0,0.0
766.23285,479.30798,13047520,0.7625,0.08510638,335.83508,-401.0687,0.002020996,-0.005026683,-0.0064754486,0.0,0.0,0.0
771.966,474.52222,13047537,0.77500004,0.09574468,312.5375,-417.7736,0.002020996,-0.005026683,-0.0064754486,0.0,0.0,0.0
778.1373,468.20605,13047554,0.77500004,0.09574468,293.01712,-409.57172,0.002020996,-0.005026683,-0.0064754486,0.0,0.0,0.0
783.4146,461.6255,13047570,0.75,0.12765957,316.33524,-419.47684,0.002020996,-0.005026683,-0.0064754486,0.0,0.0,0.0
789.7314,453.25342,13047587,0.75,0.08510638,352.073,-485.64886,0.002020996,-0.005026683,-0.0064754486,0.0,0.0,0.0
796.3664,441.00793,13047604,0.7375,0.09574468,395.85806,-657.5475,0.002020996,-0.005026683,-0.0064754486,0.0,0.0,0.0
809.0481,416.58362,13047621,0.7375,0.12765957,556.30914,-1113.8265,0.002020996,-0.005026683,-0.0064754486,0.0,0.0,0.0
816.0253,397.14648,13047637,0.7375,0.08510638,642.38983,-1485.5018,0.002020996,-0.005026683,-0.0064754486,0.0,0.0,0.0
822.34766,375.2245,13047654,0.7375,0.08510638,558.27014,-1676.3604,0.002020996,-0.005026683,-0.0064754486,0.0,0.0,0.0
826.45703,357.50842,13047671,0.75,0.10638297,324.90887,-1427.7488,0.002020996,-0.005026683,-0.0064754486,0.0,0.0,0.0
830.3079,337.85986,13047687,0.75,0.08510638,125.655846,-1122.6348,0.002020996,-0.005026683,-0.0064754486,0.0,0.0,0.0
834.56476,317.25623,13047704,0.7375,0.08510638,92.57783,-1079.4688,0.002020996,-0.005026683,-0.0064754486,0.0,0.0,0.0
837.863,297.08875,13047721,0.75,0.10638297,154.00194,-1170.1638,0.002020996,-0.005026683,-0.0064754486,0.0,0.0,0.0
840.47363,276.06287,13047737,0.725,0.08510638,162.03406,-1270.7068,0.002020996,-0.005026683,-0.0064754486,0.0,0.0,0.0
841.20404,259.04016,13047754,0.7375,0.09574468,97.766525,-1194.3656,0.002020996,-0.005026683,-0.0064754486,0.0,0.0,0.0
840.70416,246.8584,13047771,0.75,0.12765957,-36.582294,-882.0873,0.002020996,-0.005026683,-0.0064754486,0.0,0.0,0.0
839.1159,240.4242,13047788,0.7625,0.09574468,-139.14699,-476.65887,0.002020996,-0.005026683,-0.0064754486,0.0,0.0,0.0
838.1193,237.8429,13047804,0.77500004,0.09574468,-164.55884,-52.869904,0.002020996,-0.005026683,-0.0064754486,0.0,0.0,0.0
835.8387,237.10669,13047821,0.77500004,0.12765957,-168.05376,214.33124,0.002020996,-0.005026683,-0.0064754486,0.0,0.0,0.0
830.8205,241.60632,13047838,0.77500004,0.10638297,-233.84566,387.11026,0.002020996,-0.005026683,-0.0064754486,0.0,0.0,0.0
821.0066,267.15234,13047854,0.7625,0.08510638,-476.90002,1041.3334,0.002020996,-0.005026683,-0.0064754486,0.0,0.0,0.0
816.1033,288.82642,13047871,0.75,0.12765957,-578.68384,1744.5752,0.002020996,-0.005026683,-0.0064754486,0.0,0.0,0.0
812.7307,317.68176,13047888,0.77500004,0.09574468,-418.9654,2145.7126,0.002020996,-0.005026683,-0.0064754486,0.0,0.0,0.0
811.40137,344.05505,13047905,0.75,0.12765957,-124.58902,2149.9792,0.002020996,-0.005026683,-0.0064754486,0.0,0.0,0.0
811.5669,374.83398,13047921,0.75,0.09574468,111.563576,1919.6245,0.002020996,-0.005026683,-0.0064754486,0.0,0.0,0.0
814.4947,397.6521,13047938,0.725,0.12765957,198.9846,1681.5946,-0.030383203,-0.0040213466,-0.021180153,0.0,0.0,0.0
817.9768,422.77307,13047955,0.7375,0.08510638,306.79004,1495.3397,-0.030383203,-0.0040213466,-0.021180153,0.0,0.0,0.0
821.5469,439.99292,13047971,0.725,0.08510638,332.5024,1171.79,-0.030383203,-0.0040213466,-0.021180153,0.0,0.0,0.0
825.8366,453.35327,13047988,0.71250004,0.09574468,322.32584,817.4629,-0.030383203,-0.0040213466,-0.021180153,0.0,0.0,0.0
831.021,466.12085,13048005,0.725,0.08510638,328.56317,576.6173,-0.030383203,-0.0040213466,-0.021180153,0.0,0.0,0.0
835.1836,474.2975,13048022,0.725,0.06382979,310.67767,387.94122,-0.030383203,-0.0040213466,-0.021180153,0.0,0.0,0.0
837.63904,477.51648,13048038,0.7,0.06382979,253.59193,174.09383,-0.030383203,-0.0040213466,-0.021180153,0.0,0.0,0.0
839.58795,480.0088,13048055,0.7,0.06382979,142.62152,11.401755,-0.030383203,-0.0040213466,-0.021180153,0.0,0.0,0.0
840.20435,479.3081,13048072,0.6625,0.06382979,31.789846,-174.74823,-0.030383203,-0.0040213466,-0.021180153,0.0,0.0,0.0
839.03796,473.32983,13048088,0.3375,0.10638297,-61.609764,-317.78897,-0.030383203,-0.0040213466,-0.021180153,0.0,0.0,0.0
834.7061,447.6311,13048105,0.16250001,0.07446808,-245.01482,-1113.2089,-0.030383203,-0.0040213466,-0.021180153,0.0,0.0,0.0
834.7061,445.01648,13048108,0.16250001,0.07446808,-257.4866,-1234.2832,-0.030383203,-0.0040213466,-0.021180153,0.0,0.0,0.0
834.7061,445.01648,13048116,0.16250001,0.07446808,-257.4866,-1234.2832,-0.030383203,-0.0040213466,-0.021180153,0.0,0.0,0.0
733.739,357.9431,13048261,0.6875,0.09574468,0.0,0.0,-0.030383203,-0.0040213466,-0.021180153,0.0,0.0,0.0
733.739,357.9431,13048289,0.7375,0.12765957,0.0014405993,0.0029254395,-0.030383203,-0.0040213466,-0.021180153,0.0,0.0,0.0
760.07324,351.74902,13048306,0.7625,0.12765957,1996.8499,-480.29657,-0.030383203,-0.0040213466,-0.021180153,0.0,0.0,0.0
784.55566,349.4187,13048322,0.77500004,0.12765957,2288.7996,-369.62445,-0.030383203,-0.0040213466,-0.021180153,0.0,0.0,0.0
806.3233,347.5681,13048339,0.7625,0.12765957,2117.4795,-236.04314,-0.030383203,-0.0040213466,-0.021180153,0.0,0.0,0.0
834.1222,346.39258,13048356,0.75,0.10638297,2073.9526,-146.95471,-0.030383203,-0.0040213466,-0.021180153,0.0,0.0,0.0
861.3739,346.39258,13048372,0.7,0.12765957,1769.2118,25.140766,-0.030383203,-0.0040213466,-0.021180153,0.0,0.0,0.0
863.6967,346.39258,13048374,0.575,0.12765957,1767.9353,29.974937,-0.030383203,-0.0040213466,-0.021180153,0.0,0.0,0.0
863.6967,346.39258,13048381,0.575,0.12765957,1767.9353,29.974937,-0.030383203,-0.0040213466,-0.021180153,0.0,0.0,0.0
950.1685,417.4729,13049489,0.5,0.07446808,0.0,0.0,0.0061547495,0.010226339,0.028043747,0.0,0.0,0.0
950.1685,417.4729,13049509,0.6125,0.07446808,0.10087853,0.043711588,0.0061547495,0.010226339,0.028043747,0.0,0.0,0.0
950.1685,417.4729,13049525,0.6625,0.09574468,-0.033117425,-0.014683554,0.0061547495,0.010226339,0.028043747,0.0,0.0,0.0
950.1685,417.4729,13049542,0.675,0.09574468,0.03209497,0.013161381,0.004923798,0.00818108,-0.009565353,0.0,0.0,0.0
950.1685,417.4729,13049559,0.7,0.10638297,-0.01641284,-0.0074274484,0.004923798,0.00818108,-0.009565353,0.0,0.0,0.0
950.1685,417.4729,13049574,0.7,0.10638297,-0.0014396473,-5.988624E-4,0.004923798,0.00818108,-0.009565353,0.0,0.0,0.0
928.70074,407.09802,13049609,0.71250004,0.12765957,-593.5176,-282.30774,0.004923798,0.00818108,-0.009565353,0.0,0.0,0.0
917.226,404.15234,13049626,0.71250004,0.12765957,-994.17084,-424.5372,0.004923798,0.00818108,-0.009565353,0.0,0.0,0.0
905.71655,403.25684,13049642,0.7375,0.10638297,-1031.1482,-266.76706,0.004923798,0.00818108,-0.009565353,0.0,0.0,0.0
893.2036,404.29102,13049659,0.75,0.12765957,-921.3081,-20.480642,0.004923798,0.00818108,-0.009565353,0.0,0.0,0.0
882.19214,408.40955,13049676,0.7375,0.10638297,-546.5143,360.63205,0.004923798,0.00818108,-0.009565353,0.0,0.0,0.0
875.5156,413.03833,13049693,0.75,0.09574468,-460.2664,452.01147,0.004923798,0.00818108,-0.009565353,0.0,0.0,0.0
869.4151,421.1726,13049709,0.7625,0.09574468,-379.9592,502.5711,0.004923798,0.00818108,-0.009565353,0.0,0.0,0.0
863.53296,434.04797,13049726,0.75,0.09574468,-245.76152,761.23254,0.004923798,0.00818108,-0.009565353,0.0,0.0,0.0
861.6973,442.5487,13049743,0.75,0.11702127,-140.09312,830.26294,0.004923798,0.00818108,-0.009565353,0.0,0.0,0.0
862.5139,449.93408,13049759,0.7375,0.12765957,55.454754,668.1029,0.004923798,0.00818108,-0.009565353,0.0,0.0,0.0
865.252,456.04077,13049776,0.7375,0.11702127,251.41676,418.2939,0.004923798,0.00818108,-0.009565353,0.0,0.0,0.0
872.8622,464.16138,13049793,0.75,0.08510638,476.8216,258.25092,0.004923798,0.00818108,-0.009565353,0.0,0.0,0.0
886.62555,473.662,13049810,0.725,0.08510638,764.38586,424.22418,0.004923798,0.00818108,-0.009565353,0.0,0.0,0.0
901.3149,479.56702,13049826,0.7375,0.07446808,1073.3865,513.778,0.004923798,0.00818108,-0.009565353,0.0,0.0,0.0
916.33594,482.35498,13049843,0.7,0.07446808,1196.3372,331.44214,0.004923798,0.00818108,-0.009565353,0.0,0.0,0.0
934.1599,482.33362,13049860,0.71250004,0.06382979,1196.0789,47.586956,0.004923798,0.00818108,-0.009565353,0.0,0.0,0.0
948.2956,477.39062,13049876,0.71250004,0.08510638,1063.3157,-310.22754,0.004923798,0.00818108,-0.009565353,0.0,0.0,0.0
961.48535,471.67773,13049893,0.7,0.11702127,892.2369,-510.998,0.004923798,0.00818108,-0.009565353,0.0,0.0,0.0
969.21216,464.07495,13049910,0.7,0.12765957,625.8872,-615.0679,0.004923798,0.00818108,-0.009565353,0.0,0.0,0.0
974.41064,458.78833,13049926,0.71250004,0.10638297,331.59525,-589.5265,0.004923798,0.00818108,-0.009565353,0.0,0.0,0.0
977.1476,452.15674,13049943,0.725,0.08510638,35.609142,-429.60593,0.004923798,0.00818108,-0.009565353,0.0,0.0,0.0
979.44385,440.20166,13049960,0.7375,0.08510638,-31.836672,-555.1851,0.004923798,0.00818108,-0.009565353,0.0,0.0,0.0
978.50476,428.78137,13049977,0.71250004,0.09574468,-101.133026,-749.4591,0.004923798,0.00818108,-0.009565353,0.0,0.0,0.0
975.6377,420.3811,13049993,0.7375,0.11702127,-225.5903,-779.56665,0.004923798,0.00818108,-0.009565353,0.0,0.0,0.0
970.8556,413.73486,13050010,0.725,0.12765957,-351.29468,-552.28784,0.004923798,0.00818108,-0.009565353,0.0,0.0,0.0
960.8208,407.12866,13050027,0.7625,0.12765957,-568.5815,-311.14795,0.004923798,0.00818108,-0.009565353,0.0,0.0,0.0
947.37085,402.42798,13050043,0.7375,0.10638297,-835.59753,-214.7307,0.004923798,0.00818108,-0.009565353,0.0,0.0,0.0
934.386,400.5448,13050060,0.75,0.12765957,-1010.61035,-125.14781,0.004923798,0.00818108,-0.009565353,0.0,0.0,0.0
923.59406,400.5913,13050077,0.75,0.12765957,-959.2162,13.802657,0.00393904,-0.0094551295,0.008348465,0.0,0.0,0.0
915.361,403.6206,13050094,0.725,0.12765957,-685.5058,208.53468,0.00393904,-0.0094551295,0.008348465,0.0,0.0,0.0
909.38684,407.37585,13050110,0.75,0.10638297,-385.8482,344.23407,0.00393904,-0.0094551295,0.008348465,0.0,0.0,0.0
905.56274,409.84375,13050127,0.7375,0.08510638,-168.14864,350.7586,0.00393904,-0.0094551295,0.008348465,0.0,0.0,0.0
901.2506,419.01477,13050144,0.725,0.08510638,-111.29748,437.70215,0.00393904,-0.0094551295,0.008348465,0.0,0.0,0.0
901.20764,428.25842,13050160,0.725,0.08510638,-29.698063,580.79095,0.00393904,-0.0094551295,0.008348465,0.0,0.0,0.0
904.8861,436.84595,13050177,0.725,0.08510638,179.5783,696.9941,0.00393904,-0.0094551295,0.008348465,0.0,0.0,0.0
911.2112,443.71033,13050194,0.7,0.11702127,428.1234,615.7214,0.00393904,-0.0094551295,0.008348465,0.0,0.0,0.0
924.64856,451.16333,13050211,0.7,0.12765957,774.8652,449.3031,0.00393904,-0.0094551295,0.008348465,0.0,0.0,0.0
941.39215,455.3457,13050227,0.725,0.10638297,1106.7106,294.64774,0.00393904,-0.0094551295,0.008348465,0.0,0.0,0.0
958.9662,455.67847,13050244,0.71250004,0.12765957,1341.137,104.38702,0.00393904,-0.0094551295,0.008348465,0.0,0.0,0.0
976.1051,452.13672,13050261,0.71250004,0.12765957,1364.2758,-160.37398,0.00393904,-0.0094551295,0.008348465,0.0,0.0,0.0
994.37085,446.5547,13050277,0.725,0.08510638,1217.4911,-454.3595,0.00393904,-0.0094551295,0.008348465,0.0,0.0,0.0
1007.6566,438.9973,13050294,0.71250004,0.07446808,991.7739,-613.5114,0.00393904,-0.0094551295,0.008348465,0.0,0.0,0.0
1015.58057,430.65247,13050311,0.71250004,0.09574468,659.14056,-663.0471,0.00393904,-0.0094551295,0.008348465,0.0,0.0,0.0
1021.496,422.48303,13050327,0.7375,0.11702127,329.42947,-649.37415,0.00393904,-0.0094551295,0.008348465,0.0,0.0,0.0
1024.6753,416.52905,13050344,0.7375,0.12765957,41.8934,-538.98663,0.00393904,-0.0094551295,0.008348465,0.0,0.0,0.0
1027.0634,409.69006,13050361,0.725,0.12765957,-64.68412,-372.10876,0.00393904,-0.0094551295,0.008348465,0.0,0.0,0.0
1029.9156,401.8009,13050378,0.7375,0.11702127,4.106344,-388.6359,0.00393904,-0.0094551295,0.008348465,0.0,0.0,0.0
1030.6423,397.70435,13050394,0.75,0.09574468,18.89337,-348.2125,0.00393904,-0.0094551295,0.008348465,0.0,0.0,0.0
1030.6423,395.54565,13050411,0.7375,0.09574468,-10.061223,-213.94775,0.00393904,-0.0094551295,0.008348465,0.0,0.0,0.0
1030.2556,393.68445,13050428,0.7375,0.09574468,-67.64929,-36.028343,0.00393904,-0.0094551295,0.008348465,0.0,0.0,0.0
1029.239,392.59485,13050444,0.7625,0.11702127,-119.67409,65.82479,0.00393904,-0.0094551295,0.008348465,0.0,0.0,0.0
1028.1891,392.59485,13050461,0.75,0.11702127,-107.23846,48.602684,0.00393904,-0.0094551295,0.008348465,0.0,0.0,0.0
1027.1353,392.59485,13050478,0.75,0.12765957,-94.85909,45.999577,0.00393904,-0.0094551295,0.008348465,0.0,0.0,0.0
1024.497,396.41077,13050495,0.75,0.12765957,-127.05949,147.37845,0.00393904,-0.0094551295,0.008348465,0.0,0.0,0.0
1020.8877,403.86755,13050511,0.75,0.10638297,-198.532,376.1473,0.00393904,-0.0094551295,0.008348465,0.0,0.0,0.0
1018.3893,413.5122,13050528,0.75,0.08510638,-231.00635,612.8809,0.00393904,-0.0094551295,0.008348465,0.0,0.0,0.0
1018.64624,428.0548,13050545,0.7625,0.08510638,-136.79788,895.3805,0.00393904,-0.0094551295,0.008348465,0.0,0.0,0.0
1020.7583,443.4773,13050561,0.7375,0.11702127,45.875607,1106.3314,0.00393904,-0.0094551295,0.008348465,0.0,0.0,0.0
1025.0972,459.52368,13050578,0.7375,0.11702127,291.42673,1145.9586,0.00393904,-0.0094551295,0.008348465,0.0,0.0,0.0
1032.1201,483.02893,13050595,0.75,0.09574468,466.18784,1339.4945,0.00393904,-0.0094551295,0.008348465,0.0,0.0,0.0
1039.4132,502.23303,13050612,0.725,0.12765957,560.7273,1385.2472,0.019151233,0.00843589,-0.025321007,0.0,0.0,0.0
1049.3369,523.93677,13050628,0.7375,0.08510638,658.82263,1416.9805,0.019151233,0.00843589,-0.025321007,0.0,0.0,0.0
1056.9733,542.96387,13050645,0.7375,0.08510638,644.8989,1333.7305,0.019151233,0.00843589,-0.025321007,0.0,0.0,0.0
1060.8466,557.7284,13050662,0.7375,0.10638297,451.097,1028.6454,0.019151233,0.00843589,-0.025321007,0.0,0.0,0.0
1061.1927,569.0857,13050678,0.7375,0.09574468,152.3453,713.418,0.019151233,0.00843589,-0.025321007,0.0,0.0,0.0
1057.5541,577.5094,13050695,0.7375,0.06382979,-234.58063,443.30685,0.019151233,0.00843589,-0.025321007,0.0,0.0,0.0
1042.5942,589.7787,13050712,0.725,0.08510638,-739.6729,386.02792,0.019151233,0.00843589,-0.025321007,0.0,0.0,0.0
1004.90063,602.2816,13050728,0.725,0.08510638,-1597.5609,513.18225,0.019151233,0.00843589,-0.025321007,0.0,0.0,0.0
969.76855,607.2422,13050745,0.75,0.08510638,-2628.6648,537.0921,0.019151233,0.00843589,-0.025321007,0.0,0.0,0.0
924.4109,610.593,13050762,0.75,0.11702127,-3351.3066,348.97723,0.019151233,0.00843589,-0.025321007,0.0,0.0,0.0
881.00574,612.43835,13050779,0.7375,0.10638297,-3554.79,73.20872,0.019151233,0.00843589,-0.025321007,0.0,0.0,0.0
851.7006,611.1666,13050791,0.575,0.09574468,-3254.3682,-153.79237,0.019151233,0.00843589,-0.025321007,0.0,0.0,0.0
851.7006,611.1666,13050798,0.575,0.09574468,-3254.3682,-153.79237,0.019151233,0.00843589,-0.025321007,0.0,0.0,0.0
