x,y,timestamp,pressure,fingerarea,velocityx,velocityy,accelx,accely,accelz,gyrox,gyroy,gyroz
291.383,193.57007,8735795,0.75,0.10638297,0.0,0.0,-0.018038973,-0.017649382,0.049585342,0.0,0.0,0.0
291.383,193.57007,8735814,0.7625,0.10638297,-0.057139073,-0.03784534,-0.018038973,-0.017649382,0.049585342,0.0,0.0,0.0
291.383,193.57007,8735831,0.8125,0.09574468,-0.0030351744,-0.0028430498,-0.018038973,-0.017649382,0.049585342,0.0,0.0,0.0
291.383,193.57007,8735847,0.825,0.08510638,-0.0065963003,-0.0038063608,-0.018038973,-0.017649382,0.049585342,0.0,0.0,0.0
278.2034,217.6792,8735864,0.85,0.08510638,-554.2638,1005.34796,-0.018038973,-0.017649382,0.049585342,2.9360124E-6,0.0,0.0
271.3562,232.44702,8735881,0.85,0.12765957,-721.10046,1382.4083,-0.018038973,-0.017649382,0.049585342,2.9360124E-6,0.0,0.0
263.7155,250.46045,8735898,0.8625,0.11702127,-729.5371,1529.9534,-0.018038973,-0.017649382,0.049585342,2.9360124E-6,0.0,0.0
254.88177,270.89905,8735914,0.8625,0.10638297,-636.27057,1488.3752,-0.018038973,-0.017649382,0.049585342,2.9360124E-6,0.0,0.0
244.9639,289.4115,8735931,0.8625,0.10638297,-548.02313,1259.0199,-0.018038973,-0.017649382,0.049585342,0.0,0.0,0.0
234.61667,307.8047,8735948,0.8625,0.08510638,-586.0539,1135.5726,-0.018038973,-0.017649382,0.049585342,0.0,0.0,0.0
223.4768,330.2721,8735964,0.875,0.10638297,-707.8744,1270.825,-0.018038973,-0.017649382,0.049585342,0.0,0.0,0.0
214.1737,348.00586,8735981,0.875,0.11702127,-662.9596,1168.6287,-0.018038973,-0.017649382,0.049585342,0.0,0.0,0.0
204.26999,368.6598,8735998,0.8875,0.09574468,-614.4172,1190.8,-0.018038973,-0.017649382,0.049585342,0.0,0.0,0.0
195.5373,383.5348,8736015,0.90000004,0.10638297,-549.23694,1097.5961,-0.018038973,-0.017649382,0.049585342,0.0,0.0,0.0
183.50461,400.22766,8736031,0.90000004,0.09574468,-592.45135,927.1729,-0.018038973,-0.017649382,0.049585342,0.0,0.0,0.0
170.96289,418.05994,8736048,0.90000004,0.08510638,-727.612,937.62164,-0.018038973,-0.017649382,0.049585342,0.0,0.0,0.0
160.71469,432.57275,8736065,0.8875,0.11702127,-748.156,874.10974,-0.018038973,-0.017649382,0.049585342,0.0,0.0,0.0
152.69043,442.46545,8736081,0.8875,0.12765957,-626.2615,749.43085,-0.018038973,-0.017649382,0.049585342,0.0,0.0,0.0
144.41173,449.98132,8736098,0.875,0.12765957,-465.6305,505.19736,-0.018038973,-0.017649382,0.049585342,0.0,0.0,0.0
137.11142,454.6996,8736115,0.8875,0.10638297,-341.80463,158.0801,-0.018038973,-0.017649382,0.049585342,0.0,0.0,0.0
130.31273,457.4867,8736131,0.8875,0.10638297,-349.862,11.80985,-0.018038973,-0.017649382,0.049585342,0.0,0.0,0.0
125.15506,458.344,8736148,0.9125,0.10638297,-323.21234,-64.055954,-0.018038973,-0.017649382,0.049585342,0.0,0.0,0.0
120.55144,456.39502,8736165,0.95,0.10638297,-263.24875,-172.37874,-0.018038973,-0.017649382,0.049585342,0.0,0.0,0.0
117.496216,454.52747,8736182,0.975,0.12765957,-171.88217,-249.4812,-0.018038973,-0.017649382,0.049585342,0.0,0.0,0.0
115.57556,451.47644,8736198,0.975,0.10638297,-87.763374,-279.416,0.033568814,0.0178805,0.007668495,0.0,0.0,0.0
114.940445,442.2572,8736215,0.975,0.08510638,-11.734463,-435.85324,0.033568814,0.0178805,0.007668495,0.0,0.0,0.0
117.69347,431.235,8736232,0.975,0.09574468,120.48661,-677.0842,0.033568814,0.0178805,0.007668495,0.0,0.0,0.0
121.10474,422.87866,8736248,0.96250004,0.10638297,273.05118,-802.31244,0.033568814,0.0178805,0.007668495,0.0,0.0,0.0
127.739395,412.18787,8736265,0.96250004,0.12765957,432.92215,-758.5421,0.033568814,0.0178805,0.007668495,0.0,0.0,0.0
136.02075,401.75,8736282,0.975,0.11702127,581.75665,-660.8947,0.033568814,0.0178805,0.007668495,0.0,0.0,0.0
141.96892,393.2527,8736299,0.975,0.09574468,575.90283,-579.87854,0.033568814,0.0178805,0.007668495,0.0,0.0,0.0
146.64038,386.6842,8736315,0.9875,0.09574468,436.99683,-477.43942,0.033568814,0.0178805,0.007668495,0.0,0.0,0.0
153.34508,381.11792,8736332,0.975,0.08510638,343.29224,-334.75348,0.033568814,0.0178805,0.007668495,0.0,0.0,0.0
160.12526,377.38892,8736349,0.975,0.08510638,330.3128,-173.33055,0.033568814,0.0178805,0.007668495,0.0,0.0,0.0
169.6434,376.60168,8736365,0.96250004,0.08510638,474.01508,-49.008522,0.033568814,0.0178805,0.007668495,0.0,0.0,0.0
179.93852,377.69153,8736382,0.975,0.08510638,645.48285,96.25199,0.033568814,0.0178805,0.007668495,0.0,0.0,0.0
187.5323,379.5504,8736399,0.95,0.08510638,637.85443,220.42589,0.033568814,0.0178805,0.007668495,0.0,0.0,0.0
194.1835,383.7876,8736416,0.95,0.11702127,517.93414,320.28696,0.033568814,0.0178805,0.007668495,0.0,0.0,0.0
201.7041,389.3463,8736432,0.9375,0.11702127,375.38815,391.76044,0.033568814,0.0178805,0.007668495,0.0,0.0,0.0
209.25589,394.88928,8736449,0.9375,0.12765957,372.34113,432.84973,0.033568814,0.0178805,0.007668495,0.0,0.0,0.0
217.21432,401.7527,8736466,0.9375,0.10638297,450.23773,458.29315,0.033568814,0.0178805,0.007668495,0.0,0.0,0.0
223.92276,409.2013,8736482,0.9125,0.09574468,460.77335,481.086,0.033568814,0.0178805,0.007668495,0.0,0.0,0.0
232.39517,418.13147,8736499,0.925,0.08510638,453.29996,527.60736,0.033568814,0.0178805,0.007668495,0.0,0.0,0.0
240.0893,426.67957,8736516,0.90000004,0.08510638,452.18637,562.00494,0.033568814,0.0178805,0.007668495,0.0,0.0,0.0
248.11356,434.13855,8736533,0.9125,0.11702127,490.43365,565.2118,0.033568814,0.0178805,0.007668495,0.0,0.0,0.0
255.3927,439.68384,8736549,0.925,0.11702127,479.9163,434.36865,0.033568814,0.0178805,0.007668495,0.0,0.0,0.0
262.68362,443.38733,8736566,0.9375,0.10638297,445.99304,250.46085,0.033568814,0.0178805,0.007668495,0.0,0.0,0.0
270.5593,445.16516,8736583,0.925,0.09574468,428.64145,79.110016,0.033568814,0.0178805,0.007668495,0.0,0.0,0.0
278.141,446.98474,8736599,0.925,0.09574468,449.22443,-5.488668,0.033568814,0.0178805,0.007668495,0.0,0.0,0.0
288.04745,447.682,8736616,0.9375,0.09574468,525.7212,-19.820946,0.033568814,0.0178805,0.007668495,0.0,0.0,0.0
296.94385,447.33484,8736633,0.9375,0.10638297,579.456,-53.601833,0.033568814,0.0178805,0.007668495,0.0,0.0,0.0
305.00394,444.19128,8736649,0.925,0.11702127,571.5041,-145.57884,0.033568814,0.0178805,0.007668495,0.0,0.0,0.0
313.62723,439.24036,8736666,0.925,0.08510638,517.7327,-311.42212,0.033568814,0.0178805,0.007668495,0.0,0.0,0.0
323.19708,432.12378,8736683,0.95,0.08510638,518.7925,-478.3284,0.033568814,0.0178805,0.007668495,0.0,0.0,0.0
333.0124,423.25513,8736700,0.9375,0.09574468,565.5791,-607.9413,0.033568814,0.0178805,0.007668495,0.0,0.0,0.0
341.50232,413.99036,8736716,0.95,0.12765957,584.59705,-677.24066,0.033568814,0.0178805,0.007668495,0.0,0.0,0.0
347.3515,406.6521,8736733,0.96250004,0.12765957,466.00732,-611.5743,-0.0051449426,-0.017695576,0.022135735,0.0,0.0,0.0
353.66437,398.16077,8736750,0.96250004,0.10638297,327.12875,-542.9872,-0.0051449426,-0.017695576,0.022135735,0.0,0.0,0.0
357.88535,390.77515,8736766,0.96250004,0.11702127,228.86333,-460.81204,-0.0051449426,-0.017695576,0.022135735,0.0,0.0,0.0
362.04852,383.37463,8736783,0.96250004,0.11702127,179.91893,-422.7175,-0.0051449426,-0.017695576,0.022135735,0.0,0.0,0.0
366.8088,375.96143,8736800,0.96250004,0.11702127,198.8345,-424.64404,-0.0051449426,-0.017695576,0.022135735,0.0,0.0,0.0
372.87753,367.09326,8736817,0.96250004,0.12765957,263.94217,-449.55936,-0.0051449426,-0.017695576,0.022135735,0.0,0.0,0.0
378.54102,361.33167,8736833,0.975,0.12765957,338.03052,-440.82153,-0.0051449426,-0.017695576,0.022135735,0.0,0.0,0.0
385.02478,355.9403,8736850,0.96250004,0.10638297,410.24475,-377.4148,-0.0051449426,-0.017695576,0.022135735,0.0,0.0,0.0
392.83682,351.7295,8736867,0.96250004,0.10638297,474.29855,-263.74088,-0.0051449426,-0.017695576,0.022135735,0.0,0.0,0.0
401.15036,349.43506,8736883,0.9375,0.12765957,523.277,-130.97746,-0.0051449426,-0.017695576,0.022135735,0.0,0.0,0.0
409.1029,347.59644,8736900,0.9375,0.12765957,541.96423,-35.512005,-0.0051449426,-0.017695576,0.022135735,0.0,0.0,0.0
415.17264,346.39258,8736917,0.925,0.12765957,470.98566,-1.3370317,-0.0051449426,-0.017695576,0.022135735,0.0,0.0,0.0
419.45688,346.39258,8736934,0.925,0.12765957,311.75284,40.686504,-0.0051449426,-0.017695576,0.022135735,0.0,0.0,0.0
422.22812,346.39258,8736950,0.9375,0.12765957,157.90706,48.93831,-0.0051449426,-0.017695576,0.022135735,0.0,0.0,0.0
423.32718,346.39258,8736967,0.95,0.12765957,15.693859,52.477192,-0.0051449426,-0.017695576,0.022135735,0.0,0.0,0.0
424.36487,346.39258,8736984,0.96250004,0.12765957,-41.06869,35.856945,-0.0051449426,-0.017695576,0.022135735,0.0,0.0,0.0
424.33972,346.39258,8737000,0.95,0.12765957,-71.78788,16.340454,-0.0051449426,-0.017695576,0.022135735,0.0,0.0,0.0
424.33972,346.39258,8737025,0.96250004,0.12765957,-58.38153,-0.035226688,-0.0051449426,-0.017695576,0.022135735,0.0,0.0,0.0
423.10843,346.39258,8737051,0.95,0.12765957,-63.638634,7.88716E-5,-0.0051449426,-0.017695576,0.022135735,0.0,0.0,0.0
421.2609,346.39258,8737067,0.96250004,0.12765957,-102.53313,-0.02790932,-0.0051449426,-0.017695576,0.022135735,0.0,0.0,0.0
415.7845,348.19543,8737084,0.925,0.12765957,-257.81274,50.756466,-0.0051449426,-0.017695576,0.022135735,0.0,0.0,0.0
407.60504,350.94177,8737101,0.9375,0.10638297,-529.936,175.14728,-0.0051449426,-0.017695576,0.022135735,0.0,0.0,0.0
400.54678,354.03394,8737117,0.925,0.09574468,-603.7634,235.39726,-0.0051449426,-0.017695576,0.022135735,0.0,0.0,0.0
394.64752,357.37585,8737134,0.925,0.10638297,-557.4042,263.54535,-0.0051449426,-0.017695576,0.022135735,0.0,0.0,0.0
389.62778,361.55762,8737151,0.9125,0.08510638,-376.0477,259.47537,-0.0051449426,-0.017695576,0.022135735,0.0,0.0,0.0
383.6246,369.89954,8737168,0.9125,0.08510638,-272.61646,357.82257,-0.0051449426,-0.017695576,0.022135735,0.0,0.0,0.0
377.36362,379.25378,8737184,0.9125,0.09574468,-288.56418,549.5191,-0.0051449426,-0.017695576,0.022135735,0.0,0.0,0.0
372.69528,388.43872,8737201,0.8875,0.12765957,-334.05194,710.8725,-0.0051449426,-0.017695576,0.022135735,0.0,0.0,0.0
369.1795,395.68237,8737218,0.90000004,0.12765957,-279.01297,650.7705,-0.0051449426,-0.017695576,0.022135735,0.0,0.0,0.0
366.6093,406.14087,8737234,0.9125,0.11702127,-169.18712,593.5583,-0.0051449426,-0.017695576,0.022135735,0.0,0.0,0.0
365.17252,416.4641,8737251,0.90000004,0.09574468,-58.002403,579.5752,-0.0051449426,-0.017695576,0.022135735,0.0,0.0,0.0
365.54745,426.2566,8737268,0.90000004,0.09574468,42.64816,610.4956,0.011884049,-0.014156461,-0.030291557,0.0,0.0,0.0
368.06006,435.12915,8737284,0.875,0.11702127,147.96817,637.9748,0.011884049,-0.014156461,-0.030291557,0.0,0.0,0.0
370.8807,440.61584,8737301,0.8625,0.11702127,254.68016,451.0091,0.011884049,-0.014156461,-0.030291557,0.0,0.0,0.0
375.93732,445.71338,8737318,0.8875,0.12765957,329.88956,265.17688,0.011884049,-0.014156461,-0.030291557,0.0,0.0,0.0
384.15875,451.32886,8737335,0.8875,0.10638297,473.83765,187.3844,0.011884049,-0.014156461,-0.030291557,0.0,0.0,0.0
393.98953,454.5703,8737351,0.875,0.10638297,626.6553,163.28183,0.011884049,-0.014156461,-0.030291557,0.0,0.0,0.0
406.02414,454.79004,8737368,0.85,0.12765957,797.4955,88.64306,0.011884049,-0.014156461,-0.030291557,0.0,0.0,0.0
416.99,452.23828,8737385,0.8625,0.12765957,858.7688,-107.033775,0.011884049,-0.014156461,-0.030291557,0.0,0.0,0.0
427.43948,446.73376,8737401,0.8875,0.08510638,759.56226,-383.36023,0.011884049,-0.014156461,-0.030291557,0.0,0.0,0.0
435.24988,438.33752,8737418,0.8875,0.08510638,592.1684,-585.3312,0.011884049,-0.014156461,-0.030291557,0.0,0.0,0.0
441.25647,429.16162,8737435,0.925,0.09574468,385.13458,-703.21924,0.011884049,-0.014156461,-0.030291557,0.0,0.0,0.0
445.84528,419.88843,8737452,0.9375,0.10638297,230.4509,-732.0174,0.011884049,-0.014156461,-0.030291557,0.0,0.0,0.0
449.72443,406.8423,8737468,0.96250004,0.10638297,145.83038,-795.4073,0.011884049,-0.014156461,-0.030291557,0.0,0.0,0.0
450.33124,399.14758,8737485,0.95,0.09574468,36.27378,-706.0122,0.011884049,-0.014156461,-0.030291557,0.0,0.0,0.0
449.3438,391.74988,8737502,0.96250004,0.10638297,-97.79598,-514.53485,0.011884049,-0.014156461,-0.030291557,0.0,0.0,0.0
447.76422,384.35718,8737518,0.975,0.08510638,-205.50531,-378.2857,0.011884049,-0.014156461,-0.030291557,0.0,0.0,0.0
445.72485,378.53528,8737535,0.96250004,0.10638297,-238.26385,-285.81824,0.011884049,-0.014156461,-0.030291557,0.0,0.0,0.0
443.62915,372.9475,8737552,0.95,0.10638297,-197.11465,-301.30203,0.011884049,-0.014156461,-0.030291557,0.0,0.0,0.0
441.94583,369.0028,8737569,0.975,0.10638297,-157.8889,-239.56151,0.011884049,-0.014156461,-0.030291557,0.0,0.0,0.0
440.90604,366.06714,8737585,0.975,0.10638297,-96.73706,-159.11443,0.011884049,-0.014156461,-0.030291557,0.0,0.0,0.0
439.85547,364.1997,8737602,0.975,0.10638297,-55.60127,-81.00808,0.011884049,-0.014156461,-0.030291557,0.0,0.0,0.0
438.81213,362.3451,8737619,0.96250004,0.10638297,-36.754597,-42.423164,0.011884049,-0.014156461,-0.030291557,0.0,0.0,0.0
438.27054,362.38574,8737635,0.9375,0.10638297,-26.948088,9.775376,0.011884049,-0.014156461,-0.030291557,0.0,0.0,0.0
437.83533,362.54175,8737652,0.9375,0.10638297,-24.524532,43.173347,0.011884049,-0.014156461,-0.030291557,0.0,0.0,0.0
437.83533,364.29248,8737669,0.9125,0.08510638,-3.6956038,107.701,0.011884049,-0.014156461,-0.030291557,0.0,0.0,0.0
437.83533,370.59058,8737686,0.9125,0.08510638,14.238832,278.67627,0.011884049,-0.014156461,-0.030291557,0.0,0.0,0.0
439.7642,379.39832,8737702,0.9125,0.10638297,67.54214,511.7968,0.011884049,-0.014156461,-0.030291557,0.0,0.0,0.0
441.84366,387.29797,8737719,0.8875,0.10638297,145.55959,686.77576,0.011884049,-0.014156461,-0.030291557,0.0,0.0,0.0
445.01202,396.62598,8737736,0.90000004,0.10638297,209.8497,669.6031,0.011884049,-0.014156461,-0.030291557,0.0,0.0,0.0
448.57928,406.0277,8737752,0.8875,0.09574468,258.4694,641.27844,0.011884049,-0.014156461,-0.030291557,0.0,0.0,0.0
453.49384,416.57788,8737769,0.875,0.08510638,294.47177,613.42975,0.011884049,-0.014156461,-0.030291557,0.0,0.0,0.0
457.95056,427.2948,8737786,0.8625,0.08510638,327.75616,665.32764,-0.03849276,0.004674852,-0.00823307,0.0,0.0,0.0
462.12335,434.88037,8737802,0.875,0.08510638,314.7425,612.7472,-0.03849276,0.004674852,-0.00823307,0.0,0.0,0.0
464.7395,438.69385,8737819,0.8625,0.10638297,236.71971,389.87814,-0.03849276,0.004674852,-0.00823307,0.0,0.0,0.0
467.4984,442.55554,8737836,0.8625,0.12765957,145.37038,153.54172,-0.03849276,0.004674852,-0.00823307,0.0,0.0,0.0
471.6369,447.07117,8737853,0.8625,0.12765957,152.68141,76.38293,-0.03849276,0.004674852,-0.00823307,0.0,0.0,0.0
475.77478,450.74902,8737869,0.8625,0.12765957,221.51863,130.70125,-0.03849276,0.004674852,-0.00823307,0.0,0.0,0.0
479.91418,453.27625,8737886,0.83750004,0.12765957,274.63602,170.8696,-0.03849276,0.004674852,-0.00823307,0.0,0.0,0.0
484.26825,454.79004,8737903,0.83750004,0.12765957,293.64697,128.22478,-0.03849276,0.004674852,-0.00823307,0.0,0.0,0.0
491.27148,454.39368,8737919,0.875,0.10638297,328.82336,-4.0308385,-0.03849276,0.004674852,-0.00823307,0.0,0.0,0.0
504.8377,448.82727,8737936,0.875,0.09574468,619.8831,-221.2888,-0.03849276,0.004674852,-0.00823307,0.0,0.0,0.0
518.33203,437.61316,8737953,0.875,0.08510638,930.3049,-595.8833,-0.03849276,0.004674852,-0.00823307,0.0,0.0,0.0
530.39716,424.96155,8737970,0.875,0.11702127,1018.7596,-930.1574,-0.03849276,0.004674852,-0.00823307,0.0,0.0,0.0
543.75726,410.27588,8737986,0.8875,0.12765957,936.1041,-1125.8796,-0.03849276,0.004674852,-0.00823307,0.0,0.0,0.0
554.8832,395.7008,8738003,0.8875,0.09574468,747.5717,-1102.4276,-0.03849276,0.004674852,-0.00823307,0.0,0.0,0.0
564.0344,379.7948,8738020,0.90000004,0.08510638,605.63947,-1036.4823,-0.03849276,0.004674852,-0.00823307,0.0,0.0,0.0
573.31757,360.55603,8738036,0.90000004,0.12765957,516.7073,-1127.7191,-0.03849276,0.004674852,-0.00823307,0.0,0.0,0.0
578.9792,344.89697,8738053,0.925,0.11702127,367.72235,-1116.3192,-0.03849276,0.004674852,-0.00823307,0.0,0.0,0.0
583.1283,325.18286,8738070,0.925,0.09574468,213.43828,-1148.3112,-0.03849276,0.004674852,-0.00823307,0.0,0.0,0.0
585.52545,305.18237,8738087,0.90000004,0.12765957,88.21536,-1203.7806,-0.03849276,0.004674852,-0.00823307,0.0,0.0,0.0
586.287,283.865,8738103,0.9375,0.09574468,-26.672365,-1262.7423,-0.03849276,0.004674852,-0.00823307,0.0,0.0,0.0
586.78687,261.03442,8738120,0.95,0.11702127,-89.91938,-1412.1798,-0.03849276,0.004674852,-0.00823307,0.0,0.0,0.0
586.78687,243.02295,8738137,0.95,0.12765957,-81.77404,-1313.3041,-0.03849276,0.004674852,-0.00823307,0.0,0.0,0.0
586.50543,225.49658,8738153,0.95,0.09574468,-68.77804,-1109.4592,-0.03849276,0.004674852,-0.00823307,0.0,0.0,0.0
584.65137,210.04883,8738170,0.95,0.11702127,-88.08529,-909.31274,-0.03849276,0.004674852,-0.00823307,0.0,0.0,0.0
582.0706,196.21423,8738187,0.95,0.12765957,-157.26895,-727.4678,-0.03849276,0.004674852,-0.00823307,0.0,0.0,0.0
579.50946,187.24475,8738204,0.96250004,0.12765957,-215.43427,-601.3636,-0.03849276,0.004674852,-0.00823307,0.0,0.0,0.0
576.50256,180.61987,8738220,0.9375,0.10638297,-225.96979,-355.7335,-0.03849276,0.004674852,-0.00823307,0.0,0.0,0.0
573.8519,176.76062,8738237,0.96250004,0.10638297,-202.35956,-121.40263,-0.03849276,0.004674852,-0.00823307,0.0,0.0,0.0
570.21515,173.06604,8738254,0.95,0.09574468,-199.69313,-27.473753,-0.03849276,0.004674852,-0.00823307,0.0,0.0,0.0
566.07336,171.25964,8738270,0.9375,0.09574468,-239.67407,7.3419175,-0.03849276,0.004674852,-0.00823307,0.0,0.0,0.0
563.0266,170.469,8738287,0.925,0.10638297,-242.03322,12.642419,-0.03849276,0.004674852,-0.00823307,0.0,0.0,0.0
560.5367,170.469,8738304,0.9375,0.10638297,-201.9314,55.388954,-0.03849276,0.004674852,-0.00823307,0.0,0.0,0.0
558.44196,171.67224,8738321,0.9125,0.12765957,-136.25137,105.29881,-0.014794208,0.05173987,0.0574131,0.0,0.0,0.0
555.1663,178.55676,8738337,0.9375,0.12765957,-117.14709,286.59485,-0.014794208,0.05173987,0.0574131,0.0,0.0,0.0
552.7875,190.08997,8738354,0.925,0.10638297,-146.7476,620.15393,-0.014794208,0.05173987,0.0574131,0.0,0.0,0.0
551.2984,205.84546,8738371,0.925,0.08510638,-135.17921,1005.39624,-0.014794208,0.05173987,0.0574131,0.0,0.0,0.0
551.62756,222.24048,8738387,0.90000004,0.10638297,-41.695667,1272.7102,-0.014794208,0.05173987,0.0574131,0.0,0.0,0.0
553.1692,241.9292,8738404,0.8875,0.10638297,103.532906,1354.6221,-0.014794208,0.05173987,0.0574131,0.0,0.0,0.0
555.0019,263.265,8738421,0.90000004,0.08510638,180.3303,1379.7808,-0.014794208,0.05173987,0.0574131,0.0,0.0,0.0
556.7398,280.7245,8738437,0.875,0.10638297,198.38286,1316.8685,-0.014794208,0.05173987,0.0574131,0.0,0.0,0.0
558.77264,299.85925,8738454,0.8875,0.09574468,170.01958,1206.9521,-0.014794208,0.05173987,0.0574131,0.0,0.0,0.0
560.3165,322.85168,8738471,0.875,0.09574468,124.08707,1226.5442,-0.014794208,0.05173987,0.0574131,0.0,0.0,0.0
561.3659,338.6405,8738488,0.875,0.10638297,84.08591,1150.1073,-0.014794208,0.05173987,0.0574131,0.0,0.0,0.0
561.90173,357.55432,8738504,0.8625,0.08510638,37.58806,1123.0033,-0.014794208,0.05173987,0.0574131,0.0,0.0,0.0
562.2948,377.74548,8738521,0.90000004,0.08510638,9.043546,1161.0615,-0.014794208,0.05173987,0.0574131,0.0,0.0,0.0
562.2948,393.19153,8738538,0.8625,0.10638297,-19.15602,1020.5964,-0.014794208,0.05173987,0.0574131,0.0,0.0,0.0
562.74084,411.26746,8738554,0.9125,0.09574468,-15.715198,1006.24164,-0.014794208,0.05173987,0.0574131,0.0,0.0,0.0
564.04785,429.088,8738571,0.8625,0.08510638,36.422813,997.60876,-0.014794208,0.05173987,0.0574131,0.0,0.0,0.0
565.0838,443.29163,8738588,0.875,0.10638297,80.255745,943.25073,-0.014794208,0.05173987,0.0574131,0.0,0.0,0.0
565.2938,457.68396,8738605,0.8625,0.10638297,75.60397,865.49725,-0.014794208,0.05173987,0.0574131,0.0,0.0,0.0
566.65356,474.76672,8738621,0.875,0.08510638,56.285477,830.0602,-0.014794208,0.05173987,0.0574131,0.0,0.0,0.0
567.29315,488.937,8738638,0.85,0.08510638,44.26744,869.49536,-0.014794208,0.05173987,0.0574131,0.0,0.0,0.0
567.29315,501.37866,8738655,0.83750004,0.10638297,28.213707,837.5997,-0.014794208,0.05173987,0.0574131,0.0,0.0,0.0
567.793,510.77722,8738671,0.875,0.09574468,14.779547,663.3543,-0.014794208,0.05173987,0.0574131,0.0,0.0,0.0
568.29285,517.2057,8738688,0.8625,0.09574468,11.15586,378.3284,-0.014794208,0.05173987,0.0574131,0.0,0.0,0.0
569.37305,520.82544,8738705,0.9125,0.10638297,31.146542,141.43102,-0.014794208,0.05173987,0.0574131,0.0,0.0,0.0
569.79236,523.4092,8738722,0.9125,0.10638297,54.4847,16.164406,-0.014794208,0.05173987,0.0574131,0.0,0.0,0.0
569.79236,524.09326,8738738,0.9375,0.10638297,33.34438,-84.08391,-0.014794208,0.05173987,0.0574131,0.0,0.0,0.0
569.9901,524.09326,8738755,0.96250004,0.10638297,-0.062465277,-111.30922,-0.014794208,0.05173987,0.0574131,0.0,0.0,0.0
570.2922,524.09326,8738772,0.96250004,0.10638297,-5.569597,-99.0091,-0.014794208,0.05173987,0.0574131,0.0,0.0,0.0
570.2922,523.6394,8738788,0.95,0.10638297,1.2021009,-81.1456,-0.014794208,0.05173987,0.0574131,0.0,0.0,0.0
570.2922,521.885,8738805,0.9125,0.10638297,5.089458,-88.99818,-0.014794208,0.05173987,0.0574131,0.0,0.0,0.0
570.64716,519.9083,8738822,0.8875,0.12765957,1.0312364,-132.43724,-0.014794208,0.05173987,0.0574131,0.0,0.0,0.0
571.6738,517.4044,8738839,0.875,0.12765957,31.507011,-174.81679,-0.014794208,0.05173987,0.0574131,0.0,0.0,0.0
576.6877,504.67944,8738855,0.8875,0.10638297,161.08623,-416.2119,-0.02783537,-0.022608131,-0.0660696,0.0,0.0,0.0
582.14386,483.86426,8738872,0.9125,0.09574468,353.96652,-1015.4575,-0.02783537,-0.022608131,-0.0660696,0.0,0.0,0.0
585.3316,467.90784,8738889,0.90000004,0.12765957,386.95386,-1432.5663,-0.02783537,-0.022608131,-0.0660696,0.0,0.0,0.0
586.841,453.22803,8738905,0.9125,0.11702127,255.51962,-1386.3705,-0.02783537,-0.022608131,-0.0660696,0.0,0.0,0.0
588.37695,436.45984,8738922,0.9375,0.09574468,85.48516,-1122.4418,-0.02783537,-0.022608131,-0.0660696,0.0,0.0,0.0
589.91504,422.97388,8738939,0.925,0.11702127,-9.886328,-826.27924,-0.02783537,-0.022608131,-0.0660696,0.0,0.0,0.0
592.1779,410.93616,8738956,0.95,0.12765957,46.582695,-725.20526,-0.02783537,-0.022608131,-0.0660696,0.0,0.0,0.0
594.4079,402.29858,8738972,0.925,0.11702127,108.54352,-592.572,-0.02783537,-0.022608131,-0.0660696,0.0,0.0,0.0
597.7748,392.6173,8738989,0.95,0.08510638,182.85324,-432.63727,-0.02783537,-0.022608131,-0.0660696,0.0,0.0,0.0
601.6426,383.44775,8739006,0.9375,0.08510638,246.13666,-439.24994,-0.02783537,-0.022608131,-0.0660696,0.0,0.0,0.0
606.63,374.75134,8739022,0.95,0.10638297,297.1883,-471.09894,-0.02783537,-0.022608131,-0.0660696,0.0,0.0,0.0
613.60364,366.24377,8739039,0.925,0.10638297,392.79022,-491.39883,-0.02783537,-0.022608131,-0.0660696,0.0,0.0,0.0
620.52686,359.4972,8739056,0.9125,0.12765957,476.96573,-440.56177,-0.02783537,-0.022608131,-0.0660696,0.0,0.0,0.0
626.34686,354.6421,8739072,0.925,0.12765957,468.22076,-325.80563,-0.02783537,-0.022608131,-0.0660696,0.0,0.0,0.0
631.6687,351.7605,8739089,0.9125,0.12765957,394.7091,-187.77269,-0.02783537,-0.022608131,-0.0660696,0.0,0.0,0.0
635.8596,349.90723,8739106,0.90000004,0.12765957,273.32706,-38.712204,-0.02783537,-0.022608131,-0.0660696,0.0,0.0,0.0
640.0293,349.94666,8739123,0.90000004,0.12765957,211.12413,56.923435,-0.02783537,-0.022608131,-0.0660696,0.0,0.0,0.0
645.2889,349.94666,8739139,0.8875,0.12765957,234.19823,98.403824,-0.02783537,-0.022608131,-0.0660696,0.0,0.0,0.0
650.53815,351.1095,8739156,0.8875,0.12765957,279.51,118.26184,-0.02783537,-0.022608131,-0.0660696,0.0,0.0,0.0
654.58154,354.22632,8739173,0.875,0.09574468,291.51212,174.54605,-0.02783537,-0.022608131,-0.0660696,0.0,0.0,0.0
657.3902,357.79663,8739189,0.8625,0.09574468,225.86809,255.2227,-0.02783537,-0.022608131,-0.0660696,0.0,0.0,0.0
660.42554,363.3634,8739206,0.85,0.08510638,141.54298,334.8307,-0.02783537,-0.022608131,-0.0660696,0.0,0.0,0.0
664.05035,376.12537,8739223,0.83750004,0.08510638,157.74684,627.6684,-0.02783537,-0.022608131,-0.0660696,0.0,0.0,0.0
663.4296,384.29456,8739240,0.8625,0.09574468,77.11685,766.18896,-0.02783537,-0.022608131,-0.0660696,0.0,0.0,0.0
660.9818,392.45508,8739256,0.85,0.12765957,-97.404564,678.9215,-0.02783537,-0.022608131,-0.0660696,0.0,0.0,0.0
655.59045,403.56604,8739273,0.8875,0.12765957,-331.74298,609.7888,-0.02783537,-0.022608131,-0.0660696,0.0,0.0,0.0
650.13916,411.5896,8739290,0.875,0.09574468,-486.85074,514.58295,-0.02783537,-0.022608131,-0.0660696,0.0,0.0,0.0
642.83136,420.94714,8739306,0.8875,0.08510638,-536.4537,566.8646,-0.02783537,-0.022608131,-0.0660696,0.0,0.0,0.0
636.06805,429.26367,8739323,0.8875,0.08510638,-528.21,557.34375,-0.02783537,-0.022608131,-0.0660696,0.0,0.0,0.0
630.33136,434.74658,8739340,0.9125,0.09574468,-450.7368,404.4515,-0.02783537,-0.022608131,-0.0660696,0.0,0.0,0.0
625.82825,438.30457,8739357,0.925,0.09574468,-342.66583,248.1149,-0.02783537,-0.022608131,-0.0660696,0.0,0.0,0.0
621.60815,442.05554,8739373,0.90000004,0.09574468,-239.69295,132.54213,-0.02783537,-0.022608131,-0.0660696,0.0,0.0,0.0
618.01495,443.57788,8739390,0.90000004,0.10638297,-172.02345,32.693466,0.009731706,-0.0020865202,-0.004855156,0.0,0.0,0.0
613.8838,445.4137,8739407,0.90000004,0.12765957,-188.94818,40.6573,0.009731706,-0.0020865202,-0.004855156,0.0,0.0,0.0
610.7803,446.79346,8739423,0.8875,0.12765957,-194.6644,41.786037,0.009731706,-0.0020865202,-0.004855156,0.0,0.0,0.0
608.2403,446.79346,8739440,0.8875,0.12765957,-164.90361,-0.19714393,0.009731706,-0.0020865202,-0.004855156,0.0,0.0,0.0
606.48834,446.79346,8739457,0.90000004,0.12765957,-105.454834,-31.06901,0.009731706,-0.0020865202,-0.004855156,0.0,0.0,0.0
605.4441,446.79346,8739474,0.90000004,0.12765957,-39.38844,-51.773,0.009731706,-0.0020865202,-0.004855156,0.0,0.0,0.0
604.3933,446.79346,8739490,0.9125,0.12765957,-12.808438,-39.621944,0.009731706,-0.0020865202,-0.004855156,0.0,0.0,0.0
603.60754,446.79346,8739507,0.90000004,0.10638297,-15.5853195,-9.637481,0.009731706,-0.0020865202,-0.004855156,0.0,0.0,0.0
603.7813,446.79346,8739523,0.9125,0.10638297,6.7107463,0.051871214,0.009731706,-0.0020865202,-0.004855156,0.0,0.0,0.0
603.7813,446.79346,8739540,0.925,0.10638297,17.364199,-0.002185945,0.009731706,-0.0020865202,-0.004855156,0.0,0.0,0.0
603.7813,446.79346,8739557,0.9375,0.10638297,27.602919,0.012350066,0.009731706,-0.0020865202,-0.004855156,0.0,0.0,0.0
603.7813,444.77417,8739574,0.925,0.10638297,24.630753,-56.26366,0.009731706,-0.0020865202,-0.004855156,0.0,0.0,0.0
604.96747,443.7965,8739590,0.9375,0.09574468,42.42847,-92.511116,0.009731706,-0.0020865202,-0.004855156,0.0,0.0,0.0
606.67773,443.2395,8739607,0.9375,0.09574468,94.32887,-96.292816,0.009731706,-0.0020865202,-0.004855156,0.0,0.0,0.0
608.7419,443.2395,8739624,0.95,0.09574468,153.84216,-22.057747,0.009731706,-0.0020865202,-0.004855156,0.0,0.0,0.0
612.3176,443.2395,8739641,0.9375,0.09574468,210.12614,33.392765,0.009731706,-0.0020865202,-0.004855156,0.0,0.0,0.0
615.9467,443.2395,8739657,0.96250004,0.09574468,254.35541,33.35216,0.009731706,-0.0020865202,-0.004855156,0.0,0.0,0.0
620.04266,443.2395,8739674,0.95,0.09574468,282.53317,24.888891,0.009731706,-0.0020865202,-0.004855156,0.0,0.0,0.0
623.85913,443.2395,8739691,0.9125,0.10638297,279.35413,0.0057925642,0.009731706,-0.0020865202,-0.004855156,0.0,0.0,0.0
627.53375,444.8744,8739707,0.9125,0.10638297,251.53694,38.888287,0.009731706,-0.0020865202,-0.004855156,0.0,0.0,0.0
631.63153,446.73096,8739724,0.925,0.12765957,226.4997,106.768585,0.009731706,-0.0020865202,-0.004855156,0.0,0.0,0.0
635.2999,448.58765,8739741,0.90000004,0.12765957,232.66881,154.2067,0.009731706,-0.0020865202,-0.004855156,0.0,0.0,0.0
638.3898,450.41846,8739758,0.90000004,0.12765957,209.04381,158.33867,0.009731706,-0.0020865202,-0.004855156,0.0,0.0,0.0
643.1084,453.31506,8739774,0.9125,0.12765957,232.79291,158.5969,0.009731706,-0.0020865202,-0.004855156,0.0,0.0,0.0
647.2517,456.109,8739791,0.90000004,0.12765957,247.85318,167.66838,0.009731706,-0.0020865202,-0.004855156,0.0,0.0,0.0
651.6705,458.74585,8739808,0.90000004,0.12765957,262.37952,192.36989,0.009731706,-0.0020865202,-0.004855156,0.0,0.0,0.0
656.58606,461.37463,8739824,0.9125,0.10638297,301.16846,195.71605,0.009731706,-0.0020865202,-0.004855156,0.0,0.0,0.0
660.7412,463.2212,8739841,0.90000004,0.09574468,287.46616,139.73784,0.009731706,-0.0020865202,-0.004855156,0.0,0.0,0.0
664.90845,465.07312,8739858,0.9125,0.09574468,272.90387,93.96381,0.009731706,-0.0020865202,-0.004855156,0.0,0.0,0.0
669.56696,466.92126,8739875,0.9125,0.09574468,257.1636,76.41808,0.009731706,-0.0020865202,-0.004855156,0.0,0.0,0.0
673.68835,468.7528,8739891,0.90000004,0.09574468,241.5727,90.10021,0.009731706,-0.0020865202,-0.004855156,0.0,0.0,0.0
677.0305,469.0061,8739908,0.90000004,0.10638297,232.6301,68.42499,0.009731706,-0.0020865202,-0.004855156,0.0,0.0,0.0
679.10925,469.0061,8739925,0.9125,0.10638297,160.8042,2.6540437,-0.008214638,-0.025669247,-0.0038843155,0.0,0.0,0.0
681.2289,469.0061,8739941,0.925,0.10638297,90.22953,-44.432793,-0.008214638,-0.025669247,-0.0038843155,0.0,0.0,0.0
682.80396,469.0061,8739958,0.8875,0.10638297,54.261204,-45.225285,-0.008214638,-0.025669247,-0.0038843155,0.0,0.0,0.0
684.3856,469.0061,8739975,0.8875,0.10638297,53.271038,-21.773045,-0.008214638,-0.025669247,-0.0038843155,0.0,0.0,0.0
685.93567,469.0061,8739992,0.8875,0.10638297,71.00741,-0.01170241,-0.008214638,-0.025669247,-0.0038843155,0.0,0.0,0.0
686.88824,469.0061,8740008,0.8875,0.10638297,67.0559,0.0023906098,-0.008214638,-0.025669247,-0.0038843155,0.0,0.0,0.0
688.9292,469.0061,8740025,0.90000004,0.11702127,86.188515,0.0066376873,-0.008214638,-0.025669247,-0.0038843155,0.0,0.0,0.0
690.38715,469.0061,8740042,0.8625,0.11702127,94.86769,0.012091128,-0.008214638,-0.025669247,-0.0038843155,0.0,0.0,0.0
692.2755,469.0061,8740058,0.875,0.11702127,105.0981,0.025234727,-0.008214638,-0.025669247,-0.0038843155,0.0,0.0,0.0
694.2934,469.0061,8740075,0.8625,0.11702127,120.55057,0.04158704,-0.008214638,-0.025669247,-0.0038843155,0.0,0.0,0.0
696.3563,469.0061,8740092,0.8625,0.11702127,127.467926,0.041617684,-0.008214638,-0.025669247,-0.0038843155,0.0,0.0,0.0
698.45593,469.0061,8740109,0.8625,0.11702127,136.74934,0.0057460433,-0.008214638,-0.025669247,-0.0038843155,0.0,0.0,0.0
700.5306,467.42395,8740125,0.8625,0.10638297,130.03119,-38.271507,-0.008214638,-0.025669247,-0.0038843155,0.0,0.0,0.0
702.63385,465.55444,8740142,0.8875,0.12765957,124.67208,-105.51824,-0.008214638,-0.025669247,-0.0038843155,0.0,0.0,0.0
704.2466,463.6787,8740159,0.8625,0.12765957,119.424164,-157.49701,-0.008214638,-0.025669247,-0.0038843155,0.0,0.0,0.0
705.28564,460.8767,8740175,0.83750004,0.12765957,80.46698,-182.99478,-0.008214638,-0.025669247,-0.0038843155,0.0,0.0,0.0
709.5777,449.46558,8740192,0.85,0.08510638,131.70326,-414.41403,-0.008214638,-0.025669247,-0.0038843155,0.0,0.0,0.0
715.96674,432.43005,8740209,0.8625,0.08510638,294.84552,-884.9354,-0.008214638,-0.025669247,-0.0038843155,0.0,0.0,0.0
722.48694,418.49988,8740225,0.8875,0.10638297,444.02942,-1183.4537,-0.008214638,-0.025669247,-0.0038843155,0.0,0.0,0.0
727.1831,408.69104,8740242,0.8625,0.12765957,483.6579,-1123.8303,-0.008214638,-0.025669247,-0.0038843155,0.0,0.0,0.0
733.80615,398.20422,8740259,0.8625,0.08510638,404.3065,-695.5175,-0.008214638,-0.025669247,-0.0038843155,0.0,0.0,0.0
741.0532,387.16235,8740276,0.8625,0.09574468,391.60852,-485.0321,-0.008214638,-0.025669247,-0.0038843155,0.0,0.0,0.0
747.38837,378.31042,8740292,0.85,0.09574468,423.2379,-505.4019,-0.008214638,-0.025669247,-0.0038843155,0.0,0.0,0.0
753.5736,371.64563,8740309,0.8625,0.11702127,399.23166,-435.9989,-0.008214638,-0.025669247,-0.0038843155,0.0,0.0,0.0
759.84973,366.46143,8740326,0.83750004,0.10638297,372.66327,-309.6003,-0.008214638,-0.025669247,-0.0038843155,0.0,0.0,0.0
766.1423,363.44775,8740342,0.85,0.09574468,342.19406,-130.99744,-0.008214638,-0.025669247,-0.0038843155,0.0,0.0,0.0
773.8618,361.57812,8740359,0.85,0.09574468,392.15698,-21.908318,-0.008214638,-0.025669247,-0.0038843155,0.0,0.0,0.0
778.7318,359.71692,8740376,0.825,0.09574468,397.47928,-1.6661326,-0.008214638,-0.025669247,-0.0038843155,0.0,0.0,0.0
784.93884,358.83167,8740393,0.825,0.10638297,364.5694,2.6525502,-0.008214638,-0.025669247,-0.0038843155,0.0,0.0,0.0
789.52856,357.9431,8740409,0.825,0.12765957,310.03568,-10.168333,-0.008214638,-0.025669247,-0.0038843155,0.0,0.0,0.0
793.72363,355.94214,8740426,0.8,0.12765957,235.84746,-47.09209,-0.008214638,-0.025669247,-0.0038843155,0.0,0.0,0.0
797.85297,355.2777,8740443,0.8,0.12765957,205.22472,-58.12963,-0.008214638,-0.025669247,-0.0038843155,0.0,0.0,0.0
801.986,354.38916,8740459,0.7875,0.12765957,213.68423,-52.96614,-0.00657171,-0.012535393,0.012891769,0.0,0.0,0.0
805.4304,354.38916,8740476,0.7875,0.12765957,209.90515,-20.698982,-0.00657171,-0.012535393,0.012891769,0.0,0.0,0.0
807.7286,354.38916,8740493,0.77500004,0.12765957,169.7947,20.59187,-0.00657171,-0.012535393,0.012891769,0.0,0.0,0.0
809.5236,354.38916,8740510,0.7875,0.12765957,99.75733,26.53425,-0.00657171,-0.012535393,0.012891769,0.0,0.0,0.0
810.54236,354.38916,8740526,0.7875,0.12765957,31.938644,15.761121,-0.00657171,-0.012535393,0.012891769,0.0,0.0,0.0
811.1652,353.5869,8740543,0.8,0.12765957,-4.2029963,-7.5667763,-0.00657171,-0.012535393,0.012891769,0.0,0.0,0.0
812.12585,353.5006,8740560,0.8,0.12765957,0.76563936,-32.787247,-0.00657171,-0.012535393,0.012891769,0.0,0.0,0.0
813.1815,353.5006,8740576,0.8,0.12765957,24.545395,-23.112637,-0.00657171,-0.012535393,0.012891769,0.0,0.0,0.0
813.731,353.5006,8740593,0.7875,0.12765957,41.40328,-1.711632,-0.00657171,-0.012535393,0.012891769,0.0,0.0,0.0
815.29736,353.5006,8740610,0.7875,0.10638297,66.817,12.0962105,-0.00657171,-0.012535393,0.012891769,0.0,0.0,0.0
817.9673,353.5006,8740627,0.7875,0.10638297,122.71635,10.547295,-0.00657171,-0.012535393,0.012891769,0.0,0.0,0.0
822.3446,354.67102,8740643,0.77500004,0.09574468,220.58679,25.997643,-0.00657171,-0.012535393,0.012891769,0.0,0.0,0.0
827.9946,356.44556,8740660,0.77500004,0.08510638,351.31424,87.83002,-0.00657171,-0.012535393,0.012891769,2.9360124E-6,0.0,0.0
834.45776,358.31384,8740677,0.7625,0.09574468,446.46454,140.97423,-0.00657171,-0.012535393,0.012891769,2.9360124E-6,0.0,0.0
840.45,359.7202,8740693,0.77500004,0.09574468,456.73386,154.88187,-0.00657171,-0.012535393,0.012891769,2.9360124E-6,0.0,0.0
845.0777,360.2384,8740710,0.77500004,0.10638297,390.0716,79.75583,-0.00657171,-0.012535393,0.012891769,2.9360124E-6,0.0,0.0
847.86346,360.60864,8740727,0.7875,0.10638297,232.43474,10.021852,-0.00657171,-0.012535393,0.012891769,0.0,0.0,0.0
849.5714,360.60864,8740744,0.8,0.10638297,85.3845,-25.490135,-0.00657171,-0.012535393,0.012891769,0.0,0.0,0.0
850.45105,360.60864,8740758,0.8125,0.10638297,-2.6569364,-34.40573,-0.00657171,-0.012535393,0.012891769,0.0,0.0,0.0
849.211,360.60864,8740794,0.825,0.08510638,-98.49553,-15.227256,-0.00657171,-0.012535393,0.012891769,0.0,0.0,0.0
846.63837,360.60864,8740810,0.85,0.09574468,-164.2869,-0.023771321,-0.00657171,-0.012535393,0.012891769,0.0,0.0,0.0
841.395,360.60864,8740827,0.8625,0.09574468,-296.27893,-0.011015582,-0.00657171,-0.012535393,0.012891769,0.0,0.0,0.0
834.9513,360.60864,8740844,0.875,0.09574468,-423.23273,-0.0078695575,-0.00657171,-0.012535393,0.012891769,0.0,0.0,0.0
827.66565,360.60864,8740860,0.8875,0.10638297,-526.5158,-0.0019397878,-0.00657171,-0.012535393,0.012891769,0.0,0.0,0.0
820.0546,360.60864,8740877,0.90000004,0.11702127,-556.81464,-0.010498788,-0.00657171,-0.012535393,0.012891769,0.0,0.0,0.0
813.9046,361.88464,8740894,0.8875,0.11702127,-483.28543,31.850986,-0.00657171,-0.012535393,0.012891769,0.0,0.0,0.0
807.9172,363.73535,8740911,0.8875,0.11702127,-413.34848,100.82412,-0.00657171,-0.012535393,0.012891769,0.0,0.0,0.0
803.0701,365.39062,8740927,0.90000004,0.10638297,-303.4154,143.28102,-0.00657171,-0.012535393,0.012891769,0.0,0.0,0.0
797.6594,367.7516,8740944,0.875,0.08510638,-259.5765,160.14143,-0.00657171,-0.012535393,0.012891769,0.0,0.0,0.0
791.66003,371.4911,8740961,0.8625,0.08510638,-279.50528,197.38173,-0.00657171,-0.012535393,0.012891769,0.0,0.0,0.0
785.5868,376.83167,8740977,0.85,0.08510638,-323.76416,279.1163,-0.00657171,-0.012535393,0.012891769,0.0,0.0,0.0
778.03357,383.09363,8740994,0.85,0.10638297,-403.01663,389.1712,0.010742631,-0.010028303,-0.0056858063,0.0,0.0,0.0
770.74243,389.91553,8741011,0.83750004,0.12765957,-481.9513,488.8145,0.010742631,-0.010028303,-0.0056858063,0.0,0.0,0.0
763.9624,396.41968,8741028,0.825,0.12765957,-479.64142,478.33792,0.010742631,-0.010028303,-0.0056858063,0.0,0.0,0.0
758.38324,402.739,8741044,0.83750004,0.11702127,-414.6189,444.36572,0.010742631,-0.010028303,-0.0056858063,0.0,0.0,0.0
751.1512,416.04883,8741061,0.8625,0.09574468,-382.5025,591.8499,0.010742631,-0.010028303,-0.0056858063,0.0,0.0,0.0
747.55365,424.22803,8741078,0.83750004,0.08510638,-293.07477,660.27783,0.010742631,-0.010028303,-0.0056858063,0.0,0.0,0.0
744.8692,432.99036,8741094,0.85,0.08510638,-191.33144,661.5454,0.010742631,-0.010028303,-0.0056858063,0.0,0.0,0.0
743.51526,439.97253,8741111,0.825,0.10638297,-39.045593,495.744,0.010742631,-0.010028303,-0.0056858063,0.0,0.0,0.0
743.2359,446.04993,8741128,0.83750004,0.12765957,59.315887,317.59833,0.010742631,-0.010028303,-0.0056858063,0.0,0.0,0.0
744.0434,452.8766,8741145,0.8125,0.12765957,92.81465,320.21252,0.010742631,-0.010028303,-0.0056858063,0.0,0.0,0.0
745.9,458.3396,8741161,0.8,0.11702127,147.58438,302.50302,0.010742631,-0.010028303,-0.0056858063,0.0,0.0,0.0
747.9616,462.5442,8741178,0.825,0.11702127,186.1972,282.26578,0.010742631,-0.010028303,-0.0056858063,0.0,0.0,0.0
751.4241,467.75122,8741195,0.8125,0.09574468,222.6408,249.66283,0.010742631,-0.010028303,-0.0056858063,0.0,0.0,0.0
755.56067,472.40796,8741211,0.7875,0.08510638,265.16956,232.4638,0.010742631,-0.010028303,-0.0056858063,0.0,0.0,0.0
760.7647,477.92786,8741228,0.8125,0.08510638,330.6852,283.9924,0.010742631,-0.010028303,-0.0056858063,0.0,0.0,0.0
766.5179,481.61658,8741245,0.825,0.08510638,383.814,280.15405,0.010742631,-0.010028303,-0.0056858063,0.0,0.0,0.0
772.81915,483.37268,8741262,0.85,0.08510638,416.6738,184.93115,0.010742631,-0.010028303,-0.0056858063,0.0,0.0,0.0
779.43945,484.1106,8741278,0.85,0.08510638,438.21207,46.162727,0.010742631,-0.010028303,-0.0056858063,0.0,0.0,0.0
784.7007,484.1106,8741295,0.8625,0.08510638,398.629,-61.839355,0.010742631,-0.010028303,-0.0056858063,0.0,0.0,0.0
788.0122,482.87073,8741312,0.8625,0.08510638,294.92368,-128.18658,0.010742631,-0.010028303,-0.0056858063,0.0,0.0,0.0
791.40216,481.04114,8741328,0.85,0.08510638,169.2349,-157.48311,0.010742631,-0.010028303,-0.0056858063,0.0,0.0,0.0
794.0526,478.6809,8741345,0.85,0.08510638,100.03018,-185.0281,0.010742631,-0.010028303,-0.0056858063,0.0,0.0,0.0
797.43945,474.48657,8741362,0.8,0.11702127,119.729836,-237.4062,0.010742631,-0.010028303,-0.0056858063,0.0,0.0,0.0
801.5529,469.00256,8741379,0.7875,0.12765957,184.87016,-332.62482,0.010742631,-0.010028303,-0.0056858063,0.0,0.0,0.0
807.415,461.95728,8741395,0.7875,0.12765957,287.45865,-432.91016,0.010742631,-0.010028303,-0.0056858063,0.0,0.0,0.0
815.49725,452.1891,8741412,0.8,0.10638297,440.26984,-569.1209,0.010742631,-0.010028303,-0.0056858063,0.0,0.0,0.0
824.9189,437.536,8741429,0.8125,0.08510638,595.95,-791.47144,0.010742631,-0.010028303,-0.0056858063,0.0,0.0,0.0
833.83636,424.3789,8741445,0.825,0.10638297,668.96387,-983.48126,0.010742631,-0.010028303,-0.0056858063,0.0,0.0,0.0
840.52985,413.43665,8741462,0.83750004,0.12765957,584.75696,-949.1402,0.010742631,-0.010028303,-0.0056858063,0.0,0.0,0.0
843.97736,405.27258,8741479,0.83750004,0.10638297,350.47678,-697.9929,0.010742631,-0.010028303,-0.0056858063,0.0,0.0,0.0
847.9137,396.40784,8741495,0.8625,0.08510638,145.1495,-436.3218,0.010742631,-0.010028303,-0.0056858063,0.0,0.0,0.0
849.40265,390.63306,8741512,0.875,0.08510638,28.738384,-291.47937,0.010742631,-0.010028303,-0.0056858063,0.0,0.0,0.0
849.70123,386.5581,8741529,0.875,0.08510638,-35.622437,-227.74051,-0.023405895,0.007977366,0.0114507675,0.0,0.0,0.0
849.70123,382.8368,8741546,0.90000004,0.08510638,-60.34807,-173.04475,-0.023405895,0.007977366,0.0114507675,0.0,0.0,0.0
849.70123,380.03186,8741562,0.8875,0.08510638,-87.75314,-91.02448,-0.023405895,0.007977366,0.0114507675,0.0,0.0,0.0
849.3912,377.82764,8741579,0.90000004,0.08510638,-71.69978,-55.618916,-0.023405895,0.007977366,0.0114507675,0.0,0.0,0.0
849.2014,375.99475,8741596,0.9125,0.08510638,-32.4354,-65.60828,-0.023405895,0.007977366,0.0114507675,0.0,0.0,0.0
848.4932,375.71326,8741612,0.9375,0.08510638,-33.447018,-25.890734,-0.023405895,0.007977366,0.0114507675,0.0,0.0,0.0
848.2017,375.71326,8741629,0.95,0.10638297,-39.28603,29.893034,-0.023405895,0.007977366,0.0114507675,0.0,0.0,0.0
847.22595,375.71326,8741646,0.95,0.10638297,-45.856148,57.811794,-0.023405895,0.007977366,0.0114507675,0.0,0.0,0.0
846.18427,377.52246,8741663,0.9125,0.10638297,-64.13702,98.375786,-0.023405895,0.007977366,0.0114507675,0.0,0.0,0.0
845.1423,380.3706,8741679,0.875,0.09574468,-77.55234,163.94415,-0.023405895,0.007977366,0.0114507675,0.0,0.0,0.0
844.7029,384.08008,8741696,0.8625,0.09574468,-62.43288,242.34953,-0.023405895,0.007977366,0.0114507675,0.0,0.0,0.0
843.7032,387.97864,8741713,0.85,0.10638297,-44.39156,303.06033,-0.023405895,0.007977366,0.0114507675,0.0,0.0,0.0
843.7032,392.98523,8741729,0.8,0.10638297,-16.895042,331.722,-0.023405895,0.007977366,0.0114507675,0.0,0.0,0.0
843.7032,401.63,8741746,0.825,0.10638297,8.744584,442.2466,-0.023405895,0.007977366,0.0114507675,0.0,0.0,0.0
843.7032,411.7566,8741763,0.7875,0.08510638,19.115486,615.3935,-0.023405895,0.007977366,0.0114507675,0.0,0.0,0.0
844.20306,424.2079,8741780,0.7875,0.08510638,32.84277,803.48865,-0.023405895,0.007977366,0.0114507675,0.0,0.0,0.0
845.026,433.6726,8741796,0.7875,0.08510638,44.646267,812.23413,-0.023405895,0.007977366,0.0114507675,0.0,0.0,0.0
846.40283,441.28662,8741813,0.77500004,0.09574468,75.241,627.76685,-0.023405895,0.007977366,0.0114507675,0.0,0.0,0.0
848.485,448.68896,8741830,0.7625,0.12765957,123.48897,432.49777,-0.023405895,0.007977366,0.0114507675,0.0,0.0,0.0
851.5107,456.11694,8741846,0.7625,0.12765957,176.2903,324.50006,-0.023405895,0.007977366,0.0114507675,0.0,0.0,0.0
854.1908,461.87415,8741863,0.7625,0.10638297,212.25908,306.37433,-0.023405895,0.007977366,0.0114507675,0.0,0.0,0.0
856.7553,465.50208,8741880,0.7875,0.09574468,205.06746,274.29648,-0.023405895,0.007977366,0.0114507675,0.0,0.0,0.0
859.8725,469.2129,8741897,0.8,0.09574468,191.7181,182.17986,-0.023405895,0.007977366,0.0114507675,0.0,0.0,0.0
862.5136,472.04663,8741913,0.8125,0.09574468,170.82713,101.01353,-0.023405895,0.007977366,0.0114507675,0.0,0.0,0.0
865.445,473.66968,8741930,0.83750004,0.08510638,170.76276,59.868073,-0.023405895,0.007977366,0.0114507675,0.0,0.0,0.0
867.7489,474.33704,8741947,0.85,0.08510638,160.81862,31.440378,-0.023405895,0.007977366,0.0114507675,0.0,0.0,0.0
870.3742,474.33704,8741963,0.85,0.08510638,146.6177,-23.436356,-0.023405895,0.007977366,0.0114507675,0.0,0.0,0.0
873.2251,472.97632,8741980,0.8125,0.09574468,155.20753,-99.53417,-0.023405895,0.007977366,0.0114507675,0.0,0.0,0.0
878.7704,467.50073,8741997,0.7875,0.10638297,214.79906,-235.02031,-0.023405895,0.007977366,0.0114507675,2.9360124E-6,0.0,0.0
889.139,453.43872,8742013,0.825,0.09574468,483.59824,-636.489,-0.023405895,0.007977366,0.0114507675,2.9360124E-6,0.0,0.0
897.39246,438.63098,8742030,0.83750004,0.08510638,681.8234,-1059.2991,-0.023405895,0.007977366,0.0114507675,2.9360124E-6,0.0,0.0
907.6661,416.8755,8742047,0.825,0.12765957,765.61084,-1454.8237,-0.023405895,0.007977366,0.0114507675,2.9360124E-6,0.0,0.0
913.28723,402.08386,8742064,0.825,0.12765957,560.0459,-1341.3682,0.013275284,-0.0096181035,-0.0068387985,0.0,0.0,0.0
919.1907,382.77856,8742080,0.83750004,0.09574468,348.43115,-1232.1927,0.013275284,-0.0096181035,-0.0068387985,0.0,0.0,0.0
922.77454,367.2566,8742097,0.83750004,0.12765957,204.55078,-1074.2557,0.013275284,-0.0096181035,-0.0068387985,0.0,0.0,0.0
926.43524,349.68457,8742114,0.83750004,0.10638297,126.54949,-991.59174,0.013275284,-0.0096181035,-0.0068387985,0.0,0.0,0.0
929.3308,331.07117,8742130,0.85,0.08510638,103.99889,-1037.5391,0.013275284,-0.0096181035,-0.0068387985,0.0,0.0,0.0
930.99585,320.31116,8742147,0.83750004,0.08510638,83.469894,-905.57275,0.013275284,-0.0096181035,-0.0068387985,0.0,0.0,0.0
931.7957,293.271,8742164,0.85,0.10638297,49.56166,-1165.2045,0.013275284,-0.0096181035,-0.0068387985,0.0,0.0,0.0
931.17474,272.9879,8742181,0.8625,0.08510638,-49.957687,-1343.1931,0.013275284,-0.0096181035,-0.0068387985,0.0,0.0,0.0
930.67487,257.41467,8742197,0.85,0.10638297,-106.27955,-1224.6833,0.013275284,-0.0096181035,-0.0068387985,0.0,0.0,0.0
929.8808,243.21887,8742214,0.85,0.12765957,-104.767296,-973.03064,0.013275284,-0.0096181035,-0.0068387985,0.0,0.0,0.0
928.82214,230.67383,8742231,0.8625,0.09574468,-84.38095,-549.71356,0.013275284,-0.0096181035,-0.0068387985,0.0,0.0,0.0
927.31915,221.49756,8742247,0.83750004,0.09574468,-86.81245,-482.08698,0.013275284,-0.0096181035,-0.0068387985,0.0,0.0,0.0
925.77216,212.18994,8742264,0.8625,0.09574468,-112.46056,-394.77386,0.013275284,-0.0096181035,-0.0068387985,0.0,0.0,0.0
923.72723,205.25415,8742281,0.85,0.11702127,-125.69753,-363.49274,0.013275284,-0.0096181035,-0.0068387985,0.0,0.0,0.0
922.15436,199.72742,8742298,0.85,0.12765957,-121.04246,-290.51523,0.013275284,-0.0096181035,-0.0068387985,0.0,0.0,0.0
921.1259,197.03137,8742314,0.8625,0.12765957,-95.72609,-170.88277,0.013275284,-0.0096181035,-0.0068387985,0.0,0.0,0.0
920.0884,195.18726,8742331,0.875,0.12765957,-62.73068,-34.65763,0.013275284,-0.0096181035,-0.0068387985,0.0,0.0,0.0
918.9287,193.12573,8742347,0.875,0.12765957,-45.04604,26.725954,0.013275284,-0.0096181035,-0.0068387985,0.0,0.0,0.0
918.04315,193.57007,8742364,0.875,0.12765957,-41.903873,51.248425,0.013275284,-0.0096181035,-0.0068387985,0.0,0.0,0.0
916.9707,193.94092,8742381,0.8625,0.11702127,-56.24928,72.69023,0.013275284,-0.0096181035,-0.0068387985,0.0,0.0,0.0
915.9315,196.229,8742398,0.83750004,0.11702127,-65.2625,124.50041,0.013275284,-0.0096181035,-0.0068387985,0.0,0.0,0.0
914.8937,199.91882,8742415,0.85,0.09574468,-63.99691,240.0361,0.013275284,-0.0096181035,-0.0068387985,0.0,0.0,0.0
914.18024,206.53687,8742431,0.83750004,0.09574468,-54.289955,380.20193,0.013275284,-0.0096181035,-0.0068387985,0.0,0.0,0.0
913.31525,215.47461,8742448,0.83750004,0.09574468,-41.28297,565.4917,0.013275284,-0.0096181035,-0.0068387985,0.0,0.0,0.0
912.6807,224.69775,8742465,0.8125,0.11702127,-39.414837,686.1192,0.013275284,-0.0096181035,-0.0068387985,0.0,0.0,0.0
912.6807,235.41577,8742481,0.8,0.12765957,-15.924611,736.44714,0.013275284,-0.0096181035,-0.0068387985,0.0,0.0,0.0
912.6807,250.12488,8742498,0.8125,0.11702127,8.304404,845.11816,0.013275284,-0.0096181035,-0.0068387985,0.0,0.0,0.0
911.1599,264.06445,8742515,0.8,0.08510638,-25.58091,933.3436,0.013275284,-0.0096181035,-0.0068387985,0.0,0.0,0.0
911.1812,277.92883,8742532,0.7875,0.12765957,-32.119682,972.3413,0.013275284,-0.0096181035,-0.0068387985,0.0,0.0,0.0
909.9847,291.10315,8742548,0.77500004,0.12765957,-60.990623,902.27344,0.013275284,-0.0096181035,-0.0068387985,0.0,0.0,0.0
907.9207,307.61304,8742565,0.8,0.08510638,-95.869385,894.3408,0.013275284,-0.0096181035,-0.0068387985,0.0,0.0,0.0
906.00635,322.8225,8742582,0.7875,0.08510638,-126.689644,944.8397,0.013275284,-0.0096181035,-0.0068387985,0.0,0.0,0.0
905.24475,335.79187,8742598,0.77500004,0.12765957,-114.8405,921.13165,-0.0053797737,0.00830552,0.010528564,0.0,0.0,0.0
904.18353,349.58972,8742615,0.7875,0.12765957,-74.64489,830.2191,-0.0053797737,0.00830552,0.010528564,0.0,0.0,0.0
904.18353,362.17102,8742632,0.7625,0.08510638,-11.380215,703.3928,-0.0053797737,0.00830552,0.010528564,0.0,0.0,0.0
903.68365,375.75,8742648,0.77500004,0.08510638,14.781262,738.3501,-0.0053797737,0.00830552,0.010528564,0.0,0.0,0.0
903.68365,385.9308,8742665,0.7625,0.09574468,12.224075,703.10565,-0.0053797737,0.00830552,0.010528564,0.0,0.0,0.0
903.18384,396.11365,8742682,0.7875,0.12765957,0.22973228,592.20624,-0.0053797737,0.00830552,0.010528564,0.0,0.0,0.0
904.1322,407.15173,8742699,0.7875,0.10638297,10.260753,550.36505,-0.0053797737,0.00830552,0.010528564,0.0,0.0,0.0
905.1697,414.71143,8742715,0.8,0.08510638,59.21369,497.12878,-0.0053797737,0.00830552,0.010528564,0.0,0.0,0.0
906.7383,422.11316,8742732,0.7875,0.08510638,105.22011,433.3355,-0.0053797737,0.00830552,0.010528564,0.0,0.0,0.0
908.8244,428.51453,8742749,0.7875,0.09574468,143.98672,353.0771,-0.0053797737,0.00830552,0.010528564,0.0,0.0,0.0
910.2935,434.9513,8742765,0.7875,0.09574468,143.02594,298.51392,-0.0053797737,0.00830552,0.010528564,0.0,0.0,0.0
912.51843,439.6969,8742782,0.7625,0.11702127,134.12814,261.00592,-0.0053797737,0.00830552,0.010528564,0.0,0.0,0.0
914.856,443.55225,8742799,0.75,0.11702127,133.52559,213.32793,-0.0053797737,0.00830552,0.010528564,0.0,0.0,0.0
916.6373,444.5348,8742816,0.75,0.12765957,129.95673,98.615875,-0.0053797737,0.00830552,0.010528564,0.0,0.0,0.0
918.7113,447.73987,8742832,0.7375,0.12765957,137.58368,67.13655,-0.0053797737,0.00830552,0.010528564,0.0,0.0,0.0
920.7915,451.43762,8742849,0.725,0.12765957,130.51164,134.51704,-0.0053797737,0.00830552,0.010528564,0.0,0.0,0.0
923.217,455.13306,8742866,0.71250004,0.12765957,128.34602,208.38791,-0.0053797737,0.00830552,0.010528564,0.0,0.0,0.0
926.32245,458.81335,8742882,0.71250004,0.09574468,158.19171,252.4778,-0.0053797737,0.00830552,0.010528564,0.0,0.0,0.0
929.5189,462.64758,8742899,0.71250004,0.08510638,206.87474,258.81665,-0.0053797737,0.00830552,0.010528564,0.0,0.0,0.0
932.5221,466.20532,8742916,0.71250004,0.08510638,210.3353,221.80916,-0.0053797737,0.00830552,0.010528564,0.0,0.0,0.0
934.67267,469.005,8742933,0.6875,0.08510638,176.86588,188.76537,-0.0053797737,0.00830552,0.010528564,-2.9360124E-6,0.0,0.0
937.7583,470.85925,8742949,0.6375,0.08510638,159.45442,131.56082,-0.0053797737,0.00830552,0.010528564,-2.9360124E-6,0.0,0.0
946.10425,473.60303,8742966,0.175,0.08510638,325.11252,113.53719,-0.0053797737,0.00830552,0.010528564,-2.9360124E-6,0.0,0.0
946.10425,473.60303,8742973,0.175,0.08510638,325.11252,113.53719,-0.0053797737,0.00830552,0.010528564,-2.9360124E-6,0.0,0.0
1064.1315,349.94666,8743238,0.8,0.12765957,0.0,0.0,0.011696182,0.006644428,0.23242283,0.0,0.0,0.0
1064.1315,349.94666,8743262,0.85,0.12765957,0.0021071972,0.0031347072,0.011696182,0.006644428,0.23242283,2.9360124E-6,0.0,0.0
1064.1315,349.94666,8743278,0.85,0.10638297,-0.11238116,-0.03586561,0.011696182,0.006644428,0.23242283,2.9360124E-6,0.0,0.0
1064.1315,349.94666,8743334,0.8625,0.10638297,-0.117112115,-0.034384597,0.011696182,0.006644428,0.23242283,0.0,0.0,0.0
1064.1315,349.94666,8743350,0.825,0.10638297,0.02629655,0.0075478987,0.011696182,0.006644428,0.23242283,0.0,0.0,0.0
1047.3771,351.80798,8743367,0.77500004,0.12765957,-1058.3896,117.60569,0.011696182,0.006644428,0.23242283,0.0,0.0,0.0
1037.6372,352.72388,8743384,0.77500004,0.12765957,-1181.6309,118.12473,0.011696182,0.006644428,0.23242283,0.0,0.0,0.0
1029.9172,354.57324,8743400,0.77500004,0.10638297,-961.69635,137.76976,0.011696182,0.006644428,0.23242283,0.0,0.0,0.0
1022.0626,358.49268,8743417,0.8,0.10638297,-777.59406,202.21107,0.011696182,0.006644428,0.23242283,0.0,0.0,0.0
1014.19275,363.49377,8743434,0.7875,0.08510638,-449.6294,284.95602,0.011696182,0.006644428,0.23242283,0.0,0.0,0.0
1006.87695,369.2921,8743451,0.77500004,0.08510638,-276.10196,386.53323,0.011696182,0.006644428,0.23242283,0.0,0.0,0.0
1000.0947,375.32007,8743467,0.77500004,0.08510638,-427.356,448.92328,0.011696182,0.006644428,0.23242283,0.0,0.0,0.0
993.8638,382.27686,8743484,0.7875,0.10638297,-383.6928,456.79803,0.011696182,0.006644428,0.23242283,0.0,0.0,0.0
987.62695,389.66785,8743501,0.75,0.12765957,-343.62482,469.65134,0.011696182,0.006644428,0.23242283,0.0,0.0,0.0
981.90735,397.70496,8743517,0.7625,0.12765957,-318.84003,482.6249,0.011696182,0.006644428,0.23242283,0.0,0.0,0.0
974.5808,411.09668,8743534,0.77500004,0.09574468,-363.85175,652.65686,0.011696182,0.006644428,0.23242283,0.0,0.0,0.0
970.7948,421.5216,8743551,0.77500004,0.09574468,-344.53714,793.6761,0.011696182,0.006644428,0.23242283,0.0,0.0,0.0
968.1649,430.79065,8743568,0.7625,0.08510638,-217.51437,751.0254,0.011696182,0.006644428,0.23242283,0.0,0.0,0.0
967.66284,437.22095,8743584,0.7625,0.11702127,-37.049465,537.7072,0.011696182,0.006644428,0.23242283,0.0,0.0,0.0
967.66284,442.77747,8743601,0.75,0.12765957,96.093636,297.27255,0.011696182,0.006644428,0.23242283,0.0,0.0,0.0
968.7831,448.32507,8743618,0.75,0.12765957,151.8272,191.90562,0.011696182,0.006644428,0.23242283,0.0,0.0,0.0
971.5228,456.0735,8743635,0.7375,0.12765957,194.35727,280.35944,0.011696182,0.006644428,0.23242283,0.0,0.0,0.0
974.63025,460.26648,8743651,0.7375,0.11702127,235.53749,313.2559,0.011696182,0.006644428,0.23242283,0.0,0.0,0.0
979.7793,465.75818,8743668,0.75,0.08510638,312.69247,331.30524,-0.006643057,0.037315488,-0.07006168,0.0,0.0,0.0
984.8075,469.98352,8743685,0.7375,0.08510638,368.2065,268.8541,-0.006643057,0.037315488,-0.07006168,0.0,0.0,0.0
991.5309,473.67114,8743701,0.7625,0.08510638,424.39816,196.32486,-0.006643057,0.037315488,-0.07006168,0.0,0.0,0.0
997.2617,475.8501,8743718,0.7875,0.08510638,436.9159,146.18347,-0.006643057,0.037315488,-0.07006168,0.0,0.0,0.0
1003.004,477.69934,8743735,0.8125,0.08510638,394.05823,71.00315,-0.006643057,0.037315488,-0.07006168,0.0,0.0,0.0
1007.8666,477.8911,8743752,0.8125,0.08510638,341.3398,0.7010729,-0.006643057,0.037315488,-0.07006168,0.0,0.0,0.0
1013.5045,476.16504,8743768,0.77500004,0.08510638,298.94305,-90.452896,-0.006643057,0.037315488,-0.07006168,0.0,0.0,0.0
1020.7516,472.51294,8743785,0.7625,0.11702127,352.11743,-229.02765,-0.006643057,0.037315488,-0.07006168,0.0,0.0,0.0
1030.1938,466.83716,8743802,0.7625,0.12765957,493.25494,-363.36295,-0.006643057,0.037315488,-0.07006168,-4.7453127E-6,4.7453127E-6,0.0
1044.8505,455.57227,8743818,0.8,0.09574468,771.192,-612.90314,-0.006643057,0.037315488,-0.07006168,-4.7453127E-6,4.7453127E-6,0.0
1056.1514,441.27844,8743835,0.7875,0.08510638,905.499,-884.2906,-0.006643057,0.037315488,-0.07006168,-4.7453127E-6,4.7453127E-6,0.0
1065.4471,426.15466,8743852,0.8,0.10638297,812.25385,-1086.0695,-0.006643057,0.037315488,-0.07006168,-4.7453127E-6,4.7453127E-6,0.0
1071.4624,415.62158,8743869,0.7875,0.12765957,558.6327,-1043.3672,-0.006643057,0.037315488,-0.07006168,-2.9360124E-6,0.0,0.0
1076.6168,404.17358,8743885,0.8,0.11702127,223.75795,-765.0454,-0.006643057,0.037315488,-0.07006168,-2.9360124E-6,0.0,0.0
1079.4092,395.0276,8743902,0.825,0.09574468,105.07456,-570.4344,-0.006643057,0.037315488,-0.07006168,-2.9360124E-6,0.0,0.0
1079.6263,387.60925,8743919,0.8125,0.09574468,-35.34959,-404.4901,-0.006643057,0.037315488,-0.07006168,-2.9360124E-6,0.0,0.0
1078.4529,381.02515,8743935,0.825,0.09574468,-156.90073,-322.5434,-0.006643057,0.037315488,-0.07006168,2.9360124E-6,0.0,0.0
1076.3353,376.08252,8743952,0.83750004,0.08510638,-242.10042,-242.40163,-0.006643057,0.037315488,-0.07006168,2.9360124E-6,0.0,0.0
1071.2723,370.14685,8743969,0.83750004,0.10638297,-321.60254,-206.80423,-0.006643057,0.037315488,-0.07006168,2.9360124E-6,0.0,0.0
1062.7622,364.24963,8743986,0.85,0.09574468,-478.57568,-278.79034,-0.006643057,0.037315488,-0.07006168,2.9360124E-6,0.0,0.0
1053.376,360.50635,8744002,0.8125,0.10638297,-661.0774,-271.44946,-0.006643057,0.037315488,-0.07006168,2.9360124E-6,0.0,0.0
1045.6562,358.70947,8744019,0.825,0.11702127,-691.43756,-176.28476,-0.006643057,0.037315488,-0.07006168,2.9360124E-6,0.0,0.0
1038.9813,357.9431,8744036,0.8125,0.11702127,-575.70514,-41.234013,-0.006643057,0.037315488,-0.07006168,2.9360124E-6,0.0,0.0
1033.3173,357.9431,8744052,0.8125,0.11702127,-381.12357,85.18922,-0.006643057,0.037315488,-0.07006168,2.9360124E-6,0.0,0.0
1028.0925,360.0464,8744069,0.825,0.10638297,-269.90973,158.04549,-0.006643057,0.037315488,-0.07006168,0.0,0.0,0.0
1025.2006,361.89136,8744086,0.83750004,0.08510638,-183.99464,189.40382,-0.006643057,0.037315488,-0.07006168,0.0,0.0,0.0
1023.1272,363.73413,8744103,0.83750004,0.08510638,-94.02245,189.74815,-0.006643057,0.037315488,-0.07006168,0.0,0.0,0.0
1021.8447,367.00757,8744119,0.825,0.08510638,-17.616108,189.03375,-0.006643057,0.037315488,-0.07006168,0.0,0.0,0.0
1021.64526,371.29846,8744136,0.7875,0.09574468,42.039715,232.50046,-0.006643057,0.037315488,-0.07006168,0.0,0.0,0.0
1022.91296,376.8722,8744153,0.77500004,0.09574468,85.94335,335.38574,-0.006643057,0.037315488,-0.07006168,0.0,0.0,0.0
1024.9019,379.86853,8744169,0.7625,0.09574468,151.73286,338.53592,-0.006643057,0.037315488,-0.07006168,0.0,0.0,0.0
1028.977,384.45093,8744186,0.7625,0.10638297,250.5612,292.14,-0.006643057,0.037315488,-0.07006168,0.0,0.0,0.0
1034.5282,389.8291,8744203,0.77500004,0.10638297,353.41666,281.3492,-0.005314447,0.0138524175,0.023950577,0.0,0.0,0.0
1042.285,395.3579,8744219,0.7625,0.10638297,483.83762,315.1866,-0.005314447,0.0138524175,0.023950577,0.0,0.0,0.0
1051.1597,399.02124,8744236,0.75,0.10638297,596.4531,309.02966,-0.005314447,0.0138524175,0.023950577,0.0,0.0,0.0
1061.1526,401.66113,8744253,0.725,0.12765957,680.5725,244.67946,-0.005314447,0.0138524175,0.023950577,0.0,0.0,0.0
1082.2478,400.32312,8744269,0.71250004,0.12765957,956.2819,32.314255,-0.005314447,0.0138524175,0.023950577,0.0,0.0,0.0
1103.5669,394.96313,8744286,0.725,0.09574468,1330.4071,-246.59686,-0.005314447,0.0138524175,0.023950577,0.0,0.0,0.0
1121.6619,389.30298,8744303,0.7,0.08510638,1522.2051,-476.69653,-0.005314447,0.0138524175,0.023950577,0.0,0.0,0.0
1138.6202,379.70312,8744319,0.725,0.08510638,1380.8611,-669.9919,-0.005314447,0.0138524175,0.023950577,0.0,0.0,0.0
1150.6531,370.58423,8744336,0.75,0.08510638,907.94775,-723.02515,-0.005314447,0.0138524175,0.023950577,0.0,0.0,0.0
1159.8844,362.7318,8744353,0.7375,0.10638297,489.79825,-662.04926,-0.005314447,0.0138524175,0.023950577,0.0,0.0,0.0
1165.059,355.99683,8744370,0.75,0.10638297,206.40034,-518.86304,-0.005314447,0.0138524175,0.023950577,0.0,0.0,0.0
1167.3978,351.19055,8744386,0.77500004,0.10638297,-22.20605,-325.62335,-0.005314447,0.0138524175,0.023950577,0.0,0.0,0.0
1168.9741,345.9419,8744403,0.7875,0.09574468,-117.38599,-199.35786,-0.005314447,0.0138524175,0.023950577,0.0,0.0,0.0
1169.597,341.1211,8744420,0.8125,0.09574468,-139.0415,-209.74771,-0.005314447,0.0138524175,0.023950577,0.0,0.0,0.0
1169.597,338.3634,8744436,0.8125,0.08510638,-100.96579,-192.96457,-0.005314447,0.0138524175,0.023950577,0.0,0.0,0.0
1168.5355,336.50916,8744453,0.8125,0.08510638,-96.82745,-120.87558,-0.005314447,0.0138524175,0.023950577,0.0,0.0,0.0
1167.4935,334.65674,8744470,0.83750004,0.08510638,-111.35561,-52.01233,-0.005314447,0.0138524175,0.023950577,0.0,0.0,0.0
1166.4458,333.9536,8744487,0.85,0.09574468,-115.83138,5.9940476,-0.005314447,0.0138524175,0.023950577,0.0,0.0,0.0
1166.598,333.9536,8744520,0.85,0.09574468,5.203858,38.09046,-0.005314447,0.0138524175,0.023950577,0.0,0.0,0.0
1166.9794,334.63147,8744537,0.83750004,0.09574468,41.87739,75.25009,-0.005314447,0.0138524175,0.023950577,0.0,0.0,0.0
1167.8956,336.7898,8744553,0.7875,0.10638297,65.89161,111.88219,-0.005314447,0.0138524175,0.023950577,0.0,0.0,0.0
1170.1132,343.46936,8744570,0.7625,0.10638297,106.41095,281.21454,-0.005314447,0.0138524175,0.023950577,0.0,0.0,0.0
1173.6981,353.21155,8744587,0.75,0.09574468,230.52638,653.06976,-0.005314447,0.0138524175,0.023950577,0.0,0.0,0.0
1177.7327,365.703,8744604,0.7625,0.08510638,285.08856,834.30853,-0.005314447,0.0138524175,0.023950577,0.0,0.0,0.0
1181.9253,377.93164,8744620,0.725,0.08510638,321.18912,966.2116,-0.005314447,0.0138524175,0.023950577,0.0,0.0,0.0
1186.0892,389.0343,8744637,0.7375,0.11702127,312.79422,905.13116,-0.005314447,0.0138524175,0.023950577,0.0,0.0,0.0
1190.787,401.08105,8744654,0.71250004,0.11702127,288.28357,770.04333,-0.005314447,0.0138524175,0.023950577,0.0,0.0,0.0
1195.4862,414.16064,8744670,0.71250004,0.09574468,290.32938,737.7619,-0.005314447,0.0138524175,0.023950577,0.0,0.0,0.0
1198.8375,427.9126,8744687,0.71250004,0.08510638,265.84735,795.4314,-0.005314447,0.0138524175,0.023950577,0.0,0.0,0.0
1199.7662,437.72253,8744704,0.725,0.10638297,148.90974,766.6318,-0.005314447,0.0138524175,0.023950577,0.0,0.0,0.0
1200.0872,444.82703,8744721,0.725,0.12765957,11.424491,568.80273,-0.005314447,0.0138524175,0.023950577,0.0,0.0,0.0
1199.8524,454.62817,8744737,0.71250004,0.12765957,-100.816826,400.52362,-0.0042515546,-0.028918058,-0.060839653,0.0,0.0,0.0
1199.3156,464.79663,8744754,0.725,0.11702127,-112.13879,446.385,-0.0042515546,-0.028918058,-0.060839653,0.0,0.0,0.0
1197.1539,474.1029,8744771,0.7375,0.09574468,-113.3389,572.4887,-0.0042515546,-0.028918058,-0.060839653,0.0,0.0,0.0
1194.0378,483.04736,8744787,0.725,0.09574468,-192.87238,605.91516,-0.0042515546,-0.028918058,-0.060839653,0.0,0.0,0.0
1189.9198,489.74487,8744804,0.7375,0.09574468,-277.64758,477.49698,-0.0042515546,-0.028918058,-0.060839653,4.152149E-6,-4.152149E-6,0.0
1186.8921,492.72852,8744821,0.7375,0.10638297,-287.7124,261.36746,-0.0042515546,-0.028918058,-0.060839653,4.152149E-6,-4.152149E-6,0.0
1179.452,498.93237,8744838,0.7375,0.10638297,-342.24847,156.30481,-0.0042515546,-0.028918058,-0.060839653,4.152149E-6,-4.152149E-6,0.0
1157.34,514.47437,8744854,0.7625,0.11702127,-873.30884,503.6669,-0.0042515546,-0.028918058,-0.060839653,4.152149E-6,-4.152149E-6,0.0
1137.0654,525.511,8744871,0.77500004,0.08510638,-1418.3406,813.32007,-0.0042515546,-0.028918058,-0.060839653,0.0,0.0,0.0
1115.2585,536.5862,8744888,0.7625,0.08510638,-1735.3871,932.01636,-0.0042515546,-0.028918058,-0.060839653,0.0,0.0,0.0
1092.238,549.54724,8744904,0.77500004,0.11702127,-1738.47,887.4752,-0.0042515546,-0.028918058,-0.060839653,0.0,0.0,0.0
1070.7406,558.69543,8744921,0.7875,0.10638297,-1489.8856,656.38354,-0.0042515546,-0.028918058,-0.060839653,0.0,0.0,0.0
1051.2212,563.8779,8744938,0.77500004,0.12765957,-1262.2924,423.30112,-0.0042515546,-0.028918058,-0.060839653,2.9360124E-6,0.0,0.0
1036.2457,566.2838,8744954,0.8,0.12765957,-1046.354,162.9411,-0.0042515546,-0.028918058,-0.060839653,2.9360124E-6,0.0,0.0
1022.9868,566.74146,8744971,0.83750004,0.12765957,-775.7081,-94.85554,-0.0042515546,-0.028918058,-0.060839653,2.9360124E-6,0.0,0.0
1012.8313,565.8529,8744988,0.8625,0.10638297,-535.5084,-210.29869,-0.0042515546,-0.028918058,-0.060839653,2.9360124E-6,0.0,0.0
1004.49304,564.37415,8745005,0.8875,0.10638297,-341.83173,-238.03044,-0.0042515546,-0.028918058,-0.060839653,0.0,0.0,0.0
999.2411,562.5604,8745021,0.875,0.12765957,-218.77808,-207.46526,-0.0042515546,-0.028918058,-0.060839653,0.0,0.0,0.0
996.34924,561.58435,8745038,0.8625,0.12765957,-98.13134,-146.01927,-0.0042515546,-0.028918058,-0.060839653,0.0,0.0,0.0
995.1754,559.67163,8745055,0.825,0.10638297,35.239193,-114.304405,-0.0042515546,-0.028918058,-0.060839653,0.0,0.0,0.0
994.65405,558.7449,8745063,0.3,0.12765957,79.84357,-111.744896,-0.0042515546,-0.028918058,-0.060839653,0.0,0.0,0.0
994.65405,558.7449,8745070,0.3,0.12765957,79.84357,-111.744896,-0.0042515546,-0.028918058,-0.060839653,0.0,0.0,0.0
858.6983,303.7445,8745442,0.8875,0.12765957,0.0,0.0,-0.019401245,0.016865551,-0.048671722,0.0,0.0,0.0
858.6983,303.7445,8745472,0.925,0.12765957,0.10100281,0.035686657,-0.019401245,0.016865551,-0.048671722,0.0,0.0,0.0
884.77106,302.85596,8745489,0.8625,0.10638297,1776.6936,-67.92741,-0.019401245,0.016865551,-0.048671722,0.0,0.0,0.0
910.0743,302.85596,8745506,0.83750004,0.12765957,2262.1375,-33.28945,-0.019401245,0.016865551,-0.048671722,0.0,0.0,0.0
937.8331,302.85596,8745522,0.875,0.10638297,2370.4045,-9.985302,-0.019401245,0.016865551,-0.048671722,0.0,0.0,0.0
960.95337,304.61414,8745539,0.83750004,0.10638297,2265.8862,44.432518,-0.019401245,0.016865551,-0.048671722,0.0,0.0,0.0
985.8795,306.63,8745556,0.83750004,0.09574468,1648.5785,127.00542,-0.019401245,0.016865551,-0.048671722,0.0,0.0,0.0
1012.7759,308.3723,8745573,0.77500004,0.11702127,1416.1305,165.62862,-0.019401245,0.016865551,-0.048671722,0.0,0.0,0.0
1029.1428,308.187,8745580,0.4,0.11702127,1561.4926,150.64877,-0.019401245,0.016865551,-0.048671722,0.0,0.0,0.0
1029.1428,308.187,8745586,0.4,0.11702127,1561.4926,150.64877,-0.019401245,0.016865551,-0.048671722,0.0,0.0,0.0
