x,y,timestamp,pressure,fingerarea,velocityx,velocityy,accelx,accely,accelz,gyrox,gyroy,gyroz
253.8952,135.81738,71836050,0.675,0.12765957,0.0,0.0,0.009833798,-0.021217167,-0.06543064,0.0,0.0,0.0
253.8952,135.81738,71836081,0.71250004,0.12765957,-0.010798346,-0.0056733214,0.009833798,-0.021217167,-0.06543064,0.0,0.0,0.0
253.8952,135.81738,71836097,0.75,0.12765957,0.010654045,0.005488838,-0.008132961,-9.737313E-4,-0.020344734,0.0,0.0,0.0
253.8952,135.81738,71836114,0.75,0.12765957,-0.0026223683,-0.0010699341,-0.008132961,-9.737313E-4,-0.020344734,0.0,0.0,0.0
253.8952,135.81738,71836131,0.77500004,0.12765957,-9.788166E-4,-3.4390163E-4,-0.008132961,-9.737313E-4,-0.020344734,0.0,0.0,0.0
253.8952,135.81738,71836147,0.7875,0.10638297,-1.5557815E-4,1.1710051E-4,-0.008132961,-9.737313E-4,-0.020344734,0.0,0.0,0.0
253.8952,135.81738,71836164,0.77500004,0.08510638,9.149987E-4,7.2971126E-4,-0.008132961,-9.737313E-4,-0.020344734,0.0,0.0,0.0
253.8952,135.81738,71836181,0.77500004,0.08510638,2.0223089E-4,-1.4667367E-4,-0.008132961,-9.737313E-4,-0.020344734,0.0,0.0,0.0
249.94287,156.49109,71836198,0.77500004,0.08510638,-125.287155,667.0745,-0.008132961,-9.737313E-4,-0.020344734,0.0,0.0,0.0
248.36273,164.37122,71836214,0.7875,0.08510638,-186.20761,967.709,-0.008132961,-9.737313E-4,-0.020344734,0.0,0.0,0.0
246.78156,171.76965,71836231,0.77500004,0.12765957,-173.86066,867.81335,-0.008132961,-9.737313E-4,-0.020344734,0.0,0.0,0.0
245.06277,179.66772,71836248,0.8,0.12765957,-122.8685,539.9235,-0.008132961,-9.737313E-4,-0.020344734,0.0,0.0,0.0
242.79303,188.84851,71836264,0.8,0.09574468,-81.95784,318.47122,-0.008132961,-9.737313E-4,-0.020344734,0.0,0.0,0.0
240.08472,199.69177,71836281,0.77500004,0.08510638,-148.51852,575.2564,-0.008132961,-9.737313E-4,-0.020344734,0.0,0.0,0.0
238.43134,212.73022,71836298,0.8125,0.08510638,-161.99918,762.0541,-0.008132961,-9.737313E-4,-0.020344734,0.0,0.0,0.0
236.38232,223.8783,71836315,0.7875,0.10638297,-133.08922,820.72815,-0.008132961,-9.737313E-4,-0.020344734,0.0,0.0,0.0
234.29904,235.07886,71836331,0.7875,0.10638297,-114.91346,765.1731,-0.008132961,-9.737313E-4,-0.020344734,0.0,0.0,0.0
232.81299,248.87708,71836348,0.825,0.08510638,-93.002625,774.79175,-0.008132961,-9.737313E-4,-0.020344734,0.0,0.0,0.0
229.40417,265.3136,71836365,0.7875,0.08510638,-138.52827,883.0732,-0.008132961,-9.737313E-4,-0.020344734,0.0,0.0,0.0
225.23846,278.27234,71836381,0.8125,0.10638297,-218.35085,948.025,-0.008132961,-9.737313E-4,-0.020344734,0.0,0.0,0.0
220.35742,292.51013,71836398,0.7875,0.12765957,-295.30804,937.10425,-0.008132961,-9.737313E-4,-0.020344734,0.0,0.0,0.0
215.90619,307.7483,71836415,0.7875,0.08510638,-349.06442,856.5605,-0.008132961,-9.737313E-4,-0.020344734,0.0,0.0,0.0
212.0658,323.73242,71836432,0.77500004,0.09574468,-303.27142,913.55383,-0.008132961,-9.737313E-4,-0.020344734,0.0,0.0,0.0
208.59467,336.26685,71836448,0.77500004,0.12765957,-224.81915,901.94946,-0.008132961,-9.737313E-4,-0.020344734,0.0,0.0,0.0
204.13626,351.18213,71836465,0.77500004,0.12765957,-202.78482,837.1675,-0.008132961,-9.737313E-4,-0.020344734,0.0,0.0,0.0
198.87506,368.0161,71836482,0.77500004,0.08510638,-258.29047,876.2918,-0.008132961,-9.737313E-4,-0.020344734,0.0,0.0,0.0
192.75854,383.0122,71836498,0.77500004,0.08510638,-350.04065,951.1032,-0.008132961,-9.737313E-4,-0.020344734,0.0,0.0,0.0
186.96341,391.63562,71836515,0.77500004,0.10638297,-402.54593,817.4061,-0.008132961,-9.737313E-4,-0.020344734,0.0,0.0,0.0
174.93216,411.2334,71836532,0.7625,0.08510638,-565.5234,811.25336,-0.008132961,-9.737313E-4,-0.020344734,0.0,0.0,0.0
168.06102,421.54163,71836549,0.77500004,0.08510638,-619.4882,759.79663,-0.008132961,-9.737313E-4,-0.020344734,0.0,0.0,0.0
162.26306,429.80762,71836565,0.7625,0.09574468,-539.122,661.64197,-0.008132961,-9.737313E-4,-0.020344734,0.0,0.0,0.0
156.03055,437.19348,71836582,0.7625,0.11702127,-404.90707,496.59363,-0.008132961,-9.737313E-4,-0.020344734,0.0,0.0,0.0
149.76372,444.62012,71836599,0.7625,0.12765957,-298.79416,303.68835,-0.008132961,-9.737313E-4,-0.020344734,0.0,0.0,0.0
142.8261,451.97754,71836615,0.77500004,0.10638297,-337.91537,286.5692,0.041493632,0.015221,-2.7561188E-4,0.0,0.0,0.0
136.1008,457.98804,71836632,0.7875,0.09574468,-411.87985,351.8152,0.041493632,0.015221,-2.7561188E-4,0.0,0.0,0.0
130.96414,462.05518,71836649,0.8,0.09574468,-375.8194,289.51456,0.041493632,0.015221,-2.7561188E-4,0.0,0.0,0.0
126.57474,464.28015,71836666,0.7875,0.09574468,-290.89215,146.77809,0.041493632,0.015221,-2.7561188E-4,0.0,0.0,0.0
122.86102,466.1526,71836682,0.8,0.09574468,-194.63712,23.613253,0.041493632,0.015221,-2.7561188E-4,0.0,0.0,0.0
119.632706,466.34058,71836699,0.8,0.09574468,-141.12979,-46.571545,0.041493632,0.015221,-2.7561188E-4,0.0,0.0,0.0
116.50975,466.34058,71836716,0.825,0.10638297,-139.2659,-73.41223,0.041493632,0.015221,-2.7561188E-4,0.0,0.0,0.0
113.38661,466.34058,71836732,0.825,0.10638297,-151.81981,-64.31317,0.041493632,0.015221,-2.7561188E-4,0.0,0.0,0.0
110.82289,464.458,71836749,0.83750004,0.12765957,-154.38162,-99.37054,0.041493632,0.015221,-2.7561188E-4,0.0,0.0,0.0
108.73222,462.59973,71836766,0.825,0.12765957,-130.53938,-138.64697,0.041493632,0.015221,-2.7561188E-4,0.0,0.0,0.0
107.28706,460.73254,71836782,0.825,0.12765957,-93.43201,-156.22768,0.041493632,0.015221,-2.7561188E-4,0.0,0.0,0.0
106.240814,457.6244,71836799,0.825,0.12765957,-46.658142,-186.08786,0.041493632,0.015221,-2.7561188E-4,0.0,0.0,0.0
106.644424,452.82837,71836816,0.825,0.10638297,10.222311,-249.24265,0.041493632,0.015221,-2.7561188E-4,0.0,0.0,0.0
108.7048,445.4242,71836833,0.8125,0.08510638,99.35773,-403.22943,0.041493632,0.015221,-2.7561188E-4,0.0,0.0,0.0
112.10637,438.50366,71836849,0.825,0.08510638,219.30605,-534.4375,0.041493632,0.015221,-2.7561188E-4,0.0,0.0,0.0
118.14058,429.5774,71836866,0.83750004,0.08510638,354.67343,-594.3823,0.041493632,0.015221,-2.7561188E-4,0.0,0.0,0.0
125.93776,421.91455,71836883,0.825,0.09574468,513.22925,-572.71344,0.041493632,0.015221,-2.7561188E-4,0.0,0.0,0.0
135.20308,414.49597,71836899,0.825,0.12765957,639.1674,-501.1195,0.041493632,0.015221,-2.7561188E-4,0.0,0.0,0.0
144.06143,408.80676,71836916,0.8,0.12765957,674.4184,-404.01825,0.041493632,0.015221,-2.7561188E-4,0.0,0.0,0.0
155.33836,405.06018,71836933,0.8,0.12765957,694.706,-272.4606,0.041493632,0.015221,-2.7561188E-4,0.0,0.0,0.0
166.33427,404.1454,71836950,0.825,0.10638297,717.8612,-77.82662,0.041493632,0.015221,-2.7561188E-4,0.0,0.0,0.0
175.65114,404.1454,71836966,0.825,0.10638297,682.15015,69.43275,0.041493632,0.015221,-2.7561188E-4,0.0,0.0,0.0
183.98453,405.27075,71836983,0.8,0.12765957,578.5775,167.17569,0.041493632,0.015221,-2.7561188E-4,0.0,0.0,0.0
191.2001,407.13684,71837000,0.8,0.10638297,438.83105,207.43996,0.041493632,0.015221,-2.7561188E-4,0.0,0.0,0.0
195.2695,410.23608,71837016,0.7875,0.11702127,274.55212,227.82309,0.041493632,0.015221,-2.7561188E-4,0.0,0.0,0.0
199.83511,416.4923,71837033,0.8,0.09574468,182.28578,330.10013,0.041493632,0.015221,-2.7561188E-4,0.0,0.0,0.0
205.01633,422.9286,71837050,0.7875,0.09574468,186.42221,460.571,0.041493632,0.015221,-2.7561188E-4,0.0,0.0,0.0
210.85275,432.80676,71837067,0.7625,0.08510638,278.0088,622.8447,0.041493632,0.015221,-2.7561188E-4,0.0,0.0,0.0
213.98618,438.04712,71837083,0.7875,0.10638297,286.34833,578.04596,0.041493632,0.015221,-2.7561188E-4,0.0,0.0,0.0
216.96268,443.338,71837100,0.77500004,0.10638297,193.67181,389.68896,0.041493632,0.015221,-2.7561188E-4,0.0,0.0,0.0
221.15295,449.12195,71837117,0.7875,0.10638297,140.75504,278.61853,0.041493632,0.015221,-2.7561188E-4,0.0,0.0,0.0
225.80402,454.68298,71837133,0.7875,0.10638297,191.8519,251.39757,0.041493632,0.015221,-2.7561188E-4,0.0,0.0,0.0
232.04047,459.31433,71837150,0.77500004,0.09574468,335.922,288.11182,-0.014805097,-0.035823196,0.015778542,0.0,0.0,0.0
238.29031,463.01746,71837167,0.7625,0.09574468,422.87408,255.21254,-0.014805097,-0.035823196,0.015778542,0.0,0.0,0.0
244.54901,464.75635,71837184,0.7625,0.10638297,438.8451,137.90436,-0.014805097,-0.035823196,0.015778542,0.0,0.0,0.0
249.01855,464.5636,71837200,0.77500004,0.11702127,373.67953,-1.4875898,-0.014805097,-0.035823196,0.015778542,0.0,0.0,0.0
253.27347,463.2849,71837217,0.77500004,0.12765957,272.7633,-120.67966,-0.014805097,-0.035823196,0.015778542,0.0,0.0,0.0
257.05008,460.23254,71837234,0.77500004,0.12765957,201.94968,-222.8415,-0.014805097,-0.035823196,0.015778542,0.0,0.0,0.0
260.92746,456.07678,71837250,0.8,0.12765957,182.3067,-311.22397,-0.014805097,-0.035823196,0.015778542,0.0,0.0,0.0
265.88232,450.00488,71837267,0.7875,0.08510638,236.28323,-399.55817,-0.014805097,-0.035823196,0.015778542,0.0,0.0,0.0
271.19363,440.92224,71837284,0.7875,0.08510638,296.20706,-528.07294,-0.014805097,-0.035823196,0.015778542,0.0,0.0,0.0
279.71265,427.32397,71837301,0.77500004,0.08510638,423.92108,-761.73126,-0.014805097,-0.035823196,0.015778542,0.0,0.0,0.0
288.09952,412.64758,71837317,0.8,0.10638297,553.42175,-990.2259,-0.014805097,-0.035823196,0.015778542,0.0,0.0,0.0
296.09668,397.61572,71837334,0.7875,0.08510638,606.72845,-1123.1703,-0.014805097,-0.035823196,0.015778542,0.0,0.0,0.0
306.41528,376.52734,71837351,0.8125,0.09574468,625.7644,-1249.6553,-0.014805097,-0.035823196,0.015778542,0.0,0.0,0.0
310.09467,368.34363,71837367,0.8125,0.11702127,485.93604,-1057.5187,-0.014805097,-0.035823196,0.015778542,0.0,0.0,0.0
318.49313,356.19922,71837384,0.8625,0.12765957,365.04297,-717.4223,-0.014805097,-0.035823196,0.015778542,0.0,0.0,0.0
326.95227,346.96924,71837401,0.8625,0.10638297,400.0746,-481.3881,-0.014805097,-0.035823196,0.015778542,0.0,0.0,0.0
337.13327,337.85876,71837418,0.825,0.08510638,520.8707,-375.7636,-0.014805097,-0.035823196,0.015778542,0.0,0.0,0.0
349.56958,328.61804,71837434,0.825,0.08510638,726.78656,-438.91373,-0.014805097,-0.035823196,0.015778542,0.0,0.0,0.0
361.2738,319.95496,71837451,0.8,0.09574468,825.23846,-508.39108,-0.014805097,-0.035823196,0.015778542,0.0,0.0,0.0
374.65756,313.0525,71837468,0.8,0.08510638,842.38196,-443.6607,-0.014805097,-0.035823196,0.015778542,0.0,0.0,0.0
387.70914,308.9696,71837484,0.8,0.09574468,844.88116,-304.21677,-0.014805097,-0.035823196,0.015778542,0.0,0.0,0.0
398.48236,306.6527,71837501,0.8125,0.09574468,756.1002,-110.99862,-0.014805097,-0.035823196,0.015778542,0.0,0.0,0.0
406.5746,306.41003,71837518,0.8125,0.10638297,588.97235,53.232544,-0.014805097,-0.035823196,0.015778542,0.0,0.0,0.0
412.04156,306.41003,71837534,0.7875,0.10638297,347.71738,138.25789,-0.014805097,-0.035823196,0.015778542,0.0,0.0,0.0
416.2955,306.41003,71837551,0.825,0.11702127,148.87729,129.29228,-0.014805097,-0.035823196,0.015778542,0.0,0.0,0.0
419.9213,307.34595,71837568,0.8125,0.11702127,88.785355,91.44936,-0.014805097,-0.035823196,0.015778542,0.0,0.0,0.0
423.0405,308.30566,71837585,0.8125,0.09574468,84.6466,78.548744,-0.014805097,-0.035823196,0.015778542,0.0,0.0,0.0
425.05817,308.187,71837601,0.8125,0.09574468,81.2319,54.19635,-0.014805097,-0.035823196,0.015778542,0.0,0.0,0.0
425.9963,308.187,71837618,0.8125,0.09574468,46.921894,25.363577,-0.014805097,-0.035823196,0.015778542,0.0,0.0,0.0
426.8389,308.187,71837635,0.825,0.09574468,9.258335,-8.70654,-0.014805097,-0.035823196,0.015778542,0.0,0.0,0.0
426.8389,308.187,71837651,0.825,0.09574468,-25.627954,-25.460081,-0.014805097,-0.035823196,0.015778542,0.0,0.0,0.0
426.44775,308.187,71837685,0.83750004,0.11702127,-44.93242,0.00520834,0.004155919,0.0033414662,-0.0033769608,0.0,0.0,0.0
425.50134,308.187,71837702,0.83750004,0.11702127,-65.84629,0.010954016,0.004155919,0.0033414662,-0.0033769608,0.0,0.0,0.0
424.07947,307.51147,71837718,0.8125,0.11702127,-87.68207,-14.336554,0.004155919,0.0033414662,-0.0033769608,0.0,0.0,0.0
421.094,307.29846,71837735,0.8,0.10638297,-155.17654,-35.153595,0.004155919,0.0033414662,-0.0033769608,0.0,0.0,0.0
415.09186,307.29846,71837752,0.7875,0.09574468,-317.44955,-21.504429,0.004155919,0.0033414662,-0.0033769608,0.0,0.0,0.0
405.79044,307.29846,71837768,0.825,0.09574468,-528.56274,-5.298248,0.004155919,0.0033414662,-0.0033769608,0.0,0.0,0.0
395.34235,308.2771,71837785,0.8125,0.10638297,-721.1695,34.17497,0.004155919,0.0033414662,-0.0033769608,0.0,0.0,0.0
382.24512,312.6056,71837802,0.8125,0.09574468,-828.0599,147.57584,0.004155919,0.0033414662,-0.0033769608,0.0,0.0,0.0
369.1652,319.07373,71837819,0.8,0.08510638,-908.4759,338.0679,0.004155919,0.0033414662,-0.0033769608,0.0,0.0,0.0
352.84518,329.6267,71837835,0.8,0.09574468,-1009.70996,616.7404,0.004155919,0.0033414662,-0.0033769608,0.0,0.0,0.0
338.947,339.2998,71837852,0.8,0.12765957,-1058.3634,795.24866,0.004155919,0.0033414662,-0.0033769608,0.0,0.0,0.0
326.76532,349.80725,71837869,0.7875,0.11702127,-928.5876,795.8778,0.004155919,0.0033414662,-0.0033769608,0.0,0.0,0.0
317.32166,360.6792,71837885,0.7875,0.08510638,-629.82477,708.92834,0.004155919,0.0033414662,-0.0033769608,0.0,0.0,0.0
309.10834,373.5255,71837902,0.8,0.08510638,-390.86246,691.6461,0.004155919,0.0033414662,-0.0033769608,0.0,0.0,0.0
302.62436,385.0514,71837919,0.8,0.09574468,-283.99042,768.7032,0.004155919,0.0033414662,-0.0033769608,0.0,0.0,0.0
300.0331,393.2849,71837936,0.7875,0.10638297,-154.93648,656.20715,0.004155919,0.0033414662,-0.0033769608,0.0,0.0,0.0
300.3117,404.3047,71837952,0.77500004,0.12765957,30.120363,566.20685,0.004155919,0.0033414662,-0.0033769608,0.0,0.0,0.0
302.35336,412.93774,71837969,0.77500004,0.08510638,230.24788,510.90265,0.004155919,0.0033414662,-0.0033769608,0.0,0.0,0.0
304.93768,421.18433,71837986,0.8,0.09574468,332.29587,480.10043,0.004155919,0.0033414662,-0.0033769608,0.0,0.0,0.0
307.5224,427.63196,71838002,0.8,0.09574468,299.65973,443.40665,0.004155919,0.0033414662,-0.0033769608,0.0,0.0,0.0
309.10464,429.22546,71838019,0.8125,0.09574468,203.61325,190.97865,0.004155919,0.0033414662,-0.0033769608,0.0,0.0,0.0
311.8733,431.09473,71838036,0.85,0.09574468,147.5994,-1.4705886,0.004155919,0.0033414662,-0.0033769608,0.0,0.0,0.0
316.47333,432.5774,71838053,0.825,0.08510638,191.91211,-64.17635,0.004155919,0.0033414662,-0.0033769608,0.0,0.0,0.0
324.18698,431.77124,71838069,0.825,0.08510638,388.7866,-67.335014,0.004155919,0.0033414662,-0.0033769608,0.0,0.0,0.0
335.8151,425.7793,71838086,0.8125,0.08510638,660.5841,-220.15369,0.004155919,0.0033414662,-0.0033769608,0.0,0.0,0.0
350.67398,416.12488,71838103,0.8125,0.10638297,946.62506,-557.8507,0.004155919,0.0033414662,-0.0033769608,0.0,0.0,0.0
362.0893,405.14478,71838119,0.8,0.12765957,1012.0305,-839.7095,0.004155919,0.0033414662,-0.0033769608,0.0,0.0,0.0
375.70264,388.47327,71838136,0.8125,0.08510638,928.2742,-1057.1779,0.004155919,0.0033414662,-0.0033769608,0.0,0.0,0.0
387.55048,371.2279,71838153,0.8,0.09574468,789.8537,-1205.5214,0.004155919,0.0033414662,-0.0033769608,0.0,0.0,0.0
398.5279,355.77563,71838170,0.8125,0.12765957,671.8297,-1204.2427,0.004155919,0.0033414662,-0.0033769608,0.0,0.0,0.0
404.90222,346.29285,71838186,0.8125,0.08510638,502.5221,-904.7323,0.004155919,0.0033414662,-0.0033769608,0.0,0.0,0.0
407.44925,339.89575,71838203,0.825,0.08510638,223.64102,-491.70413,0.004155919,0.0033414662,-0.0033769608,0.0,0.0,0.0
410.12323,332.23914,71838220,0.8,0.08510638,-13.541133,-213.48569,-0.028675266,-0.013326824,-0.0027017593,0.0,0.0,0.0
411.47995,328.13904,71838236,0.8125,0.08510638,-92.98465,-127.826866,-0.028675266,-0.013326824,-0.0027017593,0.0,0.0,0.0
411.34396,326.47815,71838253,0.8125,0.08510638,-102.96588,-65.988716,-0.028675266,-0.013326824,-0.0027017593,0.0,0.0,0.0
411.34396,325.0686,71838270,0.8125,0.08510638,-78.55091,-9.274257,-0.028675266,-0.013326824,-0.0027017593,0.0,0.0,0.0
411.34396,325.0686,71838287,0.8125,0.08510638,-66.81888,89.503624,-0.028675266,-0.013326824,-0.0027017593,0.0,0.0,0.0
411.84378,325.0686,71838303,0.825,0.08510638,-24.926472,99.19828,-0.028675266,-0.013326824,-0.0027017593,0.0,0.0,0.0
412.65625,326.51282,71838320,0.8125,0.08510638,33.18496,97.108086,-0.028675266,-0.013326824,-0.0027017593,0.0,0.0,0.0
414.1764,331.2881,71838337,0.7875,0.10638297,83.51434,222.65665,-0.028675266,-0.013326824,-0.0027017593,0.0,0.0,0.0
413.1275,340.8191,71838353,0.75,0.12765957,52.106186,453.93878,-0.028675266,-0.013326824,-0.0027017593,0.0,0.0,0.0
405.5796,361.70947,71838370,0.75,0.08510638,-178.96239,968.28754,-0.028675266,-0.013326824,-0.0027017593,0.0,0.0,0.0
398.416,376.50122,71838387,0.7375,0.08510638,-551.4564,1399.3328,-0.028675266,-0.013326824,-0.0027017593,0.0,0.0,0.0
390.18787,391.04944,71838403,0.725,0.12765957,-705.06525,1341.278,-0.028675266,-0.013326824,-0.0027017593,0.0,0.0,0.0
383.5638,407.96704,71838420,0.7375,0.08510638,-656.60175,1129.2599,-0.028675266,-0.013326824,-0.0027017593,0.0,0.0,0.0
381.23206,418.77063,71838437,0.725,0.07446808,-361.47147,782.1176,-0.028675266,-0.013326824,-0.0027017593,0.0,0.0,0.0
382.02835,427.91162,71838454,0.7375,0.08510638,-4.152485,532.7226,-0.028675266,-0.013326824,-0.0027017593,0.0,0.0,0.0
384.72705,434.13123,71838470,0.75,0.08510638,254.09,384.67307,-0.028675266,-0.013326824,-0.0027017593,0.0,0.0,0.0
388.93777,439.1167,71838487,0.7625,0.09574468,390.2258,196.5817,-0.028675266,-0.013326824,-0.0027017593,0.0,0.0,0.0
396.7782,444.19885,71838504,0.7875,0.09574468,497.63693,157.60197,-0.028675266,-0.013326824,-0.0027017593,0.0,0.0,0.0
404.34177,447.30005,71838520,0.7875,0.12765957,588.11774,137.62529,-0.028675266,-0.013326824,-0.0027017593,0.0,0.0,0.0
411.25967,448.57056,71838537,0.77500004,0.12765957,586.25256,71.18311,-0.028675266,-0.013326824,-0.0027017593,0.0,0.0,0.0
418.491,448.57056,71838554,0.7875,0.11702127,512.5763,-33.712204,-0.028675266,-0.013326824,-0.0027017593,0.0,0.0,0.0
423.9089,447.8352,71838571,0.77500004,0.10638297,379.10245,-126.52191,-0.028675266,-0.013326824,-0.0027017593,0.0,0.0,0.0
429.58194,445.1681,71838587,0.7875,0.08510638,295.99213,-184.26936,-0.028675266,-0.013326824,-0.0027017593,0.0,0.0,0.0
433.37323,441.4193,71838604,0.77500004,0.08510638,253.34825,-265.2187,-0.028675266,-0.013326824,-0.0027017593,0.0,0.0,0.0
437.00085,436.7262,71838621,0.77500004,0.08510638,190.88303,-331.5006,-0.028675266,-0.013326824,-0.0027017593,0.0,0.0,0.0
441.19058,431.214,71838637,0.77500004,0.08510638,179.26845,-396.42706,-0.028675266,-0.013326824,-0.0027017593,0.0,0.0,0.0
445.40338,424.86108,71838654,0.77500004,0.09574468,200.66714,-421.78156,-0.028675266,-0.013326824,-0.0027017593,0.0,0.0,0.0
450.0039,419.24207,71838671,0.7875,0.09574468,249.71272,-423.69745,-0.028675266,-0.013326824,-0.0027017593,0.0,0.0,0.0
454.17535,413.6808,71838688,0.7875,0.10638297,284.9376,-397.8388,-0.028675266,-0.013326824,-0.0027017593,0.0,0.0,0.0
458.0896,408.57495,71838704,0.7625,0.12765957,260.23428,-328.70102,-0.028675266,-0.013326824,-0.0027017593,0.0,0.0,0.0
461.70294,404.88538,71838721,0.77500004,0.12765957,222.9064,-251.23782,-0.028675266,-0.013326824,-0.0027017593,0.0,0.0,0.0
463.99115,401.18774,71838738,0.7875,0.10638297,155.43544,-179.13367,-0.028675266,-0.013326824,-0.0027017593,0.0,0.0,0.0
466.05084,398.1704,71838754,0.77500004,0.10638297,108.21563,-155.88156,-0.006940212,0.0053385496,-0.002161026,0.0,0.0,0.0
468.10492,395.6521,71838771,0.7875,0.10638297,73.52596,-116.38841,-0.006940212,0.0053385496,-0.002161026,0.0,0.0,0.0
470.2143,393.58142,71838788,0.77500004,0.09574468,79.84962,-107.89765,-0.006940212,0.0053385496,-0.002161026,0.0,0.0,0.0
471.81732,390.8302,71838805,0.77500004,0.09574468,97.50305,-112.882805,-0.006940212,0.0053385496,-0.002161026,0.0,0.0,0.0
473.30865,387.31763,71838821,0.7625,0.09574468,97.71499,-154.72852,-0.006940212,0.0053385496,-0.002161026,0.0,0.0,0.0
475.47314,383.443,71838838,0.7875,0.09574468,94.620445,-224.10608,-0.006940212,0.0053385496,-0.002161026,0.0,0.0,0.0
477.6291,379.79236,71838855,0.77500004,0.09574468,110.99589,-251.44847,-0.006940212,0.0053385496,-0.002161026,0.0,0.0,0.0
480.08362,376.1361,71838871,0.77500004,0.09574468,145.26703,-255.3845,-0.006940212,0.0053385496,-0.002161026,0.0,0.0,0.0
482.70563,371.47522,71838888,0.77500004,0.08510638,169.37283,-260.2162,-0.006940212,0.0053385496,-0.002161026,0.0,0.0,0.0
486.98474,366.47412,71838905,0.75,0.10638297,212.2664,-289.6635,-0.006940212,0.0053385496,-0.002161026,0.0,0.0,0.0
493.56714,359.7202,71838921,0.7375,0.10638297,318.2427,-360.49362,-0.006940212,0.0053385496,-0.002161026,0.0,0.0,0.0
499.90137,353.8683,71838938,0.75,0.10638297,438.3433,-408.60086,-0.006940212,0.0053385496,-0.002161026,0.0,0.0,0.0
505.64984,348.16528,71838955,0.75,0.09574468,487.01324,-414.4354,-0.006940212,0.0053385496,-0.002161026,0.0,0.0,0.0
509.8507,342.5647,71838972,0.7625,0.08510638,377.041,-372.3631,-0.006940212,0.0053385496,-0.002161026,0.0,0.0,0.0
513.0179,337.13965,71838988,0.77500004,0.08510638,217.44908,-324.08826,-0.006940212,0.0053385496,-0.002161026,0.0,0.0,0.0
516.2201,332.33594,71839005,0.77500004,0.08510638,123.157135,-286.42447,-0.006940212,0.0053385496,-0.002161026,0.0,0.0,0.0
519.3023,326.85706,71839022,0.7625,0.08510638,97.15518,-276.86533,-0.006940212,0.0053385496,-0.002161026,0.0,0.0,0.0
522.9813,320.31726,71839039,0.7625,0.09574468,170.75584,-350.44534,-0.006940212,0.0053385496,-0.002161026,0.0,0.0,0.0
526.06476,314.8363,71839055,0.7625,0.11702127,194.24956,-368.89758,-0.006940212,0.0053385496,-0.002161026,0.0,0.0,0.0
529.1963,309.26965,71839072,0.75,0.11702127,196.40674,-363.29654,-0.006940212,0.0053385496,-0.002161026,0.0,0.0,0.0
532.975,303.73914,71839089,0.7625,0.12765957,199.71384,-336.79886,-0.006940212,0.0053385496,-0.002161026,0.0,0.0,0.0
537.806,297.7755,71839105,0.75,0.10638297,239.2168,-324.2041,-0.006940212,0.0053385496,-0.002161026,0.0,0.0,0.0
545.5809,288.60352,71839122,0.7625,0.08510638,391.81863,-439.56363,-0.006940212,0.0053385496,-0.002161026,0.0,0.0,0.0
553.8599,278.91406,71839139,0.7625,0.08510638,549.44885,-597.34906,-0.006940212,0.0053385496,-0.002161026,0.0,0.0,0.0
560.30914,271.14978,71839155,0.7625,0.08510638,567.80804,-638.27747,-0.006940212,0.0053385496,-0.002161026,0.0,0.0,0.0
567.86945,262.26855,71839172,0.77500004,0.08510638,500.45575,-582.7332,-0.006940212,0.0053385496,-0.002161026,0.0,0.0,0.0
573.7617,255.20776,71839189,0.7625,0.12765957,378.81494,-453.45496,-0.006940212,0.0053385496,-0.002161026,0.0,0.0,0.0
580.0124,245.51294,71839206,0.77500004,0.12765957,337.80704,-458.33005,-0.006940212,0.0053385496,-0.002161026,0.0,0.0,0.0
586.2132,236.32764,71839222,0.77500004,0.11702127,349.93146,-548.852,-0.006940212,0.0053385496,-0.002161026,0.0,0.0,0.0
593.02045,226.08582,71839239,0.7875,0.08510638,370.2366,-613.69855,-0.006940212,0.0053385496,-0.002161026,0.0,0.0,0.0
599.7354,214.97803,71839256,0.77500004,0.08510638,398.98352,-673.0614,-0.006940212,0.0053385496,-0.002161026,0.0,0.0,0.0
606.43195,203.96277,71839272,0.7875,0.10638297,421.0224,-705.7361,-0.006940212,0.0053385496,-0.002161026,0.0,0.0,0.0
611.9124,194.22095,71839289,0.8,0.09574468,385.48993,-675.2885,-0.021552168,0.0042708516,-0.0337286,0.0,0.0,0.0
617.24023,180.5116,71839306,0.77500004,0.08510638,323.9774,-715.7681,-0.021552168,0.0042708516,-0.0337286,0.0,0.0,0.0
621.4348,168.12598,71839323,0.7625,0.08510638,254.80798,-782.3144,-0.021552168,0.0042708516,-0.0337286,0.0,0.0,0.0
623.0439,158.307,71839339,0.75,0.08510638,149.75539,-753.90784,-0.021552168,0.0042708516,-0.0337286,0.0,0.0,0.0
624.08826,149.02429,71839356,0.7625,0.09574468,26.275404,-616.04004,-0.021552168,0.0042708516,-0.0337286,0.0,0.0,0.0
623.42456,140.70068,71839373,0.75,0.10638297,-91.11365,-436.89877,-0.021552168,0.0042708516,-0.0337286,0.0,0.0,0.0
622.04846,133.23389,71839389,0.7375,0.09574468,-159.85298,-357.0008,-0.021552168,0.0042708516,-0.0337286,0.0,0.0,0.0
619.51715,127.360596,71839406,0.7625,0.09574468,-190.15845,-339.52264,-0.021552168,0.0042708516,-0.0337286,0.0,0.0,0.0
616.3775,123.49707,71839423,0.7625,0.08510638,-235.2683,-248.67746,-0.021552168,0.0042708516,-0.0337286,0.0,0.0,0.0
613.28894,118.94861,71839440,0.75,0.08510638,-262.1211,-176.53542,-0.021552168,0.0042708516,-0.0337286,0.0,0.0,0.0
608.51196,114.30298,71839456,0.7625,0.08510638,-281.57968,-187.70694,-0.021552168,0.0042708516,-0.0337286,0.0,0.0,0.0
604.0123,111.66846,71839473,0.77500004,0.09574468,-315.83868,-176.95439,-0.021552168,0.0042708516,-0.0337286,0.0,0.0,0.0
599.31525,110.93921,71839490,0.7625,0.09574468,-322.5826,-99.81604,-0.021552168,0.0042708516,-0.0337286,0.0,0.0,0.0
595.7654,110.93921,71839506,0.77500004,0.09574468,-285.51068,25.15976,-0.021552168,0.0042708516,-0.0337286,0.0,0.0,0.0
592.85376,112.210815,71839523,0.77500004,0.09574468,-208.28935,132.62938,-0.021552168,0.0042708516,-0.0337286,0.0,0.0,0.0
589.76373,114.96692,71839540,0.77500004,0.11702127,-133.57985,191.12976,-0.021552168,0.0042708516,-0.0337286,0.0,0.0,0.0
585.61395,122.43054,71839557,0.75,0.12765957,-175.9801,356.72144,-0.021552168,0.0042708516,-0.0337286,0.0,0.0,0.0
579.9591,136.10669,71839573,0.75,0.10638297,-271.97565,706.6917,-0.021552168,0.0042708516,-0.0337286,0.0,0.0,0.0
572.2413,156.50757,71839590,0.75,0.08510638,-432.14224,1205.2286,-0.021552168,0.0042708516,-0.0337286,0.0,0.0,0.0
564.10254,174.89294,71839607,0.7375,0.10638297,-549.5007,1490.8755,-0.021552168,0.0042708516,-0.0337286,0.0,0.0,0.0
556.6818,195.95056,71839623,0.71250004,0.09574468,-567.7388,1521.0151,-0.021552168,0.0042708516,-0.0337286,0.0,0.0,0.0
550.32965,216.57947,71839640,0.6875,0.07446808,-505.3754,1462.5006,-0.021552168,0.0042708516,-0.0337286,0.0,0.0,0.0
545.6415,232.28357,71839657,0.7,0.12765957,-339.56317,1175.2407,-0.021552168,0.0042708516,-0.0337286,0.0,0.0,0.0
541.01324,252.73267,71839674,0.71250004,0.09574468,-239.22304,1094.4633,-0.021552168,0.0042708516,-0.0337286,0.0,0.0,0.0
537.9809,271.50647,71839690,0.6875,0.09574468,-158.01111,1101.3931,-0.021552168,0.0042708516,-0.0337286,0.0,0.0,0.0
535.34894,289.20593,71839707,0.675,0.12765957,-111.740234,1051.6163,-0.021552168,0.0042708516,-0.0337286,0.0,0.0,0.0
532.7145,312.03125,71839724,0.6625,0.08510638,-97.442184,1219.623,-0.021552168,0.0042708516,-0.0337286,0.0,0.0,0.0
530.10187,330.59534,71839740,0.675,0.09574468,-103.842995,1237.8872,-0.021552168,0.0042708516,-0.0337286,0.0,0.0,0.0
526.98364,351.35156,71839757,0.675,0.10638297,-151.55952,1245.4177,-0.021552168,0.0042708516,-0.0337286,0.0,0.0,0.0
522.5446,373.562,71839774,0.6625,0.06382979,-219.48354,1310.1818,-0.021552168,0.0042708516,-0.0337286,0.0,0.0,0.0
518.5599,392.32495,71839791,0.675,0.10638297,-269.57892,1215.0117,-0.021552168,0.0042708516,-0.0337286,0.0,0.0,0.0
512.0125,416.96497,71839807,0.6625,0.08510638,-351.35236,1330.1372,-0.021552168,0.0042708516,-0.0337286,0.0,0.0,0.0
506.7157,434.09766,71839824,0.6625,0.06382979,-395.20154,1272.7703,-0.0012417324,0.01941666,0.02101612,0.0,0.0,0.0
501.91907,452.45532,71839841,0.675,0.10638297,-378.34604,1081.6774,-0.0012417324,0.01941666,0.02101612,0.0,0.0,0.0
497.75897,471.9746,71839857,0.675,0.06382979,-298.51947,1078.6031,-0.0012417324,0.01941666,0.02101612,0.0,0.0,0.0
495.174,486.47913,71839874,0.675,0.08510638,-179.97174,952.36365,-0.0012417324,0.01941666,0.02101612,0.0,0.0,0.0
492.6443,498.3617,71839891,0.675,0.12765957,-104.04695,768.26196,-0.0012417324,0.01941666,0.02101612,0.0,0.0,0.0
490.05225,510.4071,71839907,0.6875,0.10638297,-93.01702,626.94196,-0.0012417324,0.01941666,0.02101612,0.0,0.0,0.0
488.46973,519.1146,71839924,0.675,0.08510638,-79.80745,438.60754,-0.0012417324,0.01941666,0.02101612,0.0,0.0,0.0
487.60864,526.9922,71839941,0.6875,0.07446808,-56.518223,369.84494,-0.0012417324,0.01941666,0.02101612,0.0,0.0,0.0
487.07,531.6417,71839958,0.71250004,0.07446808,-3.8429632,271.85208,-0.0012417324,0.01941666,0.02101612,0.0,0.0,0.0
486.04553,535.7295,71839974,0.71250004,0.08510638,0.48385864,141.89087,-0.0012417324,0.01941666,0.02101612,0.0,0.0,0.0
485.06635,538.76,71839991,0.71250004,0.07446808,-30.312523,89.375565,-0.0012417324,0.01941666,0.02101612,0.0,0.0,0.0
483.99298,540.66797,71840008,0.71250004,0.08510638,-60.57043,48.59076,-0.0012417324,0.01941666,0.02101612,0.0,0.0,0.0
483.82037,540.97485,71840024,0.71250004,0.08510638,-55.380898,-2.4936302,-0.0012417324,0.01941666,0.02101612,0.0,0.0,0.0
482.8667,540.97485,71840041,0.71250004,0.08510638,-34.5235,-57.40987,-0.0012417324,0.01941666,0.02101612,0.0,0.0,0.0
482.32678,540.97485,71840058,0.725,0.08510638,-22.53925,-83.0683,-0.0012417324,0.01941666,0.02101612,0.0,0.0,0.0
482.32086,540.97485,71840075,0.75,0.09574468,-11.865508,-54.96291,-0.0012417324,0.01941666,0.02101612,0.0,0.0,0.0
481.27838,540.97485,71840091,0.77500004,0.09574468,-28.962566,-21.108591,-0.0012417324,0.01941666,0.02101612,0.0,0.0,0.0
480.71045,540.7777,71840108,0.7875,0.09574468,-41.024925,-2.6605148,-0.0012417324,0.01941666,0.02101612,0.0,0.0,0.0
479.82166,538.92395,71840125,0.7875,0.09574468,-55.089005,-62.2233,-0.0012417324,0.01941666,0.02101612,0.0,0.0,0.0
479.32184,537.08374,71840141,0.7875,0.09574468,-50.51998,-118.82165,-0.0012417324,0.01941666,0.02101612,0.0,0.0,0.0
479.32184,534.0388,71840158,0.7625,0.09574468,-14.622216,-190.49927,-0.0012417324,0.01941666,0.02101612,0.0,0.0,0.0
479.59326,528.8655,71840175,0.7625,0.11702127,13.128349,-286.84705,-0.0012417324,0.01941666,0.02101612,0.0,0.0,0.0
485.72223,514.82263,71840192,0.7375,0.12765957,156.91757,-543.9024,-0.0012417324,0.01941666,0.02101612,0.0,0.0,0.0
499.53687,486.06177,71840208,0.7625,0.08510638,643.22986,-1402.5565,-0.0012417324,0.01941666,0.02101612,0.0,0.0,0.0
506.4319,472.99194,71840225,0.75,0.10638297,840.59235,-1671.441,-0.0012417324,0.01941666,0.02101612,0.0,0.0,0.0
518.5178,453.53052,71840242,0.75,0.08510638,844.4788,-1449.0863,-0.0012417324,0.01941666,0.02101612,0.0,0.0,0.0
536.8551,426.9198,71840258,0.725,0.08510638,972.6525,-1435.5663,-0.0012417324,0.01941666,0.02101612,0.0,0.0,0.0
556.0672,407.47058,71840275,0.725,0.10638297,1162.621,-1311.605,-0.0012417324,0.01941666,0.02101612,0.0,0.0,0.0
572.02875,395.5442,71840292,0.725,0.08510638,1312.7104,-1139.0553,-0.0012417324,0.01941666,0.02101612,0.0,0.0,0.0
586.48566,383.42432,71840309,0.725,0.07446808,1129.9897,-760.2257,-0.0012417324,0.01941666,0.02101612,0.0,0.0,0.0
604.82574,371.85767,71840325,0.725,0.08510638,968.9013,-408.6775,-0.0012417324,0.01941666,0.02101612,0.0,0.0,0.0
623.1594,364.4458,71840342,0.7375,0.10638297,1022.63806,-352.91367,-0.0012417324,0.01941666,0.02101612,0.0,0.0,0.0
636.90295,361.4972,71840359,0.7375,0.11702127,996.9775,-233.40208,0.015006617,-4.6664476E-4,-0.0151872635,0.0,0.0,0.0
649.5302,361.4972,71840375,0.7375,0.10638297,863.12115,63.483208,0.015006617,-4.6664476E-4,-0.0151872635,0.0,0.0,0.0
658.6957,362.86597,71840392,0.7375,0.08510638,526.5743,292.76337,0.015006617,-4.6664476E-4,-0.0151872635,0.0,0.0,0.0
665.4847,364.70618,71840409,0.75,0.08510638,325.33716,319.2336,0.015006617,-4.6664476E-4,-0.0151872635,0.0,0.0,0.0
668.7882,367.1576,71840426,0.7375,0.08510638,146.92834,260.32022,0.015006617,-4.6664476E-4,-0.0151872635,0.0,0.0,0.0
672.04767,374.9619,71840442,0.75,0.08510638,18.343542,351.6542,0.015006617,-4.6664476E-4,-0.0151872635,0.0,0.0,0.0
672.33276,385.589,71840459,0.7625,0.09574468,-60.561348,584.8538,0.015006617,-4.6664476E-4,-0.0151872635,0.0,0.0,0.0
667.3037,397.83826,71840476,0.7375,0.10638297,-223.70625,839.69434,0.015006617,-4.6664476E-4,-0.0151872635,0.0,0.0,0.0
656.3754,419.10962,71840492,0.725,0.08510638,-587.138,1206.5321,0.015006617,-4.6664476E-4,-0.0151872635,0.0,0.0,0.0
646.1689,436.04077,71840509,0.71250004,0.10638297,-877.2575,1385.5327,0.015006617,-4.6664476E-4,-0.0151872635,0.0,0.0,0.0
622.6761,457.76733,71840526,0.71250004,0.09574468,-1273.3381,1429.3674,0.015006617,-4.6664476E-4,-0.0151872635,0.0,0.0,0.0
597.0788,475.72742,71840543,0.725,0.08510638,-1690.6954,1348.0441,0.015006617,-4.6664476E-4,-0.0151872635,0.0,0.0,0.0
571.7038,489.36316,71840559,0.725,0.08510638,-1901.7123,1064.8777,0.015006617,-4.6664476E-4,-0.0151872635,0.0,0.0,0.0
552.0226,496.49268,71840576,0.75,0.08510638,-1733.7937,582.21,0.015006617,-4.6664476E-4,-0.0151872635,0.0,0.0,0.0
541.40784,498.32666,71840593,0.7625,0.09574468,-1030.0999,88.548744,0.015006617,-4.6664476E-4,-0.0151872635,0.0,0.0,0.0
535.64667,498.32666,71840609,0.75,0.08510638,-275.4658,-302.8015,0.015006617,-4.6664476E-4,-0.0151872635,0.0,0.0,0.0
533.0528,498.32666,71840626,0.77500004,0.08510638,144.7838,-337.07043,0.015006617,-4.6664476E-4,-0.0151872635,0.0,0.0,0.0
531.9513,496.81018,71840643,0.77500004,0.08510638,312.3247,-261.94147,0.015006617,-4.6664476E-4,-0.0151872635,0.0,0.0,0.0
531.3049,494.94055,71840659,0.7625,0.09574468,220.56616,-187.3043,0.015006617,-4.6664476E-4,-0.0151872635,0.0,0.0,0.0
531.3049,493.12524,71840676,0.7625,0.09574468,138.19704,-166.2639,0.015006617,-4.6664476E-4,-0.0151872635,0.0,0.0,0.0
531.3049,491.2787,71840693,0.77500004,0.09574468,82.65251,-164.46849,0.015006617,-4.6664476E-4,-0.0151872635,0.0,0.0,0.0
532.3612,491.21863,71840710,0.7625,0.09574468,66.75134,-82.79079,0.015006617,-4.6664476E-4,-0.0151872635,0.0,0.0,0.0
533.9963,491.21863,71840726,0.75,0.09574468,100.21875,3.8284552,0.015006617,-4.6664476E-4,-0.0151872635,0.0,0.0,0.0
536.07556,491.21863,71840743,0.7625,0.08510638,141.99545,44.655792,0.015006617,-4.6664476E-4,-0.0151872635,0.0,0.0,0.0
540.52844,494.04517,71840760,0.7375,0.08510638,232.14697,121.105255,0.015006617,-4.6664476E-4,-0.0151872635,0.0,0.0,0.0
548.71716,498.51807,71840776,0.75,0.09574468,407.42688,235.55421,0.015006617,-4.6664476E-4,-0.0151872635,0.0,0.0,0.0
556.5212,503.63953,71840793,0.7375,0.10638297,569.4059,359.9695,0.015006617,-4.6664476E-4,-0.0151872635,0.0,0.0,0.0
564.1917,509.99365,71840810,0.725,0.10638297,607.8035,449.24512,0.015006617,-4.6664476E-4,-0.0151872635,0.0,0.0,0.0
570.5945,515.70825,71840827,0.725,0.08510638,516.29675,440.69437,0.015006617,-4.6664476E-4,-0.0151872635,0.0,0.0,0.0
576.12067,522.9033,71840843,0.71250004,0.09574468,366.12878,430.03064,0.015006617,-4.6664476E-4,-0.0151872635,0.0,0.0,0.0
581.1304,530.2655,71840860,0.725,0.09574468,260.48102,449.83685,0.015006617,-4.6664476E-4,-0.0151872635,0.0,0.0,0.0
585.93896,537.81445,71840877,0.725,0.09574468,223.64928,472.05865,0.015006617,-4.6664476E-4,-0.0151872635,0.0,0.0,0.0
589.76807,543.60864,71840893,0.725,0.08510638,209.41557,447.94766,-0.003994707,-0.04837331,0.003850937,0.0,0.0,0.0
593.40155,547.2982,71840910,0.7375,0.10638297,207.30829,315.05093,-0.003994707,-0.04837331,0.003850937,0.0,0.0,0.0
597.57294,549.9885,71840927,0.7375,0.10638297,205.36826,159.04721,-0.003994707,-0.04837331,0.003850937,0.0,0.0,0.0
601.75134,551.84534,71840944,0.7375,0.09574468,218.80203,43.25342,-0.003994707,-0.04837331,0.003850937,0.0,0.0,0.0
603.60254,551.63684,71840960,0.7375,0.08510638,184.35481,-46.889812,-0.003994707,-0.04837331,0.003850937,0.0,0.0,0.0
606.8534,550.40894,71840977,0.725,0.08510638,162.22894,-107.65645,-0.003994707,-0.04837331,0.003850937,0.0,0.0,0.0
609.24817,548.13855,71840994,0.71250004,0.08510638,123.311226,-184.62358,-0.003994707,-0.04837331,0.003850937,0.0,0.0,0.0
612.8818,543.0582,71841010,0.725,0.06382979,153.38332,-295.65128,-0.003994707,-0.04837331,0.003850937,0.0,0.0,0.0
617.6684,535.5082,71841027,0.7375,0.08510638,242.78972,-451.52603,-0.003994707,-0.04837331,0.003850937,0.0,0.0,0.0
624.76526,524.10974,71841044,0.71250004,0.12765957,372.62555,-676.5396,-0.003994707,-0.04837331,0.003850937,0.0,0.0,0.0
630.65234,512.0515,71841061,0.725,0.08510638,464.47345,-863.47437,-0.003994707,-0.04837331,0.003850937,0.0,0.0,0.0
639.01276,493.56665,71841077,0.725,0.08510638,539.9025,-1126.8064,-0.003994707,-0.04837331,0.003850937,0.0,0.0,0.0
646.08246,482.61548,71841094,0.725,0.09574468,511.36148,-1085.4161,-0.003994707,-0.04837331,0.003850937,0.0,0.0,0.0
654.3461,472.46375,71841111,0.7375,0.12765957,489.82498,-785.8102,-0.003994707,-0.04837331,0.003850937,0.0,0.0,0.0
664.82715,461.34973,71841127,0.725,0.09574468,564.53595,-586.11884,-0.003994707,-0.04837331,0.003850937,0.0,0.0,0.0
674.0757,451.15625,71841144,0.7375,0.08510638,622.88165,-488.28708,-0.003994707,-0.04837331,0.003850937,0.0,0.0,0.0
684.61273,439.03857,71841161,0.7375,0.08510638,660.8111,-588.3589,-0.003994707,-0.04837331,0.003850937,0.0,0.0,0.0
692.6556,428.04175,71841178,0.725,0.09574468,613.15765,-696.95435,-0.003994707,-0.04837331,0.003850937,0.0,0.0,0.0
702.1314,419.5404,71841194,0.75,0.10638297,546.45264,-635.519,-0.003994707,-0.04837331,0.003850937,0.0,0.0,0.0
710.5448,412.10376,71841211,0.7375,0.10638297,505.00244,-486.58063,-0.003994707,-0.04837331,0.003850937,0.0,0.0,0.0
719.29095,406.14014,71841228,0.7375,0.10638297,503.18845,-321.24042,-0.003994707,-0.04837331,0.003850937,0.0,0.0,0.0
726.7538,402.66077,71841244,0.7375,0.10638297,476.38538,-185.53421,-0.003994707,-0.04837331,0.003850937,0.0,0.0,0.0
733.4923,400.8125,71841261,0.7375,0.12765957,411.90305,-63.53987,-0.003994707,-0.04837331,0.003850937,0.0,0.0,0.0
738.8975,398.9652,71841278,0.7375,0.12765957,328.7208,22.84153,-0.003994707,-0.04837331,0.003850937,0.0,0.0,0.0
743.056,398.81433,71841295,0.75,0.12765957,234.49014,60.004204,-0.003994707,-0.04837331,0.003850937,0.0,0.0,0.0
747.7153,398.81433,71841311,0.7375,0.12765957,190.38614,65.20749,-0.003994707,-0.04837331,0.003850937,0.0,0.0,0.0
751.8769,399.7666,71841328,0.75,0.12765957,194.13524,75.13768,-0.003994707,-0.04837331,0.003850937,0.0,0.0,0.0
756.0306,401.61267,71841345,0.75,0.12765957,212.56522,131.86548,-0.003994707,-0.04837331,0.003850937,0.0,0.0,0.0
759.56885,403.45715,71841361,0.75,0.12765957,222.72264,160.67332,-0.003994707,-0.04837331,0.003850937,0.0,0.0,0.0
762.71716,405.32263,71841378,0.75,0.10638297,190.31255,159.38892,-0.003994707,-0.04837331,0.003850937,0.0,0.0,0.0
764.4206,406.8108,71841395,0.77500004,0.10638297,129.95201,141.9898,-0.003994707,-0.04837331,0.003850937,0.0,0.0,0.0
765.46375,406.8108,71841412,0.7625,0.10638297,51.068344,46.905167,-0.003994707,-0.04837331,0.003850937,0.0,0.0,0.0
766.50354,406.8108,71841428,0.75,0.10638297,9.032756,-18.332355,-0.019195765,0.009301364,-0.012919426,0.0,0.0,0.0
766.7283,406.8108,71841444,0.75,0.10638297,-12.111005,-46.691563,-0.019195765,0.009301364,-0.012919426,0.0,0.0,0.0
766.7283,406.8108,71841462,0.7625,0.12765957,-25.603088,-41.471867,-0.019195765,0.009301364,-0.012919426,0.0,0.0,0.0
766.7283,406.8108,71841468,0.75,0.12765957,-31.87057,-36.6841,-0.019195765,0.009301364,-0.012919426,0.0,0.0,0.0
765.7947,406.0398,71841495,0.725,0.12765957,-54.404366,-16.219372,-0.019195765,0.009301364,-0.012919426,0.0,0.0,0.0
764.7575,404.1963,71841512,0.7375,0.12765957,-72.887955,-72.90959,-0.019195765,0.009301364,-0.012919426,0.0,0.0,0.0
761.70917,402.35596,71841528,0.75,0.12765957,-141.58066,-133.14653,-0.019195765,0.009301364,-0.012919426,0.0,0.0,0.0
756.46747,400.49744,71841545,0.7375,0.12765957,-293.1775,-155.97961,-0.019195765,0.009301364,-0.012919426,0.0,0.0,0.0
747.9233,399.70276,71841562,0.75,0.10638297,-464.47528,-123.74892,-0.019195765,0.009301364,-0.012919426,0.0,0.0,0.0
732.6678,400.8368,71841579,0.75,0.10638297,-831.1161,13.73217,-0.019195765,0.009301364,-0.012919426,0.0,0.0,0.0
717.1221,404.839,71841595,0.7375,0.12765957,-1075.966,173.94829,-0.019195765,0.009301364,-0.012919426,0.0,0.0,0.0
704.28107,410.98303,71841612,0.7375,0.09574468,-1141.802,374.11758,-0.019195765,0.009301364,-0.012919426,0.0,0.0,0.0
691.10077,420.0581,71841629,0.7375,0.08510638,-985.85364,590.7756,-0.019195765,0.009301364,-0.012919426,0.0,0.0,0.0
677.80536,430.75757,71841645,0.7375,0.08510638,-804.5775,749.7037,-0.019195765,0.009301364,-0.012919426,0.0,0.0,0.0
668.8658,440.01233,71841662,0.75,0.10638297,-608.987,744.1886,-0.019195765,0.009301364,-0.012919426,0.0,0.0,0.0
659.63745,453.45825,71841679,0.75,0.12765957,-473.36633,769.0064,-0.019195765,0.009301364,-0.012919426,0.0,0.0,0.0
653.634,468.25574,71841696,0.725,0.09574468,-352.86575,867.7503,-0.019195765,0.009301364,-0.012919426,0.0,0.0,0.0
650.35767,485.23718,71841712,0.7375,0.09574468,-186.75243,1053.2477,-0.019195765,0.009301364,-0.012919426,0.0,0.0,0.0
648.7818,498.16504,71841729,0.7375,0.11702127,-24.56147,1024.58,-0.019195765,0.009301364,-0.012919426,0.0,0.0,0.0
647.73566,509.3224,71841746,0.725,0.11702127,77.56428,834.1068,-0.019195765,0.009301364,-0.012919426,0.0,0.0,0.0
647.76697,518.48425,71841762,0.725,0.09574468,111.92732,579.2415,-0.019195765,0.009301364,-0.012919426,0.0,0.0,0.0
649.6881,528.1183,71841779,0.7375,0.07446808,130.1269,442.96774,-0.019195765,0.009301364,-0.012919426,0.0,0.0,0.0
652.7653,538.3093,71841796,0.75,0.08510638,201.46645,460.58926,-0.019195765,0.009301364,-0.012919426,0.0,0.0,0.0
655.33075,541.6456,71841813,0.7375,0.08510638,249.91112,360.0276,-0.019195765,0.009301364,-0.012919426,0.0,0.0,0.0
659.1954,546.2456,71841829,0.7625,0.09574468,267.0348,217.96005,-0.019195765,0.009301364,-0.012919426,0.0,0.0,0.0
665.1254,549.9409,71841846,0.7625,0.09574468,324.47903,102.167534,-0.019195765,0.009301364,-0.012919426,0.0,0.0,0.0
670.62305,551.63684,71841863,0.75,0.09574468,387.75552,54.19516,-0.019195765,0.009301364,-0.012919426,0.0,0.0,0.0
677.07104,551.1765,71841879,0.7625,0.08510638,422.2349,-24.654198,-0.019195765,0.009301364,-0.012919426,0.0,0.0,0.0
684.27594,546.17163,71841896,0.7375,0.08510638,444.67145,-216.50969,-0.019195765,0.009301364,-0.012919426,0.0,0.0,0.0
692.225,535.4584,71841913,0.75,0.09574468,484.81793,-585.92773,-0.019195765,0.009301364,-0.012919426,0.0,0.0,0.0
702.8923,520.16943,71841930,0.7625,0.12765957,585.82404,-979.2387,-0.019195765,0.009301364,-0.012919426,0.0,0.0,0.0
714.86035,499.89893,71841946,0.7375,0.08510638,727.684,-1334.918,-0.019195765,0.009301364,-0.012919426,0.0,0.0,0.0
725.1572,481.59546,71841963,0.7375,0.12765957,772.7277,-1485.5592,6.4338744E-4,0.023441076,0.0056648254,0.0,0.0,0.0
731.4482,468.72192,71841979,0.7375,0.12765957,679.1435,-1361.2501,6.4338744E-4,0.023441076,0.0056648254,0.0,0.0,0.0
739.68835,448.9441,71841996,0.75,0.08510638,489.75162,-1151.4952,6.4338744E-4,0.023441076,0.0056648254,0.0,0.0,0.0
742.52466,438.40344,71842013,0.75,0.07446808,239.2511,-846.7348,6.4338744E-4,0.023441076,0.0056648254,0.0,0.0,0.0
744.6066,430.36975,71842029,0.75,0.08510638,44.265415,-518.73236,6.4338744E-4,0.023441076,0.0056648254,0.0,0.0,0.0
745.7351,425.0719,71842046,0.7375,0.09574468,-44.384617,-275.51254,6.4338744E-4,0.023441076,0.0056648254,0.0,0.0,0.0
745.7351,423.22644,71842063,0.75,0.09574468,-107.03122,7.76396,6.4338744E-4,0.023441076,0.0056648254,0.0,0.0,0.0
745.74066,421.90552,71842080,0.7375,0.09574468,-101.04799,138.20465,6.4338744E-4,0.023441076,0.0056648254,0.0,0.0,0.0
746.2349,420.13843,71842096,0.75,0.09574468,-38.87877,78.594086,6.4338744E-4,0.023441076,0.0056648254,0.0,0.0,0.0
746.73474,420.13843,71842113,0.7625,0.09574468,-4.9649787,62.315174,6.4338744E-4,0.023441076,0.0056648254,0.0,0.0,0.0
747.5271,421.54688,71842130,0.7625,0.09574468,34.492317,57.341713,6.4338744E-4,0.023441076,0.0056648254,0.0,0.0,0.0
748.69604,426.1549,71842146,0.75,0.09574468,68.69184,207.76505,6.4338744E-4,0.023441076,0.0056648254,0.0,0.0,0.0
749.23395,436.21448,71842163,0.7375,0.11702127,69.30487,523.06647,6.4338744E-4,0.023441076,0.0056648254,0.0,0.0,0.0
749.23395,447.31592,71842180,0.725,0.12765957,37.735764,784.05615,6.4338744E-4,0.023441076,0.0056648254,0.0,0.0,0.0
747.0606,461.35852,71842197,0.725,0.08510638,-66.09397,980.88995,6.4338744E-4,0.023441076,0.0056648254,0.0,0.0,0.0
746.2349,477.87878,71842213,0.725,0.07446808,-130.08244,1113.3464,6.4338744E-4,0.023441076,0.0056648254,0.0,0.0,0.0
745.5624,491.5913,71842230,0.725,0.08510638,-114.15608,1089.0278,6.4338744E-4,0.023441076,0.0056648254,0.0,0.0,0.0
745.9418,499.79602,71842247,0.71250004,0.12765957,-43.72797,823.56384,6.4338744E-4,0.023441076,0.0056648254,0.0,0.0,0.0
747.7036,509.29602,71842263,0.725,0.11702127,86.724625,489.93777,6.4338744E-4,0.023441076,0.0056648254,0.0,0.0,0.0
749.74414,517.022,71842280,0.71250004,0.09574468,158.14532,324.19028,6.4338744E-4,0.023441076,0.0056648254,0.0,0.0,0.0
752.6055,523.49536,71842297,0.71250004,0.08510638,207.68002,300.119,6.4338744E-4,0.023441076,0.0056648254,0.0,0.0,0.0
755.6941,529.67566,71842314,0.725,0.08510638,232.67369,326.5041,6.4338744E-4,0.023441076,0.0056648254,0.0,0.0,0.0
757.9525,531.8423,71842330,0.725,0.07446808,203.22171,188.25862,6.4338744E-4,0.023441076,0.0056648254,0.0,0.0,0.0
760.56793,534.6112,71842347,0.725,0.07446808,168.18555,65.88143,6.4338744E-4,0.023441076,0.0056648254,0.0,0.0,0.0
764.2162,535.6438,71842364,0.7375,0.06382979,178.24437,4.461002,6.4338744E-4,0.023441076,0.0056648254,0.0,0.0,0.0
770.37006,534.7046,71842380,0.7375,0.08510638,286.56274,-81.151054,6.4338744E-4,0.023441076,0.0056648254,0.0,0.0,0.0
778.709,529.98975,71842397,0.7375,0.08510638,465.2818,-228.61629,6.4338744E-4,0.023441076,0.0056648254,0.0,0.0,0.0
789.66394,519.2357,71842414,0.7375,0.12765957,669.6461,-542.59033,6.4338744E-4,0.023441076,0.0056648254,0.0,0.0,0.0
801.74817,500.04797,71842431,0.7375,0.09574468,808.4024,-1026.3732,6.4338744E-4,0.023441076,0.0056648254,0.0,0.0,0.0
818.5372,471.98108,71842447,0.75,0.12765957,991.8621,-1655.0767,6.4338744E-4,0.023441076,0.0056648254,0.0,0.0,0.0
835.726,440.5381,71842464,0.725,0.08510638,1146.5133,-2207.628,6.4338744E-4,0.023441076,0.0056648254,0.0,0.0,0.0
850.52057,413.74426,71842481,0.725,0.12765957,1139.7443,-2261.4927,6.4338744E-4,0.023441076,0.0056648254,0.0,0.0,0.0
869.62665,376.3794,71842497,0.71250004,0.08510638,1132.6376,-2237.9124,-0.015485287,-0.029247135,-0.011468887,0.0,0.0,0.0
881.9062,352.62573,71842514,0.725,0.10638297,948.1129,-1915.6141,-0.015485287,-0.029247135,-0.011468887,0.0,0.0,0.0
897.1555,317.78174,71842531,0.7,0.08510638,818.08307,-1820.1018,-0.015485287,-0.029247135,-0.011468887,0.0,0.0,0.0
906.87524,291.74854,71842548,0.71250004,0.10638297,678.0868,-1715.7344,-0.015485287,-0.029247135,-0.011468887,0.0,0.0,0.0
915.32074,263.26123,71842564,0.7375,0.09574468,467.3205,-1604.2031,-0.015485287,-0.029247135,-0.011468887,0.0,0.0,0.0
921.2112,242.32947,71842581,0.71250004,0.09574468,303.74533,-1438.2598,-0.015485287,-0.029247135,-0.011468887,0.0,0.0,0.0
925.3403,224.01367,71842598,0.71250004,0.08510638,165.96599,-1145.7288,-0.015485287,-0.029247135,-0.011468887,0.0,0.0,0.0
926.17633,211.46582,71842614,0.725,0.09574468,5.7875648,-724.5883,-0.015485287,-0.029247135,-0.011468887,0.0,0.0,0.0
926.17633,205.55725,71842631,0.7375,0.11702127,-88.683266,-335.4199,-0.015485287,-0.029247135,-0.011468887,0.0,0.0,0.0
925.0709,203.15564,71842648,0.7375,0.11702127,-186.29573,47.51548,-0.015485287,-0.029247135,-0.011468887,0.0,0.0,0.0
923.99835,201.24902,71842664,0.7375,0.11702127,-196.33788,217.85214,-0.015485287,-0.029247135,-0.011468887,0.0,0.0,0.0
922.9738,200.6781,71842681,0.7375,0.09574468,-129.01314,201.31416,-0.015485287,-0.029247135,-0.011468887,0.0,0.0,0.0
920.99866,203.98108,71842698,0.75,0.09574468,-106.22632,187.69418,-0.015485287,-0.029247135,-0.011468887,0.0,0.0,0.0
916.3712,219.0791,71842715,0.725,0.09574468,-195.67915,599.5995,-0.015485287,-0.029247135,-0.011468887,0.0,0.0,0.0
909.92944,241.55713,71842731,0.71250004,0.11702127,-356.7752,1269.9473,-0.015485287,-0.029247135,-0.011468887,0.0,0.0,0.0
901.9764,265.91687,71842748,0.71250004,0.06382979,-530.59106,1873.941,-0.015485287,-0.029247135,-0.011468887,0.0,0.0,0.0
893.30756,289.65137,71842765,0.725,0.10638297,-624.197,1996.1456,-0.015485287,-0.029247135,-0.011468887,0.0,0.0,0.0
883.32764,315.8418,71842781,0.6875,0.08510638,-665.3218,1830.5353,-0.015485287,-0.029247135,-0.011468887,0.0,0.0,0.0
873.76697,340.87292,71842798,0.7,0.10638297,-675.361,1667.77,-0.015485287,-0.029247135,-0.011468887,0.0,0.0,0.0
865.15485,371.65833,71842815,0.6875,0.08510638,-615.14667,1712.7086,-0.015485287,-0.029247135,-0.011468887,0.0,0.0,0.0
860.32935,390.17468,71842832,0.6875,0.09574468,-467.94138,1598.7761,-0.015485287,-0.029247135,-0.011468887,0.0,0.0,0.0
855.06683,423.1394,71842848,0.675,0.07446808,-268.37177,1584.5549,-0.015485287,-0.029247135,-0.011468887,0.0,0.0,0.0
854.4877,443.45398,71842865,0.675,0.12765957,-59.98969,1505.8647,-0.015485287,-0.029247135,-0.011468887,0.0,0.0,0.0
852.97736,467.44153,71842882,0.6625,0.08510638,51.6002,1396.4314,-0.015485287,-0.029247135,-0.011468887,0.0,0.0,0.0
852.70026,486.9944,71842898,0.675,0.08510638,72.54071,1294.5673,-0.015485287,-0.029247135,-0.011468887,0.0,0.0,0.0
853.00415,501.7589,71842915,0.6625,0.12765957,74.6113,922.7142,-0.015485287,-0.029247135,-0.011468887,0.0,0.0,0.0
854.8814,515.2893,71842932,0.6625,0.10638297,118.49437,668.6343,-0.015485287,-0.029247135,-0.011468887,0.0,0.0,0.0
859.5016,527.7742,71842949,0.6625,0.08510638,230.78442,525.65906,-0.015485287,-0.029247135,-0.011468887,0.0,0.0,0.0
864.2484,535.0067,71842965,0.6875,0.08510638,359.92963,397.44403,-0.015485287,-0.029247135,-0.011468887,0.0,0.0,0.0
875.5068,544.9602,71842982,0.71250004,0.08510638,541.9692,394.56412,-0.015485287,-0.029247135,-0.011468887,0.0,0.0,0.0
893.7936,552.55884,71842999,0.71250004,0.10638297,959.0388,370.30045,-0.015485287,-0.029247135,-0.011468887,0.0,0.0,0.0
909.3477,553.41394,71843015,0.6875,0.09574468,1249.4897,201.99252,-0.015485287,-0.029247135,-0.011468887,0.0,0.0,0.0
934.876,546.59216,71843032,0.4625,0.08510638,1559.8247,-220.18341,-0.028388232,0.024602294,0.006825447,0.0,0.0,0.0
936.1731,546.3059,71843039,0.2125,0.06382979,1531.6146,-355.39236,-0.028388232,0.024602294,0.006825447,0.0,0.0,0.0
936.1731,546.3059,71843046,0.2125,0.06382979,1531.6146,-355.39236,-0.028388232,0.024602294,0.006825447,0.0,0.0,0.0
800.21735,354.38916,71843240,0.7375,0.12765957,0.0,0.0,-0.028388232,0.024602294,0.006825447,0.0,0.0,0.0
800.21735,354.38916,71843280,0.75,0.12765957,0.0,0.0,-0.028388232,0.024602294,0.006825447,0.0,0.0,0.0
820.1163,352.2279,71843299,0.7625,0.12765957,1695.5553,-112.48842,-0.028388232,0.024602294,0.006825447,0.0,0.0,0.0
850.7023,352.18237,71843316,0.71250004,0.12765957,2256.9443,40.066273,-0.028388232,0.024602294,0.006825447,0.0,0.0,0.0
884.4873,354.0282,71843333,0.71250004,0.10638297,2440.877,172.27823,-0.028388232,0.024602294,0.006825447,0.0,0.0,0.0
913.85394,354.38916,71843350,0.6875,0.12765957,2257.1743,147.10663,-0.028388232,0.024602294,0.006825447,0.0,0.0,0.0
943.18146,353.72192,71843366,0.7,0.10638297,2086.7385,72.89451,-0.028388232,0.024602294,0.006825447,0.0,0.0,0.0
962.9617,353.5006,71843383,0.6875,0.12765957,1424.315,-39.881775,-0.028388232,0.024602294,0.006825447,0.0,0.0,0.0
979.9083,352.61218,71843400,0.675,0.12765957,969.03735,-94.20882,-0.028388232,0.024602294,0.006825447,0.0,0.0,0.0
983.6576,352.61218,71843409,0.45000002,0.10638297,711.04846,-93.01965,-0.028388232,0.024602294,0.006825447,0.0,0.0,0.0
983.6576,352.61218,71843416,0.45000002,0.10638297,711.04846,-93.01965,-0.028388232,0.024602294,0.006825447,0.0,0.0,0.0
1035.6407,461.00952,71844229,0.625,0.12765957,0.0,0.0,0.010631528,0.038145453,0.03636837,0.0,0.0,0.0
1035.6407,461.00952,71844252,0.6375,0.12765957,0.030001385,0.0067520253,0.010631528,0.038145453,0.03636837,0.0,0.0,0.0
1035.6407,461.00952,71844266,0.65000004,0.12765957,-0.056845564,-0.023859018,0.010631528,0.038145453,0.03636837,0.0,0.0,0.0
1035.6407,461.00952,71844302,0.65000004,0.11702127,0.043007474,0.017821295,0.010631528,0.038145453,0.03636837,0.0,0.0,0.0
1035.6407,461.00952,71844314,0.65000004,0.10638297,0.02715228,0.013726256,0.010631528,0.038145453,0.03636837,0.0,0.0,0.0
1012.5408,449.73547,71844336,0.6625,0.08510638,-955.3399,-474.39172,0.010631528,0.038145453,0.03636837,0.0,0.0,0.0
996.6874,446.79346,71844352,0.6875,0.08510638,-1294.1249,-476.26465,0.010631528,0.038145453,0.03636837,0.0,0.0,0.0
983.3019,446.79346,71844369,0.6875,0.11702127,-999.8083,19.447474,0.010631528,0.038145453,0.03636837,0.0,0.0,0.0
973.5947,448.08997,71844386,0.675,0.10638297,-755.725,168.86115,0.010631528,0.038145453,0.03636837,0.0,0.0,0.0
965.0254,451.2975,71844402,0.7,0.10638297,-454.97617,336.05756,0.010631528,0.038145453,0.03636837,0.0,0.0,0.0
957.0387,456.4104,71844419,0.6875,0.10638297,-330.79288,380.9938,0.010631528,0.038145453,0.03636837,0.0,0.0,0.0
950.411,462.8833,71844436,0.6875,0.08510638,-299.9099,463.82904,0.010631528,0.038145453,0.03636837,0.0,0.0,0.0
943.8198,476.3529,71844453,0.675,0.06382979,-317.10876,679.5976,0.010631528,0.038145453,0.03636837,0.0,0.0,0.0
939.45654,487.7948,71844469,0.675,0.08510638,-273.98444,882.0927,0.010631528,0.038145453,0.03636837,0.0,0.0,0.0
937.70245,497.22595,71844486,0.675,0.09574468,-150.0024,883.86554,0.010631528,0.038145453,0.03636837,0.0,0.0,0.0
939.1713,508.9839,71844503,0.675,0.10638297,50.73921,762.1921,0.010631528,0.038145453,0.03636837,0.0,0.0,0.0
941.2825,519.3541,71844519,0.6875,0.08510638,236.1164,632.44806,0.010631528,0.038145453,0.03636837,0.0,0.0,0.0
945.0567,529.5659,71844536,0.675,0.06382979,344.53867,577.14264,0.010631528,0.038145453,0.03636837,0.0,0.0,0.0
949.68005,537.8751,71844553,0.675,0.06382979,379.8538,574.85333,0.010631528,0.038145453,0.03636837,0.0,0.0,0.0
954.1543,542.74036,71844569,0.675,0.08510638,364.63364,404.32175,0.010631528,0.038145453,0.03636837,0.0,0.0,0.0
960.2318,548.3314,71844586,0.6875,0.10638297,383.71808,244.99239,0.010631528,0.038145453,0.03636837,0.0,0.0,0.0
967.1633,552.5255,71844603,0.675,0.11702127,419.46155,166.15538,0.010631528,0.038145453,0.03636837,0.0,0.0,0.0
975.68176,555.6887,71844620,0.675,0.10638297,503.30984,138.41063,0.02450522,0.04651639,0.04509449,0.0,0.0,0.0
985.8036,556.9679,71844636,0.7,0.09574468,621.0649,85.97812,0.02450522,0.04651639,0.04509449,0.0,0.0,0.0
994.8165,556.37646,71844653,0.7,0.09574468,656.40564,-44.28358,0.02450522,0.04651639,0.04509449,0.0,0.0,0.0
1004.48926,551.6659,71844670,0.7,0.08510638,632.02856,-226.10912,0.02450522,0.04651639,0.04509449,0.0,0.0,0.0
1014.2117,540.68896,71844686,0.6875,0.07446808,606.9071,-550.51746,0.02450522,0.04651639,0.04509449,0.0,0.0,0.0
1021.5928,529.5177,71844703,0.6875,0.11702127,538.5354,-868.91736,0.02450522,0.04651639,0.04509449,0.0,0.0,0.0
1027.8677,515.584,71844720,0.675,0.11702127,403.69083,-1014.3425,0.02450522,0.04651639,0.04509449,0.0,0.0,0.0
1029.7169,502.735,71844737,0.675,0.09574468,205.16525,-1023.2401,0.02450522,0.04651639,0.04509449,0.0,0.0,0.0
1028.2972,486.70923,71844753,0.675,0.09574468,-67.537224,-994.7836,0.02450522,0.04651639,0.04509449,0.0,0.0,0.0
1023.06726,476.2328,71844770,0.675,0.10638297,-350.56442,-884.01294,0.02450522,0.04651639,0.04509449,0.0,0.0,0.0
1015.96704,469.45618,71844787,0.6875,0.10638297,-568.1518,-617.2533,0.02450522,0.04651639,0.04509449,0.0,0.0,0.0
1005.2997,463.74133,71844803,0.6875,0.10638297,-765.7579,-261.203,0.02450522,0.04651639,0.04509449,0.0,0.0,0.0
997.46814,461.41272,71844820,0.6875,0.12765957,-750.41187,-35.88983,0.02450522,0.04651639,0.04509449,0.0,0.0,0.0
991.38855,461.00952,71844837,0.675,0.12765957,-583.5771,93.0766,0.02450522,0.04651639,0.04509449,0.0,0.0,0.0
987.5896,462.5299,71844854,0.6875,0.10638297,-321.7759,190.17941,0.02450522,0.04651639,0.04509449,0.0,0.0,0.0
984.9658,465.7921,71844870,0.6875,0.08510638,-71.19666,294.03308,0.02450522,0.04651639,0.04509449,0.0,0.0,0.0
984.65735,474.4944,71844887,0.6875,0.07446808,46.12836,454.48834,0.02450522,0.04651639,0.04509449,0.0,0.0,0.0
986.09656,486.40088,71844904,0.6625,0.07446808,138.78069,729.22473,0.02450522,0.04651639,0.04509449,0.0,0.0,0.0
989.7058,493.95105,71844920,0.6875,0.10638297,253.0247,810.3923,0.02450522,0.04651639,0.04509449,0.0,0.0,0.0
997.1102,502.3319,71844937,0.675,0.10638297,434.3233,694.6141,0.02450522,0.04651639,0.04509449,0.0,0.0,0.0
1005.9136,510.0642,71844954,0.675,0.10638297,616.293,514.534,0.02450522,0.04651639,0.04509449,0.0,0.0,0.0
1015.83936,517.92676,71844971,0.6875,0.09574468,736.51355,398.72238,0.02450522,0.04651639,0.04509449,0.0,0.0,0.0
1026.0852,523.1787,71844987,0.6875,0.08510638,763.45026,348.91052,0.02450522,0.04651639,0.04509449,0.0,0.0,0.0
1037.7616,527.13586,71845004,0.6875,0.08510638,766.40704,284.55124,0.02450522,0.04651639,0.04509449,0.0,0.0,0.0
1048.3848,528.53577,71845021,0.6875,0.08510638,710.4304,84.92427,0.02450522,0.04651639,0.04509449,0.0,0.0,0.0
1059.173,528.0845,71845037,0.6875,0.08510638,683.49225,-69.00329,0.02450522,0.04651639,0.04509449,0.0,0.0,0.0
1068.6833,524.86194,71845054,0.6875,0.08510638,617.96783,-229.91779,0.02450522,0.04651639,0.04509449,0.0,0.0,0.0
1078.0333,519.70605,71845071,0.675,0.12765957,532.58923,-381.78656,0.02450522,0.04651639,0.04509449,0.0,0.0,0.0
1088.4128,512.6105,71845088,0.6875,0.12765957,539.9801,-496.67767,0.02450522,0.04651639,0.04509449,0.0,0.0,0.0
1098.4601,502.66272,71845104,0.6875,0.08510638,567.26984,-624.15,0.02450522,0.04651639,0.04509449,0.0,0.0,0.0
1107.0521,490.43176,71845121,0.675,0.06382979,582.3935,-790.03143,0.02450522,0.04651639,0.04509449,0.0,0.0,0.0
1113.7766,478.43555,71845138,0.6875,0.09574468,489.28192,-883.94006,0.02450522,0.04651639,0.04509449,0.0,0.0,0.0
1120.1726,464.20947,71845154,0.675,0.12765957,351.96265,-917.50836,-0.0123958215,-0.010786891,0.020075798,0.0,0.0,0.0
1123.3297,452.74133,71845171,0.6875,0.08510638,214.79897,-875.064,-0.0123958215,-0.010786891,0.020075798,0.0,0.0,0.0
1122.4564,442.46338,71845188,0.6875,0.06382979,5.806804,-725.9801,-0.0123958215,-0.010786891,0.020075798,0.0,0.0,0.0
1120.0656,434.83398,71845205,0.675,0.08510638,-198.68755,-542.6174,-0.0123958215,-0.010786891,0.020075798,0.0,0.0,0.0
1116.4606,429.5702,71845221,0.6875,0.08510638,-365.45255,-306.68463,-0.0123958215,-0.010786891,0.020075798,0.0,0.0,0.0
1110.0199,424.52368,71845238,0.7,0.08510638,-473.9751,-169.69476,-0.0123958215,-0.010786891,0.020075798,0.0,0.0,0.0
1103.5828,422.25806,71845255,0.7,0.08510638,-500.27774,-100.28961,-0.0123958215,-0.010786891,0.020075798,0.0,0.0,0.0
1099.074,423.42358,71845271,0.7,0.08510638,-462.82547,61.485966,-0.0123958215,-0.010786891,0.020075798,0.0,0.0,0.0
1095.225,427.95068,71845288,0.6875,0.09574468,-306.58868,267.31213,-0.0123958215,-0.010786891,0.020075798,0.0,0.0,0.0
1093.6218,439.56873,71845305,0.7,0.10638297,-142.72423,620.84186,-0.0123958215,-0.010786891,0.020075798,0.0,0.0,0.0
1096.9824,457.66785,71845321,0.6875,0.12765957,101.59617,1076.4108,-0.0123958215,-0.010786891,0.020075798,0.0,0.0,0.0
1106.2479,479.94568,71845338,0.675,0.08510638,472.92422,1520.4901,-0.0123958215,-0.010786891,0.020075798,0.0,0.0,0.0
1115.4735,496.20752,71845355,0.675,0.12765957,769.1768,1581.7013,-0.0123958215,-0.010786891,0.020075798,0.0,0.0,0.0
1126.7021,514.31995,71845372,0.675,0.09574468,908.08075,1340.94,-0.0123958215,-0.010786891,0.020075798,0.0,0.0,0.0
1140.5233,537.27295,71845388,0.6625,0.10638297,959.83093,1256.1287,-0.0123958215,-0.010786891,0.020075798,0.0,0.0,0.0
1154.1017,558.448,71845405,0.6625,0.09574468,940.67487,1257.2502,-0.0123958215,-0.010786891,0.020075798,0.0,0.0,0.0
1165.2242,579.40405,71845422,0.675,0.06382979,847.66925,1336.7618,-0.0123958215,-0.010786891,0.020075798,0.0,0.0,0.0
1170.5916,593.36914,71845438,0.6875,0.08510638,567.4948,1162.9261,-0.0123958215,-0.010786891,0.020075798,0.0,0.0,0.0
1172.5961,604.8439,71845455,0.6625,0.09574468,140.65941,711.77747,-0.0123958215,-0.010786891,0.020075798,0.0,0.0,0.0
1170.2979,616.67163,71845472,0.675,0.10638297,-207.14963,484.9731,-0.0123958215,-0.010786891,0.020075798,0.0,0.0,0.0
1159.7075,633.32983,71845489,0.65000004,0.06382979,-598.6597,546.5571,-0.0123958215,-0.010786891,0.020075798,0.0,0.0,0.0
1133.083,659.44226,71845505,0.65000004,0.10638297,-1323.9073,1132.7144,-0.0123958215,-0.010786891,0.020075798,0.0,0.0,0.0
1096.4521,679.40466,71845522,0.6375,0.10638297,-2263.1821,1591.4563,-0.0123958215,-0.010786891,0.020075798,0.0,0.0,0.0
1056.503,688.431,71845539,0.65000004,0.08510638,-3007.4421,1337.4045,-0.0123958215,-0.010786891,0.020075798,0.0,0.0,0.0
1027.3713,690.2434,71845555,0.65000004,0.08510638,-2846.6243,414.844,-0.0123958215,-0.010786891,0.020075798,0.0,0.0,0.0
996.4752,689.1051,71845572,0.625,0.08510638,-2237.575,-347.6881,-0.0123958215,-0.010786891,0.020075798,0.0,0.0,0.0
995.15393,689.35486,71845579,0.4125,0.11702127,-1817.4276,-574.18536,-0.0123958215,-0.010786891,0.020075798,0.0,0.0,0.0
995.15393,689.35486,71845586,0.4125,0.11702127,-1817.4276,-574.18536,-0.0123958215,-0.010786891,0.020075798,0.0,0.0,0.0
