x,y,timestamp,pressure,fingerarea,velocityx,velocityy,accelx,accely,accelz,gyrox,gyroy,gyroz
260.3931,217.5597,71849285,0.725,0.09574468,0.0,0.0,0.011035994,-4.220605E-4,-3.8814545E-4,0.0,0.0,0.0
260.3931,217.5597,71849315,0.7375,0.09574468,0.014272243,0.01244367,0.011035994,-4.220605E-4,-3.8814545E-4,0.0,0.0,0.0
260.3931,217.5597,71849332,0.77500004,0.09574468,5.394741E-4,-0.0013373866,0.011035994,-4.220605E-4,-3.8814545E-4,0.0,0.0,0.0
260.3931,217.5597,71849349,0.7875,0.09574468,0.005309588,0.00492033,0.011035994,-4.220605E-4,-3.8814545E-4,0.0,0.0,0.0
260.3931,217.5597,71849365,0.7875,0.11702127,0.0040114475,0.0032491335,0.011035994,-4.220605E-4,-3.8814545E-4,0.0,0.0,0.0
260.3931,217.5597,71849382,0.7625,0.12765957,0.002696662,0.0018599433,0.011035994,-4.220605E-4,-3.8814545E-4,0.0,0.0,0.0
266.57486,245.19434,71849399,0.7875,0.10638297,191.74945,848.31836,0.011035994,-4.220605E-4,-3.8814545E-4,0.0,0.0,0.0
268.01846,264.48364,71849415,0.77500004,0.08510638,255.08597,1471.4242,0.011035994,-4.220605E-4,-3.8814545E-4,0.0,0.0,0.0
268.54553,283.6134,71849432,0.7875,0.12765957,188.05855,1733.789,-0.023171201,-0.016337663,-0.016310692,0.0,0.0,0.0
268.48038,310.30273,71849449,0.77500004,0.08510638,51.133095,1779.198,-0.023171201,-0.016337663,-0.016310692,0.0,0.0,0.0
267.3908,338.24146,71849466,0.77500004,0.12765957,-150.47299,1631.0618,-0.023171201,-0.016337663,-0.016310692,0.0,0.0,0.0
266.36032,369.56982,71849482,0.8,0.09574468,-110.8842,2007.0022,-0.023171201,-0.016337663,-0.016310692,0.0,0.0,0.0
264.25378,399.24548,71849499,0.77500004,0.12765957,-138.28531,2058.3335,-0.023171201,-0.016337663,-0.016310692,0.0,0.0,0.0
262.53174,430.64038,71849516,0.75,0.09574468,-151.65944,2002.6891,-0.023171201,-0.016337663,-0.016310692,0.0,0.0,0.0
259.20035,454.729,71849532,0.7625,0.12765957,-173.32556,1715.7671,-0.023171201,-0.016337663,-0.016310692,0.0,0.0,0.0
255.58994,484.1527,71849549,0.77500004,0.09574468,-232.42746,1583.2535,-0.023171201,-0.016337663,-0.016310692,0.0,0.0,0.0
251.45618,503.39038,71849566,0.75,0.12765957,-260.6101,1318.2855,-0.023171201,-0.016337663,-0.016310692,0.0,0.0,0.0
246.19513,523.9247,71849582,0.7625,0.08510638,-319.36075,1135.4608,-0.023171201,-0.016337663,-0.016310692,0.0,0.0,0.0
240.37976,539.541,71849599,0.7625,0.08510638,-368.96945,934.49506,-0.023171201,-0.016337663,-0.016310692,0.0,0.0,0.0
235.34787,549.0663,71849616,0.7625,0.10638297,-377.89157,618.8327,-0.023171201,-0.016337663,-0.016310692,0.0,0.0,0.0
231.01254,553.4745,71849633,0.7625,0.10638297,-332.14014,237.87657,-0.023171201,-0.016337663,-0.016310692,0.0,0.0,0.0
221.90564,562.2988,71849649,0.7625,0.12765957,-389.30496,122.78166,-0.023171201,-0.016337663,-0.016310692,0.0,0.0,0.0
214.80048,567.9657,71849666,0.7625,0.11702127,-488.8567,163.82637,-0.023171201,-0.016337663,-0.016310692,0.0,0.0,0.0
207.02783,573.0283,71849683,0.7625,0.08510638,-555.0599,283.30435,-0.023171201,-0.016337663,-0.016310692,0.0,0.0,0.0
200.56876,575.28406,71849699,0.7875,0.10638297,-508.03937,225.7683,-0.023171201,-0.016337663,-0.016310692,0.0,0.0,0.0
195.70819,575.62646,71849716,0.825,0.10638297,-330.93988,-6.789483,-0.023171201,-0.016337663,-0.016310692,0.0,0.0,0.0
191.35675,574.0454,71849733,0.83750004,0.12765957,-221.5042,-165.4778,-0.023171201,-0.016337663,-0.016310692,0.0,0.0,0.0
188.57281,571.4618,71849750,0.825,0.12765957,-140.22119,-258.28418,-0.023171201,-0.016337663,-0.016310692,0.0,0.0,0.0
186.5132,567.80054,71849766,0.825,0.12765957,-68.159004,-305.48462,-0.023171201,-0.016337663,-0.016310692,0.0,0.0,0.0
185.91734,559.5585,71849783,0.8125,0.08510638,-16.90529,-441.9102,-0.023171201,-0.016337663,-0.016310692,0.0,0.0,0.0
188.73242,544.01355,71849800,0.77500004,0.08510638,112.974785,-748.9458,-0.023171201,-0.016337663,-0.016310692,0.0,0.0,0.0
201.28488,506.6195,71849816,0.7875,0.09574468,504.9376,-1678.9629,-0.023171201,-0.016337663,-0.016310692,0.0,0.0,0.0
203.89258,496.83057,71849833,0.8125,0.09574468,634.1309,-1866.5283,-0.023171201,-0.016337663,-0.016310692,0.0,0.0,0.0
208.39667,485.62317,71849850,0.8,0.08510638,553.1853,-1420.3645,-0.023171201,-0.016337663,-0.016310692,0.0,0.0,0.0
213.16629,478.17798,71849867,0.8125,0.10638297,348.07648,-635.7681,-0.023171201,-0.016337663,-0.016310692,0.0,0.0,0.0
219.89743,472.5641,71849883,0.8125,0.09574468,197.49022,162.54224,-0.023171201,-0.016337663,-0.016310692,0.0,0.0,0.0
228.01544,469.3789,71849900,0.8125,0.09574468,450.17593,-15.598525,-0.023171201,-0.016337663,-0.016310692,0.0,0.0,0.0
235.70306,469.0061,71849917,0.825,0.10638297,556.38367,58.719902,-0.023171201,-0.016337663,-0.016310692,0.0,0.0,0.0
243.10837,469.66052,71849933,0.8,0.08510638,548.60455,152.89984,-0.023171201,-0.016337663,-0.016310692,0.0,0.0,0.0
250.20914,473.8136,71849950,0.8,0.09574468,462.57043,285.11066,-0.023171201,-0.016337663,-0.016310692,0.0,0.0,0.0
258.39227,481.8385,71849967,0.8,0.09574468,432.88763,473.0776,0.013463035,0.0029298663,0.018951416,0.0,0.0,0.0
267.79758,492.01526,71849984,0.7875,0.10638297,501.6678,702.8456,0.013463035,0.0029298663,0.018951416,0.0,0.0,0.0
278.18674,502.17102,71850000,0.77500004,0.10638297,615.31396,806.18756,0.013463035,0.0029298663,0.018951416,0.0,0.0,0.0
285.87772,511.39136,71850017,0.77500004,0.08510638,610.87836,764.5535,0.013463035,0.0029298663,0.018951416,0.0,0.0,0.0
294.27704,523.7079,71850034,0.7625,0.08510638,541.1483,720.2188,0.013463035,0.0029298663,0.018951416,0.0,0.0,0.0
300.78934,535.4828,71850050,0.77500004,0.08510638,429.42194,732.86896,0.013463035,0.0029298663,0.018951416,0.0,0.0,0.0
309.51913,551.8893,71850067,0.7625,0.12765957,418.4635,912.6013,0.013463035,0.0029298663,0.018951416,0.0,0.0,0.0
313.76425,556.8358,71850084,0.75,0.12765957,338.11975,707.79755,0.013463035,0.0029298663,0.018951416,0.0,0.0,0.0
319.20554,562.8302,71850101,0.7625,0.10638297,271.068,364.4285,0.013463035,0.0029298663,0.018951416,0.0,0.0,0.0
324.92844,567.84766,71850117,0.7625,0.10638297,253.84755,120.9609,0.013463035,0.0029298663,0.018951416,0.0,0.0,0.0
330.59344,570.90784,71850134,0.7625,0.09574468,283.88043,31.664461,0.013463035,0.0029298663,0.018951416,0.0,0.0,0.0
335.39294,572.0725,71850151,0.77500004,0.09574468,338.84467,76.035515,0.013463035,0.0029298663,0.018951416,0.0,0.0,0.0
339.54398,571.32764,71850167,0.77500004,0.10638297,273.1724,-68.360504,0.013463035,0.0029298663,0.018951416,0.0,0.0,0.0
343.2407,568.6299,71850184,0.7875,0.10638297,211.56732,-207.51164,0.013463035,0.0029298663,0.018951416,0.0,0.0,0.0
347.41092,564.0144,71850201,0.7875,0.10638297,195.41672,-334.96777,0.013463035,0.0029298663,0.018951416,0.0,0.0,0.0
352.11078,555.6394,71850217,0.77500004,0.08510638,230.2186,-502.153,0.013463035,0.0029298663,0.018951416,0.0,0.0,0.0
361.99835,531.1958,71850234,0.7625,0.11702127,434.58508,-1092.3702,0.013463035,0.0029298663,0.018951416,0.0,0.0,0.0
369.91833,511.96313,71850251,0.77500004,0.11702127,567.08905,-1523.5393,0.013463035,0.0029298663,0.018951416,0.0,0.0,0.0
381.45712,486.80127,71850268,0.7875,0.08510638,692.5753,-1776.3231,0.013463035,0.0029298663,0.018951416,0.0,0.0,0.0
391.28012,472.39563,71850284,0.77500004,0.10638297,714.27057,-1536.5298,0.013463035,0.0029298663,0.018951416,0.0,0.0,0.0
404.27417,454.8816,71850301,0.77500004,0.08510638,760.4356,-1030.2057,0.013463035,0.0029298663,0.018951416,0.0,0.0,0.0
417.4032,438.08472,71850318,0.77500004,0.09574468,872.9173,-930.7187,0.013463035,0.0029298663,0.018951416,0.0,0.0,0.0
434.8857,421.7025,71850334,0.77500004,0.10638297,973.06384,-888.22906,0.013463035,0.0029298663,0.018951416,0.0,0.0,0.0
454.8194,409.1864,71850351,0.77500004,0.10638297,1196.16,-844.67596,0.013463035,0.0029298663,0.018951416,0.0,0.0,0.0
471.22186,400.41467,71850368,0.7625,0.12765957,1228.9475,-593.651,0.013463035,0.0029298663,0.018951416,0.0,0.0,0.0
489.50214,393.75525,71850385,0.77500004,0.10638297,1221.4119,-340.27,0.013463035,0.0029298663,0.018951416,0.0,0.0,0.0
505.68597,389.9641,71850401,0.75,0.08510638,1084.2153,-111.51569,0.013463035,0.0029298663,0.018951416,0.0,0.0,0.0
515.5825,388.0984,71850418,0.7875,0.08510638,753.33734,16.137089,0.013463035,0.0029298663,0.018951416,0.0,0.0,0.0
521.62646,388.15222,71850435,0.77500004,0.09574468,420.52988,106.40964,0.013463035,0.0029298663,0.018951416,0.0,0.0,0.0
524.01776,388.15222,71850451,0.8,0.09574468,55.477043,145.0844,0.013463035,0.0029298663,0.018951416,0.0,0.0,0.0
525.44995,388.15222,71850468,0.8,0.09574468,-170.82707,124.63809,0.013463035,0.0029298663,0.018951416,0.0,0.0,0.0
526.4957,388.15222,71850485,0.8,0.11702127,-189.07306,70.49423,0.013463035,0.0029298663,0.018951416,0.0,0.0,0.0
527.0563,388.15222,71850494,0.8,0.11702127,-123.7734,30.461845,0.010770425,0.018343866,0.031161308,0.0,0.0,0.0
526.80634,388.15222,71850518,0.8125,0.11702127,-45.98642,0.02120507,0.010770425,0.018343866,0.031161308,0.0,0.0,0.0
526.80634,388.15222,71850535,0.8,0.11702127,-42.77214,-0.015692927,0.010770425,0.018343866,0.031161308,0.0,0.0,0.0
525.9583,388.15222,71850552,0.8,0.11702127,-54.32493,-0.01722985,0.010770425,0.018343866,0.031161308,0.0,0.0,0.0
524.53455,388.15222,71850568,0.8,0.10638297,-83.89143,-0.02447338,0.010770425,0.018343866,0.031161308,0.0,0.0,0.0
521.139,388.8938,71850585,0.8,0.10638297,-154.24597,13.3157,0.010770425,0.018343866,0.031161308,0.0,0.0,0.0
515.02563,389.92932,71850602,0.8,0.09574468,-328.45145,65.28162,0.010770425,0.018343866,0.031161308,0.0,0.0,0.0
506.26355,391.71606,71850619,0.8,0.10638297,-527.21356,104.72575,0.010770425,0.018343866,0.031161308,0.0,0.0,0.0
495.09888,393.51843,71850635,0.77500004,0.11702127,-727.3337,135.23491,0.010770425,0.018343866,0.031161308,0.0,0.0,0.0
479.8604,399.4635,71850652,0.77500004,0.12765957,-920.04,240.55275,0.010770425,0.018343866,0.031161308,0.0,0.0,0.0
457.1463,413.958,71850669,0.7875,0.08510638,-1281.1517,611.19293,0.010770425,0.018343866,0.031161308,0.0,0.0,0.0
438.474,430.05713,71850685,0.7875,0.09574468,-1460.7017,1042.896,0.010770425,0.018343866,0.031161308,0.0,0.0,0.0
427.85538,441.0033,71850702,0.7875,0.10638297,-1236.2489,1162.2362,0.010770425,0.018343866,0.031161308,0.0,0.0,0.0
416.6216,451.64294,71850719,0.7875,0.12765957,-736.59033,909.358,0.010770425,0.018343866,0.031161308,0.0,0.0,0.0
409.24567,463.4756,71850735,0.77500004,0.08510638,-273.84122,575.1251,0.010770425,0.018343866,0.031161308,0.0,0.0,0.0
403.39584,478.9773,71850752,0.77500004,0.08510638,-181.61151,683.08514,0.010770425,0.018343866,0.031161308,0.0,0.0,0.0
400.6339,492.35706,71850769,0.77500004,0.08510638,-99.48427,890.6101,0.010770425,0.018343866,0.031161308,0.0,0.0,0.0
400.7379,504.76672,71850786,0.75,0.10638297,67.000786,879.1843,0.010770425,0.018343866,0.031161308,0.0,0.0,0.0
403.64075,517.1427,71850802,0.7625,0.09574468,237.89291,787.77423,0.010770425,0.018343866,0.031161308,0.0,0.0,0.0
406.7774,525.709,71850819,0.7625,0.08510638,364.55893,578.4978,0.010770425,0.018343866,0.031161308,0.0,0.0,0.0
409.91235,532.2106,71850836,0.7875,0.08510638,352.383,409.491,0.010770425,0.018343866,0.031161308,0.0,0.0,0.0
411.97833,533.98645,71850852,0.7875,0.09574468,258.16632,166.03297,0.010770425,0.018343866,0.031161308,0.0,0.0,0.0
415.79544,534.7554,71850869,0.8,0.09574468,198.36407,-82.1761,0.010770425,0.018343866,0.031161308,0.0,0.0,0.0
421.98474,532.39734,71850886,0.7875,0.09574468,259.7935,-236.46773,0.010770425,0.018343866,0.031161308,0.0,0.0,0.0
434.96042,524.0768,71850903,0.7875,0.10638297,557.63586,-463.8385,0.010770425,0.018343866,0.031161308,0.0,0.0,0.0
452.41364,509.20605,71850919,0.8,0.10638297,987.89777,-823.7784,0.010770425,0.018343866,0.031161308,0.0,0.0,0.0
466.23157,490.96753,71850936,0.77500004,0.09574468,1264.5013,-1287.2407,0.010770425,0.018343866,0.031161308,0.0,0.0,0.0
476.39618,474.20667,71850953,0.7875,0.12765957,1022.29926,-1430.1013,0.010770425,0.018343866,0.031161308,0.0,0.0,0.0
484.59442,460.5221,71850969,0.7875,0.10638297,573.9637,-1196.9867,0.010770425,0.018343866,0.031161308,0.0,0.0,0.0
493.94836,444.7832,71850986,0.7875,0.08510638,330.63983,-947.5923,0.010770425,0.018343866,0.031161308,0.0,0.0,0.0
498.97205,434.22864,71851003,0.7875,0.08510638,256.12244,-675.89557,0.010770425,0.018343866,0.031161308,0.0,0.0,0.0
502.67157,426.6958,71851020,0.77500004,0.09574468,208.39377,-480.42365,0.010770425,0.018343866,0.031161308,0.0,0.0,0.0
505.82855,420.11108,71851036,0.77500004,0.09574468,105.31437,-310.60764,-0.007383663,0.030675083,0.008928299,0.0,0.0,0.0
508.50055,416.36133,71851053,0.7875,0.12765957,43.84351,-134.13675,-0.007383663,0.030675083,0.008928299,0.0,0.0,0.0
509.90845,413.74707,71851070,0.77500004,0.12765957,42.38415,-47.47275,-0.007383663,0.030675083,0.008928299,0.0,0.0,0.0
511.4458,411.90295,71851086,0.77500004,0.12765957,54.579823,-12.486427,-0.007383663,0.030675083,0.008928299,0.0,0.0,0.0
512.4323,411.25342,71851103,0.8125,0.12765957,31.842596,29.951473,-0.007383663,0.030675083,0.008928299,0.0,0.0,0.0
513.3107,411.25342,71851120,0.7875,0.10638297,22.609919,57.690426,-0.007383663,0.030675083,0.008928299,0.0,0.0,0.0
513.5535,411.68494,71851137,0.8,0.10638297,4.6878767,75.23689,-0.007383663,0.030675083,0.008928299,0.0,0.0,0.0
513.23303,418.91406,71851153,0.7625,0.08510638,-11.768437,233.40819,-0.007383663,0.030675083,0.008928299,0.0,0.0,0.0
502.87372,443.13354,71851170,0.77500004,0.10638297,-292.13614,950.6935,-0.007383663,0.030675083,0.008928299,0.0,0.0,0.0
489.8589,467.44116,71851187,0.7625,0.09574468,-769.70233,1723.072,-0.007383663,0.030675083,0.008928299,0.0,0.0,0.0
479.534,488.17603,71851203,0.7625,0.09574468,-1012.82227,2007.7588,-0.007383663,0.030675083,0.008928299,0.0,0.0,0.0
471.9756,501.77698,71851220,0.7625,0.12765957,-864.6053,1533.3916,-0.007383663,0.030675083,0.008928299,0.0,0.0,0.0
467.38538,512.36597,71851237,0.7625,0.10638297,-455.1057,745.29504,-0.007383663,0.030675083,0.008928299,0.0,0.0,0.0
466.32605,521.8939,71851254,0.7625,0.08510638,-38.99012,291.35724,-0.007383663,0.030675083,0.008928299,0.0,0.0,0.0
466.89386,531.03796,71851270,0.7625,0.08510638,144.5823,287.23395,-0.007383663,0.030675083,0.008928299,0.0,0.0,0.0
469.68066,539.3628,71851287,0.75,0.08510638,278.2095,390.90652,-0.007383663,0.030675083,0.008928299,0.0,0.0,0.0
472.71606,545.2256,71851304,0.77500004,0.09574468,337.59598,403.14777,-0.007383663,0.030675083,0.008928299,0.0,0.0,0.0
475.19067,548.73596,71851320,0.7625,0.11702127,307.10345,272.96396,-0.007383663,0.030675083,0.008928299,0.0,0.0,0.0
477.9961,552.4352,71851337,0.7625,0.12765957,214.32881,93.94241,-0.007383663,0.030675083,0.008928299,0.0,0.0,0.0
481.37915,556.131,71851354,0.77500004,0.12765957,185.85315,82.29177,-0.007383663,0.030675083,0.008928299,0.0,0.0,0.0
486.20886,559.23865,71851371,0.7625,0.12765957,235.96844,127.97081,-0.007383663,0.030675083,0.008928299,0.0,0.0,0.0
490.62695,561.1033,71851387,0.77500004,0.12765957,306.9136,136.0068,-0.007383663,0.030675083,0.008928299,0.0,0.0,0.0
495.32867,562.29895,71851404,0.7875,0.12765957,317.11566,80.49709,-0.007383663,0.030675083,0.008928299,0.0,0.0,0.0
501.27496,562.29895,71851421,0.7875,0.10638297,338.81952,-12.2929535,-0.007383663,0.030675083,0.008928299,0.0,0.0,0.0
508.93683,560.6172,71851437,0.77500004,0.10638297,401.56537,-100.32929,-0.007383663,0.030675083,0.008928299,0.0,0.0,0.0
516.37823,557.82166,71851454,0.7625,0.10638297,498.4071,-192.27304,-0.007383663,0.030675083,0.008928299,0.0,0.0,0.0
523.05005,554.13,71851471,0.7875,0.09574468,517.10187,-276.50827,-0.007383663,0.030675083,0.008928299,0.0,0.0,0.0
529.9231,547.45557,71851487,0.7625,0.09574468,453.58704,-386.63666,-0.007383663,0.030675083,0.008928299,0.0,0.0,0.0
538.23474,537.067,71851504,0.7625,0.08510638,444.92902,-574.9337,-0.007383663,0.030675083,0.008928299,0.0,0.0,0.0
549.29663,525.5176,71851521,0.7875,0.10638297,542.0859,-761.3662,-0.007383663,0.030675083,0.008928299,0.0,0.0,0.0
556.74426,516.0364,71851538,0.77500004,0.10638297,601.23834,-823.7648,-0.007383663,0.030675083,0.008928299,0.0,0.0,0.0
563.77405,505.90906,71851554,0.77500004,0.08510638,544.56104,-726.9023,-0.007383663,0.030675083,0.008928299,0.0,0.0,0.0
569.876,495.51257,71851571,0.77500004,0.08510638,379.75613,-614.9124,0.010093071,0.008540064,-0.008856773,0.0,0.0,0.0
576.98096,482.35156,71851588,0.7625,0.09574468,299.26553,-645.45074,0.010093071,0.008540064,-0.008856773,0.0,0.0,0.0
583.1945,468.81104,71851604,0.7625,0.12765957,345.40887,-823.8121,0.010093071,0.008540064,-0.008856773,0.0,0.0,0.0
585.8787,462.62378,71851621,0.77500004,0.12765957,262.6873,-702.59753,0.010093071,0.008540064,-0.008856773,0.0,0.0,0.0
590.43427,453.76233,71851638,0.7625,0.09574468,182.29344,-477.36774,0.010093071,0.008540064,-0.008856773,0.0,0.0,0.0
594.7142,444.30225,71851655,0.75,0.08510638,154.76805,-366.6947,0.010093071,0.008540064,-0.008856773,0.0,0.0,0.0
598.3931,435.88684,71851671,0.7625,0.08510638,191.69647,-432.68707,0.010093071,0.008540064,-0.008856773,0.0,0.0,0.0
604.16815,425.6703,71851688,0.7625,0.09574468,298.1225,-594.0853,0.010093071,0.008540064,-0.008856773,0.0,0.0,0.0
610.96313,414.4801,71851705,0.7625,0.10638297,383.56433,-679.4562,0.010093071,0.008540064,-0.008856773,0.0,0.0,0.0
618.77625,401.4801,71851721,0.7625,0.08510638,471.24985,-748.95105,0.010093071,0.008540064,-0.008856773,0.0,0.0,0.0
625.8064,387.11,71851738,0.7625,0.08510638,515.40674,-851.72656,0.010093071,0.008540064,-0.008856773,0.0,0.0,0.0
632.8651,370.71643,71851755,0.75,0.08510638,490.53732,-1038.7612,0.010093071,0.008540064,-0.008856773,0.0,0.0,0.0
637.60693,358.8954,71851772,0.75,0.12765957,362.2161,-935.59705,0.010093071,0.008540064,-0.008856773,0.0,0.0,0.0
642.5917,345.2965,71851788,0.75,0.11702127,254.57802,-804.17993,0.010093071,0.008540064,-0.008856773,0.0,0.0,0.0
649.35706,327.22705,71851805,0.75,0.09574468,264.0581,-844.97107,0.010093071,0.008540064,-0.008856773,0.0,0.0,0.0
656.4038,309.59192,71851822,0.7625,0.10638297,364.03577,-1018.5712,0.010093071,0.008540064,-0.008856773,0.0,0.0,0.0
662.7996,293.5089,71851838,0.77500004,0.10638297,460.51273,-1179.3804,0.010093071,0.008540064,-0.008856773,0.0,0.0,0.0
668.09424,276.7323,71851855,0.75,0.08510638,416.8598,-1106.0323,0.010093071,0.008540064,-0.008856773,0.0,0.0,0.0
672.2772,262.80847,71851872,0.7625,0.09574468,286.25406,-920.33746,0.010093071,0.008540064,-0.008856773,0.0,0.0,0.0
675.8817,249.92078,71851889,0.75,0.12765957,187.87885,-766.2728,0.010093071,0.008540064,-0.008856773,0.0,0.0,0.0
679.01105,236.94116,71851905,0.7625,0.08510638,141.53542,-716.1961,0.010093071,0.008540064,-0.008856773,0.0,0.0,0.0
681.00165,222.03418,71851922,0.7625,0.08510638,100.71133,-744.6413,0.010093071,0.008540064,-0.008856773,0.0,0.0,0.0
682.42126,210.46326,71851939,0.7625,0.08510638,64.780716,-757.0368,0.010093071,0.008540064,-0.008856773,0.0,0.0,0.0
682.55255,204.92627,71851955,0.7625,0.10638297,8.9300995,-571.46735,0.010093071,0.008540064,-0.008856773,0.0,0.0,0.0
680.79266,200.7428,71851972,0.7625,0.09574468,-95.30197,-216.15584,0.010093071,0.008540064,-0.008856773,0.0,0.0,0.0
679.4749,197.51184,71851989,0.75,0.12765957,-166.95128,10.651723,0.010093071,0.008540064,-0.008856773,0.0,0.0,0.0
677.6175,195.66711,71852006,0.77500004,0.12765957,-181.68585,60.734486,0.010093071,0.008540064,-0.008856773,0.0,0.0,0.0
675.5456,193.82568,71852022,0.77500004,0.10638297,-162.58194,5.3859377,0.010093071,0.008540064,-0.008856773,0.0,0.0,0.0
673.8777,193.57007,71852039,0.8,0.10638297,-130.2266,5.716604,0.010093071,0.008540064,-0.008856773,0.0,0.0,0.0
672.4053,194.32861,71852056,0.8125,0.10638297,-102.55601,50.670113,0.010093071,0.008540064,-0.008856773,0.0,0.0,0.0
668.8248,200.56311,71852072,0.77500004,0.08510638,-138.32625,228.9239,0.010093071,0.008540064,-0.008856773,0.0,0.0,0.0
665.15857,214.37073,71852089,0.77500004,0.08510638,-210.84747,676.25354,0.010093071,0.008540064,-0.008856773,0.0,0.0,0.0
661.0262,226.1864,71852106,0.7625,0.12765957,-279.99542,981.2967,-0.023925543,0.006832063,0.008913994,0.0,0.0,0.0
656.3187,245.30518,71852122,0.7375,0.08510638,-324.1522,1236.0734,-0.023925543,0.006832063,0.008913994,0.0,0.0,0.0
652.7018,267.90515,71852139,0.7375,0.09574468,-288.38684,1451.4686,-0.023925543,0.006832063,0.008913994,0.0,0.0,0.0
650.4021,283.2306,71852156,0.725,0.12765957,-208.19159,1385.6438,-0.023925543,0.006832063,0.008913994,0.0,0.0,0.0
649.0479,307.90686,71852173,0.7375,0.09574468,-94.26604,1396.4581,-0.023925543,0.006832063,0.008913994,0.0,0.0,0.0
648.26685,328.40442,71852189,0.71250004,0.09574468,-3.2676816,1371.3215,-0.023925543,0.006832063,0.008913994,0.0,0.0,0.0
647.1631,348.74268,71852206,0.71250004,0.12765957,22.356606,1283.0536,-0.023925543,0.006832063,0.008913994,0.0,0.0,0.0
646.76733,372.2622,71852223,0.71250004,0.08510638,6.9638786,1348.3102,-0.023925543,0.006832063,0.008913994,0.0,0.0,0.0
645.8983,388.72705,71852239,0.6875,0.11702127,-19.771137,1191.2301,-0.023925543,0.006832063,0.008913994,0.0,0.0,0.0
644.2681,413.24292,71852256,0.71250004,0.11702127,-72.75217,1170.3978,-0.023925543,0.006832063,0.008913994,0.0,0.0,0.0
642.35925,437.8319,71852273,0.7,0.08510638,-102.11229,1395.4318,-0.023925543,0.006832063,0.008913994,0.0,0.0,0.0
639.75684,462.00415,71852290,0.6875,0.08510638,-152.35751,1523.299,-0.023925543,0.006832063,0.008913994,0.0,0.0,0.0
636.09393,484.9751,71852306,0.6875,0.08510638,-219.18875,1576.551,-0.023925543,0.006832063,0.008913994,0.0,0.0,0.0
633.036,501.36072,71852323,0.675,0.12765957,-237.74936,1283.5265,-0.023925543,0.006832063,0.008913994,0.0,0.0,0.0
627.9164,522.4426,71852340,0.6875,0.08510638,-296.78314,1052.1798,-0.023925543,0.006832063,0.008913994,0.0,0.0,0.0
624.1159,536.80396,71852356,0.7,0.06382979,-292.81754,898.0914,-0.023925543,0.006832063,0.008913994,0.0,0.0,0.0
622.07623,547.1863,71852373,0.6875,0.08510638,-222.80916,657.1154,-0.023925543,0.006832063,0.008913994,0.0,0.0,0.0
619.79443,555.5536,71852390,0.7,0.10638297,-121.60409,426.7798,-0.023925543,0.006832063,0.008913994,0.0,0.0,0.0
617.7186,565.6671,71852407,0.6875,0.09574468,-69.58499,288.86176,-0.023925543,0.006832063,0.008913994,0.0,0.0,0.0
615.64124,572.55664,71852423,0.7,0.08510638,-89.17045,346.89172,-0.023925543,0.006832063,0.008913994,0.0,0.0,0.0
614.43274,578.35474,71852440,0.6875,0.08510638,-87.32424,341.81033,-0.023925543,0.006832063,0.008913994,0.0,0.0,0.0
613.3954,582.3179,71852457,0.6875,0.06382979,-57.10492,232.27043,-0.023925543,0.006832063,0.008913994,0.0,0.0,0.0
612.3521,585.2693,71852473,0.71250004,0.06382979,-31.3057,109.76013,-0.023925543,0.006832063,0.008913994,0.0,0.0,0.0
611.29694,587.1449,71852490,0.71250004,0.06382979,-34.516743,35.902855,-0.023925543,0.006832063,0.008913994,0.0,0.0,0.0
610.77484,587.177,71852507,0.725,0.06382979,-36.66967,-19.501234,-0.023925543,0.006832063,0.008913994,0.0,0.0,0.0
610.22327,587.177,71852524,0.75,0.08510638,-29.491245,-72.81172,-0.023925543,0.006832063,0.008913994,0.0,0.0,0.0
609.1813,587.177,71852540,0.75,0.08510638,-34.854507,-81.59228,-0.023925543,0.006832063,0.008913994,0.0,0.0,0.0
609.27954,587.177,71852557,0.77500004,0.08510638,-21.63829,-55.46907,-0.023925543,0.006832063,0.008913994,0.0,0.0,0.0
608.6094,585.9857,71852574,0.7875,0.08510638,-19.026812,-48.674316,-0.023925543,0.006832063,0.008913994,0.0,0.0,0.0
607.5625,584.1249,71852590,0.7875,0.08510638,-38.18663,-90.93612,-0.023925543,0.006832063,0.008913994,0.0,0.0,0.0
607.28015,581.8168,71852607,0.77500004,0.10638297,-41.548733,-157.93512,-0.023925543,0.006832063,0.008913994,0.0,0.0,0.0
607.5742,576.2014,71852624,0.75,0.12765957,-22.888659,-272.37158,-0.023925543,0.006832063,0.008913994,0.0,0.0,0.0
618.29,547.45667,71852640,0.75,0.09574468,238.60883,-849.649,0.012859568,0.03746566,0.02313137,0.0,0.0,0.0
625.6347,526.36597,71852657,0.7875,0.10638297,656.7841,-1767.676,0.012859568,0.03746566,0.02313137,0.0,0.0,0.0
632.2836,511.80933,71852674,0.7625,0.10638297,715.38214,-1806.1368,0.012859568,0.03746566,0.02313137,0.0,0.0,0.0
641.3461,492.15808,71852691,0.7375,0.09574468,660.4844,-1449.4963,0.012859568,0.03746566,0.02313137,0.0,0.0,0.0
648.7816,478.75598,71852707,0.75,0.10638297,500.96716,-882.2297,0.012859568,0.03746566,0.02313137,0.0,0.0,0.0
662.2334,464.04846,71852724,0.75,0.10638297,596.7968,-647.5643,0.012859568,0.03746566,0.02313137,0.0,0.0,0.0
675.7557,451.1698,71852741,0.75,0.08510638,883.2884,-833.4816,0.012859568,0.03746566,0.02313137,0.0,0.0,0.0
685.69324,440.42004,71852757,0.7375,0.08510638,841.17126,-638.3363,0.012859568,0.03746566,0.02313137,0.0,0.0,0.0
693.7067,432.49646,71852774,0.75,0.09574468,680.66315,-489.94342,0.012859568,0.03746566,0.02313137,0.0,0.0,0.0
702.32166,425.65942,71852791,0.7625,0.08510638,479.48492,-368.38116,0.012859568,0.03746566,0.02313137,0.0,0.0,0.0
709.9115,422.38135,71852808,0.75,0.08510638,359.39676,-165.62694,0.012859568,0.03746566,0.02313137,0.0,0.0,0.0
714.85114,421.9154,71852824,0.75,0.08510638,328.76184,18.046879,0.012859568,0.03746566,0.02313137,0.0,0.0,0.0
717.87964,421.9154,71852841,0.77500004,0.08510638,201.74432,150.50856,0.012859568,0.03746566,0.02313137,0.0,0.0,0.0
719.9237,423.40833,71852858,0.77500004,0.08510638,47.349705,212.56319,0.012859568,0.03746566,0.02313137,0.0,0.0,0.0
722.3825,427.28162,71852874,0.7625,0.08510638,-13.432189,249.38377,0.012859568,0.03746566,0.02313137,0.0,0.0,0.0
724.15796,434.64478,71852891,0.7625,0.08510638,34.10168,398.35666,0.012859568,0.03746566,0.02313137,0.0,0.0,0.0
722.83093,445.59082,71852908,0.75,0.10638297,13.467928,640.3098,0.012859568,0.03746566,0.02313137,0.0,0.0,0.0
716.6306,463.99316,71852925,0.7375,0.08510638,-239.03152,1047.4816,0.012859568,0.03746566,0.02313137,0.0,0.0,0.0
705.7925,484.71777,71852941,0.7375,0.11702127,-625.7142,1443.9518,0.012859568,0.03746566,0.02313137,0.0,0.0,0.0
686.0486,508.87976,71852958,0.75,0.09574468,-1095.0983,1626.4849,0.012859568,0.03746566,0.02313137,0.0,0.0,0.0
660.27094,527.864,71852975,0.7375,0.08510638,-1642.2366,1594.796,0.012859568,0.03746566,0.02313137,0.0,0.0,0.0
645.30676,537.2057,71852991,0.7625,0.09574468,-1664.9951,1074.8613,0.012859568,0.03746566,0.02313137,0.0,0.0,0.0
634.5501,540.4686,71853008,0.7875,0.08510638,-1238.1597,379.89526,0.012859568,0.03746566,0.02313137,0.0,0.0,0.0
628.4967,541.8633,71853025,0.7875,0.08510638,-417.48492,-198.0957,0.012859568,0.03746566,0.02313137,0.0,0.0,0.0
625.98804,541.8633,71853042,0.7875,0.08510638,136.8142,-423.80026,0.012859568,0.03746566,0.02313137,0.0,0.0,0.0
624.95483,540.40686,71853058,0.77500004,0.08510638,221.70578,-295.28418,0.012859568,0.03746566,0.02313137,0.0,0.0,0.0
624.7745,538.57654,71853075,0.77500004,0.08510638,222.70335,-237.34605,0.012859568,0.03746566,0.02313137,0.0,0.0,0.0
625.1634,536.0381,71853092,0.7625,0.08510638,163.02989,-211.84857,0.012859568,0.03746566,0.02313137,0.0,0.0,0.0
626.274,533.1008,71853108,0.7625,0.08510638,131.37971,-224.16017,0.012859568,0.03746566,0.02313137,0.0,0.0,0.0
627.2696,531.2085,71853125,0.7625,0.08510638,118.08935,-200.77296,0.012859568,0.03746566,0.02313137,0.0,0.0,0.0
627.2737,529.3783,71853142,0.77500004,0.08510638,70.347626,-138.03276,0.012859568,0.03746566,0.02313137,0.0,0.0,0.0
627.2737,527.50476,71853159,0.7625,0.08510638,14.8837385,-102.26462,0.012859568,0.03746566,0.02313137,0.0,0.0,0.0
627.8788,527.64734,71853175,0.7625,0.08510638,-4.372882,-29.905535,-0.021712348,-0.018027484,0.0025043488,0.0,0.0,0.0
629.5594,527.64734,71853192,0.7625,0.08510638,38.274033,19.102745,-0.021712348,-0.018027484,0.0025043488,0.0,0.0,0.0
631.8628,529.2355,71853209,0.7625,0.09574468,116.84291,79.74766,-0.021712348,-0.018027484,0.0025043488,0.0,0.0,0.0
635.7108,534.23096,71853225,0.7625,0.09574468,226.78407,240.70071,-0.021712348,-0.018027484,0.0025043488,0.0,0.0,0.0
640.3081,539.6936,71853242,0.75,0.09574468,308.92157,387.50696,-0.021712348,-0.018027484,0.0025043488,0.0,0.0,0.0
645.4649,546.2307,71853259,0.75,0.10638297,357.32275,486.08405,-0.021712348,-0.018027484,0.0025043488,0.0,0.0,0.0
652.5673,554.3551,71853275,0.75,0.12765957,416.69083,543.7804,-0.021712348,-0.018027484,0.0025043488,0.0,0.0,0.0
661.53845,563.605,71853292,0.75,0.09574468,522.68616,574.85693,-0.021712348,-0.018027484,0.0025043488,0.0,0.0,0.0
669.9952,572.2816,71853309,0.75,0.08510638,592.0941,608.165,-0.021712348,-0.018027484,0.0025043488,0.0,0.0,0.0
678.08124,580.73425,71853326,0.7375,0.08510638,612.9587,596.8569,-0.021712348,-0.018027484,0.0025043488,0.0,0.0,0.0
684.8347,587.2479,71853342,0.7375,0.09574468,498.90714,482.92313,-0.021712348,-0.018027484,0.0025043488,0.0,0.0,0.0
691.09265,592.80994,71853359,0.7625,0.09574468,382.40198,355.06744,-0.021712348,-0.018027484,0.0025043488,0.0,0.0,0.0
696.7376,597.2964,71853376,0.75,0.09574468,312.3168,247.90073,-0.021712348,-0.018027484,0.0025043488,0.0,0.0,0.0
702.01685,599.00037,71853392,0.7625,0.08510638,271.3737,114.23675,-0.021712348,-0.018027484,0.0025043488,0.0,0.0,0.0
707.19006,599.6161,71853409,0.7625,0.08510638,268.77948,-4.0239434,-0.021712348,-0.018027484,0.0025043488,0.0,0.0,0.0
712.0198,599.6161,71853426,0.75,0.08510638,265.17374,-85.49559,-0.021712348,-0.018027484,0.0025043488,0.0,0.0,0.0
716.8957,598.43823,71853443,0.7375,0.08510638,283.47955,-134.1356,-0.021712348,-0.018027484,0.0025043488,0.0,0.0,0.0
721.51715,594.7035,71853459,0.7625,0.08510638,281.425,-197.47679,-0.021712348,-0.018027484,0.0025043488,0.0,0.0,0.0
726.514,588.6311,71853476,0.75,0.08510638,271.50677,-353.86172,-0.021712348,-0.018027484,0.0025043488,0.0,0.0,0.0
733.0551,578.61914,71853493,0.7375,0.12765957,319.2453,-564.30115,-0.021712348,-0.018027484,0.0025043488,0.0,0.0,0.0
739.8979,563.9591,71853509,0.7375,0.10638297,380.3443,-817.4899,-0.021712348,-0.018027484,0.0025043488,0.0,0.0,0.0
746.6349,545.41724,71853526,0.75,0.09574468,448.91318,-1142.0276,-0.021712348,-0.018027484,0.0025043488,0.0,0.0,0.0
751.1967,530.4264,71853543,0.7375,0.09574468,418.52997,-1326.333,-0.021712348,-0.018027484,0.0025043488,0.0,0.0,0.0
755.8813,517.50183,71853560,0.7375,0.12765957,296.0497,-1101.474,-0.021712348,-0.018027484,0.0025043488,0.0,0.0,0.0
760.6059,509.2096,71853576,0.7375,0.08510638,232.31906,-698.45734,-0.021712348,-0.018027484,0.0025043488,0.0,0.0,0.0
771.6949,494.65222,71853593,0.7375,0.06382979,395.99274,-536.3097,-0.021712348,-0.018027484,0.0025043488,0.0,0.0,0.0
785.60284,478.90674,71853610,0.7375,0.10638297,726.90314,-715.5526,-0.021712348,-0.018027484,0.0025043488,0.0,0.0,0.0
797.6139,466.68408,71853626,0.75,0.12765957,952.21625,-884.8333,-0.021712348,-0.018027484,0.0025043488,0.0,0.0,0.0
807.573,459.24353,71853643,0.7375,0.12765957,884.4689,-739.6935,-0.021712348,-0.018027484,0.0025043488,0.0,0.0,0.0
820.4296,452.10315,71853660,0.7375,0.10638297,739.9241,-402.5183,-0.021712348,-0.018027484,0.0025043488,0.0,0.0,0.0
834.4617,446.7179,71853677,0.75,0.08510638,736.5239,-170.85461,-0.021712348,-0.018027484,0.0025043488,0.0,0.0,0.0
845.31995,445.01648,71853693,0.7375,0.08510638,743.71564,-49.064102,-0.021712348,-0.018027484,0.0025043488,0.0,0.0,0.0
853.9706,445.01648,71853710,0.725,0.11702127,634.80396,66.99415,0.014630124,-0.014421999,-0.013996124,0.0,0.0,0.0
860.5627,445.71692,71853727,0.7375,0.11702127,407.72583,173.70056,0.014630124,-0.014421999,-0.013996124,0.0,0.0,0.0
866.00696,447.59802,71853743,0.75,0.10638297,230.36357,222.57266,0.014630124,-0.014421999,-0.013996124,0.0,0.0,0.0
870.7136,449.46753,71853760,0.75,0.12765957,186.52258,204.46394,0.014630124,-0.014421999,-0.013996124,0.0,0.0,0.0
873.6787,451.2229,71853777,0.75,0.12765957,147.30748,175.7601,0.014630124,-0.014421999,-0.013996124,0.0,0.0,0.0
875.8718,453.17224,71853793,0.7625,0.12765957,90.6776,148.87833,0.014630124,-0.014421999,-0.013996124,0.0,0.0,0.0
876.8231,453.9015,71853810,0.7625,0.12765957,20.84442,95.14754,0.014630124,-0.014421999,-0.013996124,0.0,0.0,0.0
877.44226,453.9015,71853823,0.7625,0.12765957,-18.857063,40.28555,0.014630124,-0.014421999,-0.013996124,0.0,0.0,0.0
877.69214,455.10474,71853844,0.75,0.12765957,-40.80319,5.764932,0.014630124,-0.014421999,-0.013996124,0.0,0.0,0.0
877.69214,455.67847,71853860,0.75,0.12765957,-32.393513,9.067993,0.014630124,-0.014421999,-0.013996124,0.0,0.0,0.0
876.9016,455.67847,71853877,0.75,0.12765957,-50.09352,11.852274,0.014630124,-0.014421999,-0.013996124,0.0,0.0,0.0
874.6982,455.67847,71853894,0.75,0.12765957,-107.170006,-0.56977195,0.014630124,-0.014421999,-0.013996124,0.0,0.0,0.0
870.9093,455.67847,71853910,0.7375,0.12765957,-202.84566,-23.791864,0.014630124,-0.014421999,-0.013996124,0.0,0.0,0.0
864.1397,454.79004,71853927,0.75,0.12765957,-354.51233,-40.77918,0.014630124,-0.014421999,-0.013996124,0.0,0.0,0.0
854.4425,454.79004,71853944,0.7625,0.12765957,-572.0474,-33.510292,0.014630124,-0.014421999,-0.013996124,0.0,0.0,0.0
845.87396,454.79004,71853961,0.7625,0.12765957,-705.02985,-21.369402,0.014630124,-0.014421999,-0.013996124,0.0,0.0,0.0
837.7467,456.36133,71853977,0.7625,0.12765957,-689.8616,38.51786,0.014630124,-0.014421999,-0.013996124,0.0,0.0,0.0
828.29126,459.00232,71853994,0.7625,0.12765957,-603.58777,133.80531,0.014630124,-0.014421999,-0.013996124,0.0,0.0,0.0
817.17175,465.30286,71854011,0.7375,0.09574468,-605.06085,302.21994,0.014630124,-0.014421999,-0.013996124,0.0,0.0,0.0
807.5919,476.25977,71854027,0.75,0.08510638,-632.5069,570.3956,0.014630124,-0.014421999,-0.013996124,0.0,0.0,0.0
795.52155,491.78748,71854044,0.75,0.09574468,-705.17065,926.35736,0.014630124,-0.014421999,-0.013996124,0.0,0.0,0.0
785.21643,507.63293,71854061,0.75,0.09574468,-704.99005,1152.8889,0.014630124,-0.014421999,-0.013996124,0.0,0.0,0.0
776.6142,527.5641,71854078,0.77500004,0.08510638,-635.4482,1353.1194,0.014630124,-0.014421999,-0.013996124,0.0,0.0,0.0
772.6084,544.4784,71854094,0.75,0.08510638,-425.4139,1339.6819,0.014630124,-0.014421999,-0.013996124,0.0,0.0,0.0
772.9214,559.8611,71854111,0.75,0.12765957,-18.113037,1090.8641,0.014630124,-0.014421999,-0.013996124,0.0,0.0,0.0
774.733,574.18054,71854128,0.75,0.08510638,276.4711,870.3004,0.014630124,-0.014421999,-0.013996124,0.0,0.0,0.0
778.89044,589.3469,71854144,0.7625,0.08510638,439.23514,754.7866,0.014630124,-0.014421999,-0.013996124,0.0,0.0,0.0
782.9643,598.26794,71854161,0.7625,0.08510638,432.52048,665.03925,0.014630124,-0.014421999,-0.013996124,0.0,0.0,0.0
786.2427,602.30005,71854178,0.7625,0.10638297,345.0279,366.79944,0.014630124,-0.014421999,-0.013996124,0.0,0.0,0.0
790.98596,606.0244,71854195,0.77500004,0.12765957,299.23245,76.10857,0.014630124,-0.014421999,-0.013996124,0.0,0.0,0.0
795.56055,608.65295,71854211,0.75,0.11702127,293.83264,-67.028366,0.014630124,-0.014421999,-0.013996124,0.0,0.0,0.0
801.03546,609.3895,71854228,0.7625,0.11702127,314.92477,-82.79305,0.014630124,-0.014421999,-0.013996124,0.0,0.0,0.0
807.0083,606.84656,71854245,0.75,0.09574468,360.4235,-119.1441,-0.004295904,0.0524624,0.14080238,3.355443E-6,0.0,0.0
820.8791,591.89075,71854261,0.75,0.08510638,603.5015,-548.92334,-0.004295904,0.0524624,0.14080238,3.355443E-6,0.0,0.0
833.0257,575.4341,71854278,0.7375,0.12765957,872.2694,-1160.053,-0.004295904,0.0524624,0.14080238,3.355443E-6,0.0,0.0
845.1147,552.9889,71854295,0.7375,0.08510638,939.5786,-1545.5363,-0.004295904,0.0524624,0.14080238,3.355443E-6,0.0,0.0
853.56934,533.0409,71854312,0.7375,0.09574468,770.8634,-1683.2438,-0.004295904,0.0524624,0.14080238,0.0,0.0,0.0
857.3727,520.4104,71854328,0.725,0.12765957,344.6613,-1226.4843,-0.004295904,0.0524624,0.14080238,0.0,0.0,0.0
859.9035,510.92358,71854345,0.7375,0.11702127,54.61592,-724.39966,-0.004295904,0.0524624,0.14080238,0.0,0.0,0.0
861.53204,503.3567,71854362,0.7375,0.09574468,-103.83251,-272.27057,-0.004295904,0.0524624,0.14080238,0.0,0.0,0.0
861.6973,497.614,71854378,0.7375,0.09574468,-137.26518,-63.161537,-0.004295904,0.0524624,0.14080238,0.0,0.0,0.0
861.6973,493.7456,71854395,0.7375,0.09574468,-72.825096,-125.383026,-0.004295904,0.0524624,0.14080238,0.0,0.0,0.0
861.6973,491.98828,71854412,0.75,0.09574468,-63.88134,-69.19965,-0.004295904,0.0524624,0.14080238,0.0,0.0,0.0
861.6973,490.7744,71854423,0.75,0.09574468,-61.21244,-11.654018,-0.004295904,0.0524624,0.14080238,0.0,0.0,0.0
861.6973,491.21863,71854444,0.7625,0.09574468,-27.306591,84.14723,-0.004295904,0.0524624,0.14080238,0.0,0.0,0.0
861.6973,491.21863,71854462,0.7625,0.09574468,0.025278565,104.058464,-0.004295904,0.0524624,0.14080238,0.0,0.0,0.0
862.36523,493.89172,71854479,0.75,0.11702127,17.192492,146.05751,-0.004295904,0.0524624,0.14080238,0.0,0.0,0.0
863.962,503.40405,71854495,0.725,0.12765957,73.401,391.3461,-0.004295904,0.0524624,0.14080238,0.0,0.0,0.0
863.8914,521.37146,71854512,0.725,0.09574468,76.7533,887.79156,-0.004295904,0.0524624,0.14080238,0.0,0.0,0.0
861.6564,542.35376,71854529,0.725,0.09574468,-30.568556,1508.2562,-0.004295904,0.0524624,0.14080238,0.0,0.0,0.0
859.45465,556.26086,71854545,0.725,0.12765957,-163.98083,1525.8103,-0.004295904,0.0524624,0.14080238,0.0,0.0,0.0
858.6983,568.59106,71854562,0.725,0.11702127,-200.92818,1004.0261,-0.004295904,0.0524624,0.14080238,0.0,0.0,0.0
859.65594,582.1365,71854579,0.725,0.09574468,-74.67896,703.6687,-0.004295904,0.0524624,0.14080238,0.0,0.0,0.0
862.7076,594.3164,71854596,0.7375,0.09574468,147.31392,579.63684,-0.004295904,0.0524624,0.14080238,0.0,0.0,0.0
864.7918,599.78577,71854612,0.7375,0.11702127,246.00133,477.95612,-0.004295904,0.0524624,0.14080238,0.0,0.0,0.0
870.7987,605.4072,71854629,0.75,0.10638297,332.17822,285.82745,-0.004295904,0.0524624,0.14080238,0.0,0.0,0.0
879.4748,609.89624,71854646,0.75,0.10638297,477.15817,114.26209,-0.004295904,0.0524624,0.14080238,0.0,0.0,0.0
891.23926,611.1666,71854662,0.75,0.10638297,698.9703,-10.541319,-0.004295904,0.0524624,0.14080238,0.0,0.0,0.0
901.23926,610.4363,71854679,0.7375,0.10638297,830.78125,-71.32547,-0.004295904,0.0524624,0.14080238,0.0,0.0,0.0
910.6325,604.9905,71854696,0.725,0.09574468,763.3622,-291.85373,-0.004295904,0.0524624,0.14080238,0.0,0.0,0.0
922.2997,594.3085,71854713,0.75,0.08510638,663.9518,-634.5838,-0.004295904,0.0524624,0.14080238,0.0,0.0,0.0
936.342,579.34485,71854729,0.725,0.10638297,710.9752,-986.0628,-0.004295904,0.0524624,0.14080238,0.0,0.0,0.0
950.0481,562.0331,71854746,0.7375,0.10638297,878.2882,-1256.1581,-0.004295904,0.0524624,0.14080238,0.0,0.0,0.0
961.0913,542.8828,71854763,0.71250004,0.09574468,873.0913,-1384.2726,-0.004295904,0.0524624,0.14080238,0.0,0.0,0.0
973.7362,518.6284,71854779,0.725,0.12765957,799.1441,-1558.7264,-0.019436724,-0.05403009,-0.055357933,0.0,0.0,0.0
988.71985,490.29846,71854796,0.71250004,0.08510638,723.90247,-1658.5924,-0.019436724,-0.05403009,-0.055357933,0.0,0.0,0.0
998.8512,472.20715,71854813,0.71250004,0.12765957,716.6696,-1581.8877,-0.019436724,-0.05403009,-0.055357933,0.0,0.0,0.0
1016.00867,440.70483,71854830,0.71250004,0.08510638,843.02844,-1624.7548,-0.019436724,-0.05403009,-0.055357933,0.0,0.0,0.0
1024.5029,416.9613,71854846,0.7,0.12765957,781.8947,-1646.5612,-0.019436724,-0.05403009,-0.055357933,0.0,0.0,0.0
1034.0779,392.4613,71854863,0.71250004,0.09574468,626.2504,-1597.7548,-0.019436724,-0.05403009,-0.055357933,0.0,0.0,0.0
1045.2074,367.74548,71854880,0.7,0.10638297,538.51886,-1526.4176,-0.019436724,-0.05403009,-0.055357933,0.0,0.0,0.0
1051.6842,353.02087,71854896,0.71250004,0.09574468,445.81036,-1235.1674,-0.019436724,-0.05403009,-0.055357933,0.0,0.0,0.0
1061.7291,328.83008,71854913,0.7,0.07446808,457.6869,-1020.282,-0.019436724,-0.05403009,-0.055357933,0.0,0.0,0.0
1067.745,314.906,71854930,0.71250004,0.10638297,436.87308,-973.323,-0.019436724,-0.05403009,-0.055357933,0.0,0.0,0.0
1072.0894,302.6765,71854947,0.71250004,0.12765957,296.27325,-760.6477,-0.019436724,-0.05403009,-0.055357933,0.0,0.0,0.0
1074.0089,296.3839,71854963,0.7,0.11702127,134.01598,-456.93076,-0.019436724,-0.05403009,-0.055357933,0.0,0.0,0.0
1074.5503,294.10913,71854980,0.725,0.11702127,-65.4347,0.20141411,-0.019436724,-0.05403009,-0.055357933,0.0,0.0,0.0
1074.628,291.3756,71854997,0.725,0.11702127,-143.33855,198.51183,-0.019436724,-0.05403009,-0.055357933,0.0,0.0,0.0
1074.628,289.55627,71855013,0.7375,0.11702127,-116.60274,139.33583,-0.019436724,-0.05403009,-0.055357933,0.0,0.0,0.0
1074.628,289.52844,71855030,0.7375,0.12765957,-60.631615,79.015396,-0.019436724,-0.05403009,-0.055357933,0.0,0.0,0.0
1074.628,290.5669,71855047,0.725,0.12765957,-23.341225,77.000465,-0.019436724,-0.05403009,-0.055357933,0.0,0.0,0.0
1074.0012,297.76477,71855063,0.71250004,0.08510638,-21.80687,277.55435,-0.019436724,-0.05403009,-0.055357933,0.0,0.0,0.0
1068.2062,324.66248,71855080,0.71250004,0.08510638,-175.07239,1023.42084,-0.019436724,-0.05403009,-0.055357933,0.0,0.0,0.0
1060.3356,344.4309,71855097,0.725,0.10638297,-416.98868,1645.6571,-0.019436724,-0.05403009,-0.055357933,0.0,0.0,0.0
1051.4767,369.24182,71855114,0.7,0.08510638,-667.6812,1999.9928,-0.019436724,-0.05403009,-0.055357933,0.0,0.0,0.0
1040.8408,392.83936,71855130,0.7,0.12765957,-772.2545,1842.1356,-0.019436724,-0.05403009,-0.055357933,0.0,0.0,0.0
1030.2103,417.23865,71855147,0.7,0.09574468,-758.3863,1531.5745,-0.019436724,-0.05403009,-0.055357933,0.0,0.0,0.0
1020.82654,439.99,71855164,0.7,0.08510638,-699.8544,1466.7396,-0.019436724,-0.05403009,-0.055357933,0.0,0.0,0.0
1010.5498,462.42908,71855180,0.71250004,0.09574468,-628.8498,1344.2944,-0.019436724,-0.05403009,-0.055357933,0.0,0.0,0.0
1002.1853,486.1234,71855197,0.7,0.06382979,-552.0822,1317.3384,-0.019436724,-0.05403009,-0.055357933,0.0,0.0,0.0
995.80994,508.34058,71855214,0.7,0.10638297,-429.77838,1315.1934,-0.019436724,-0.05403009,-0.055357933,0.0,0.0,0.0
991.07446,536.10254,71855231,0.6875,0.07446808,-284.6834,1482.1156,-0.019436724,-0.05403009,-0.055357933,0.0,0.0,0.0
987.9888,562.0095,71855247,0.6875,0.12765957,-146.90695,1632.7623,-0.019436724,-0.05403009,-0.055357933,0.0,0.0,0.0
984.0868,586.02844,71855264,0.6875,0.07446808,-99.13574,1612.8815,-0.019436724,-0.05403009,-0.055357933,0.0,0.0,0.0
983.0062,606.21484,71855281,0.6875,0.12765957,-58.170284,1456.1547,-0.019436724,-0.05403009,-0.055357933,0.0,0.0,0.0
983.15784,617.5034,71855297,0.7,0.10638297,16.57571,946.73486,-0.019436724,-0.05403009,-0.055357933,0.0,0.0,0.0
987.02783,624.76685,71855314,0.7,0.08510638,176.4412,380.9013,-0.03154938,-0.011224061,-0.012286186,0.0,0.0,0.0
996.44714,631.1759,71855331,0.71250004,0.08510638,483.5789,11.831915,-0.03154938,-0.011224061,-0.012286186,0.0,0.0,0.0
1014.5779,633.37915,71855348,0.71250004,0.09574468,960.2777,-72.175896,-0.03154938,-0.011224061,-0.012286186,0.0,0.0,0.0
1042.2474,626.59204,71855364,0.71250004,0.10638297,1637.6501,-252.99284,-0.03154938,-0.011224061,-0.012286186,0.0,0.0,0.0
1074.3658,607.27185,71855381,0.6875,0.08510638,2242.3716,-921.37885,-0.03154938,-0.011224061,-0.012286186,0.0,0.0,0.0
1093.122,589.8425,71855391,0.2875,0.10638297,2435.8425,-1429.9346,-0.03154938,-0.011224061,-0.012286186,0.0,0.0,0.0
1093.122,589.8425,71855398,0.2875,0.10638297,2435.8425,-1429.9346,-0.03154938,-0.011224061,-0.012286186,0.0,0.0,0.0
953.16754,437.0199,71855584,0.725,0.08510638,0.0,0.0,-0.03154938,-0.011224061,-0.012286186,0.0,0.0,0.0
953.16754,437.0199,71855615,0.75,0.08510638,0.086836465,0.042219896,-0.03154938,-0.011224061,-0.012286186,0.0,0.0,0.0
974.5127,435.33362,71855632,0.71250004,0.09574468,1425.3169,-112.59824,-0.03154938,-0.011224061,-0.012286186,0.0,0.0,0.0
1002.5958,432.55103,71855648,0.725,0.08510638,2287.4382,-213.18954,-0.03154938,-0.011224061,-0.012286186,0.0,0.0,0.0
1030.5214,429.81396,71855665,0.7375,0.08510638,2456.87,-234.89998,-0.03154938,-0.011224061,-0.012286186,0.0,0.0,0.0
1059.0603,428.85095,71855682,0.71250004,0.08510638,2450.2073,-178.20256,-0.03154938,-0.011224061,-0.012286186,0.0,0.0,0.0
1084.1241,429.02344,71855698,0.675,0.08510638,1812.0596,-34.841885,-0.03154938,-0.011224061,-0.012286186,0.0,0.0,0.0
1104.9596,430.34216,71855715,0.4875,0.08510638,1347.5309,72.76782,-0.03154938,-0.011224061,-0.012286186,0.0,0.0,0.0
1103.1188,429.912,71855721,0.26250002,0.08510638,1052.324,105.94662,-0.03154938,-0.011224061,-0.012286186,0.0,0.0,0.0
1103.1188,429.912,71855728,0.26250002,0.08510638,1052.324,105.94662,-0.03154938,-0.011224061,-0.012286186,0.0,0.0,0.0
1150.6033,508.10022,71855994,0.6625,0.12765957,0.0,0.0,-0.025239505,0.0070207417,-0.04182911,0.0,0.0,0.0
1150.6033,508.10022,71856016,0.6875,0.12765957,0.33467135,0.15304145,-0.025239505,0.0070207417,-0.04182911,0.0,0.0,0.0
1150.6033,508.10022,71856049,0.7,0.10638297,-0.05142258,-0.023779012,-0.025239505,0.0070207417,-0.04182911,0.0,0.0,0.0
1150.6033,508.10022,71856054,0.6875,0.10638297,0.03918437,0.016336085,-0.025239505,0.0070207417,-0.04182911,0.0,0.0,0.0
1150.6033,508.10022,71856074,0.6875,0.11702127,-0.014780401,-0.003806865,-0.025239505,0.0070207417,-0.04182911,0.0,0.0,0.0
1150.6033,508.10022,71856098,0.7,0.11702127,-0.046649333,-0.020163229,-0.025239505,0.0070207417,-0.04182911,0.0,0.0,0.0
1114.55,510.10657,71856116,0.6875,0.10638297,-1612.8812,88.53655,-0.025239505,0.0070207417,-0.04182911,0.0,0.0,0.0
1096.8729,516.2904,71856133,0.7,0.11702127,-1656.2847,291.97244,-0.025239505,0.0070207417,-0.04182911,0.0,0.0,0.0
1088.203,522.3424,71856150,0.7,0.09574468,-1320.2764,428.36856,-0.025239505,0.0070207417,-0.04182911,0.0,0.0,0.0
1080.6415,534.6422,71856166,0.7,0.08510638,-603.5685,659.7199,-0.025239505,0.0070207417,-0.04182911,0.0,0.0,0.0
1074.5547,553.0469,71856183,0.7,0.12765957,51.315258,1108.6151,-0.025239505,0.0070207417,-0.04182911,0.0,0.0,0.0
1073.9545,569.5637,71856200,0.7,0.10638297,24.49835,1279.7982,-0.025239505,0.0070207417,-0.04182911,0.0,0.0,0.0
1077.0979,589.5033,71856216,0.6875,0.08510638,240.8245,1410.538,-0.025239505,0.0070207417,-0.04182911,0.0,0.0,0.0
1081.2498,601.4463,71856233,0.7,0.09574468,439.68372,1169.6204,-0.025239505,0.0070207417,-0.04182911,0.0,0.0,0.0
1084.3912,606.41284,71856250,0.7,0.11702127,493.71182,583.4842,-0.025239505,0.0070207417,-0.04182911,0.0,0.0,0.0
1091.0188,611.97595,71856267,0.71250004,0.12765957,432.00888,157.35817,-0.025239505,0.0070207417,-0.04182911,0.0,0.0,0.0
1098.7782,615.6793,71856283,0.7,0.10638297,473.5514,-67.52236,-0.025239505,0.0070207417,-0.04182911,0.0,0.0,0.0
1109.2917,616.49756,71856300,0.7,0.10638297,611.6673,-91.53643,-0.025239505,0.0070207417,-0.04182911,0.0,0.0,0.0
1120.8269,612.3552,71856317,0.71250004,0.08510638,773.4519,-178.06674,-0.025239505,0.0070207417,-0.04182911,0.0,0.0,0.0
1130.248,600.51196,71856333,0.6875,0.08510638,779.10754,-571.1554,-0.025239505,0.0070207417,-0.04182911,0.0,0.0,0.0
1138.5504,586.3894,71856350,0.7,0.10638297,645.5565,-1002.854,-0.025239505,0.0070207417,-0.04182911,0.0,0.0,0.0
1143.9799,569.74365,71856367,0.7,0.10638297,395.14948,-1283.0317,-0.0041916072,0.0056166053,-0.033463478,0.0,0.0,0.0
1143.0742,556.4258,71856384,0.6875,0.09574468,68.597115,-1201.6198,-0.0041916072,0.0056166053,-0.033463478,0.0,0.0,0.0
1138.0928,544.1527,71856400,0.7,0.09574468,-317.13336,-953.0745,-0.0041916072,0.0056166053,-0.033463478,0.0,0.0,0.0
1129.1886,534.38074,71856417,0.7,0.08510638,-670.31616,-658.1578,-0.0041916072,0.0056166053,-0.033463478,0.0,0.0,0.0
1120.5592,527.3893,71856434,0.7,0.09574468,-853.9973,-405.59335,-0.0041916072,0.0056166053,-0.033463478,0.0,0.0,0.0
1112.2744,523.4973,71856450,0.7,0.10638297,-784.329,-176.63608,-0.0041916072,0.0056166053,-0.033463478,0.0,0.0,0.0
1108.732,522.3163,71856467,0.71250004,0.10638297,-499.51157,5.3784385,-0.0041916072,0.0056166053,-0.033463478,0.0,0.0,0.0
1107.1143,522.3163,71856484,0.71250004,0.08510638,-156.25238,136.68059,-0.0041916072,0.0056166053,-0.033463478,0.0,0.0,0.0
1105.5776,525.12524,71856501,0.71250004,0.08510638,48.252808,256.76602,-0.0041916072,0.0056166053,-0.033463478,0.0,0.0,0.0
1106.359,535.6129,71856517,0.7,0.08510638,134.6804,511.65686,-0.0041916072,0.0056166053,-0.033463478,0.0,0.0,0.0
1110.7134,547.36707,71856534,0.7,0.09574468,252.04245,813.0617,-0.0041916072,0.0056166053,-0.033463478,0.0,0.0,0.0
1115.2435,554.25183,71856551,0.7,0.12765957,358.6774,860.2329,-0.0041916072,0.0056166053,-0.033463478,0.0,0.0,0.0
1123.1862,561.9203,71856567,0.7,0.11702127,513.4295,697.71063,-0.0041916072,0.0056166053,-0.033463478,0.0,0.0,0.0
1133.2327,569.3379,71856584,0.71250004,0.11702127,644.4013,385.93747,-0.0041916072,0.0056166053,-0.033463478,0.0,0.0,0.0
1147.5676,574.3452,71856601,0.7,0.08510638,832.448,287.88397,-0.0041916072,0.0056166053,-0.033463478,0.0,0.0,0.0
1164.2887,574.1763,71856617,0.71250004,0.09574468,1079.683,129.58891,-0.0041916072,0.0056166053,-0.033463478,0.0,0.0,0.0
1179.181,568.6759,71856634,0.7,0.12765957,1180.6542,-226.72026,-0.0041916072,0.0056166053,-0.033463478,0.0,0.0,0.0
1195.6315,557.6251,71856651,0.6875,0.10638297,1103.9813,-688.3819,-0.0041916072,0.0056166053,-0.033463478,0.0,0.0,0.0
1208.8644,542.7938,71856668,0.6875,0.08510638,958.2705,-1086.8682,-0.0041916072,0.0056166053,-0.033463478,0.0,0.0,0.0
1218.3009,524.682,71856684,0.71250004,0.09574468,691.03735,-1291.9587,-0.0041916072,0.0056166053,-0.033463478,0.0,0.0,0.0
1222.0988,509.64453,71856701,0.675,0.08510638,343.85425,-1304.5973,-0.0041916072,0.0056166053,-0.033463478,0.0,0.0,0.0
1218.2803,494.80518,71856718,0.675,0.06382979,-142.70122,-1125.9775,-0.0041916072,0.0056166053,-0.033463478,0.0,0.0,0.0
1211.9388,485.12415,71856734,0.6875,0.08510638,-595.5846,-801.1563,-0.0041916072,0.0056166053,-0.033463478,0.0,0.0,0.0
1199.874,476.78406,71856751,0.7,0.09574468,-909.55707,-486.13116,-0.0041916072,0.0056166053,-0.033463478,0.0,0.0,0.0
1191.3441,473.5614,71856768,0.71250004,0.08510638,-964.3278,-164.35146,-0.0041916072,0.0056166053,-0.033463478,0.0,0.0,0.0
1185.7587,475.96582,71856785,0.7,0.08510638,-732.0981,120.18619,-0.0041916072,0.0056166053,-0.033463478,0.0,0.0,0.0
1180.0925,487.66858,71856801,0.71250004,0.08510638,-386.39996,605.85333,-0.0041916072,0.0056166053,-0.033463478,0.0,0.0,0.0
1178.3887,504.08362,71856818,0.71250004,0.12765957,-123.78886,1139.2894,-0.0041916072,0.0056166053,-0.033463478,0.0,0.0,0.0
1181.4832,526.5985,71856835,0.71250004,0.08510638,130.69533,1600.6288,-0.0041916072,0.0056166053,-0.033463478,0.0,0.0,0.0
1188.6747,549.31104,71856851,0.71250004,0.11702127,465.8721,1834.0964,-0.0041916072,0.0056166053,-0.033463478,0.0,0.0,0.0
1196.3313,569.334,71856868,0.7,0.11702127,701.97046,1646.4061,-0.0041916072,0.0056166053,-0.033463478,0.0,0.0,0.0
1205.6466,591.4686,71856885,0.71250004,0.08510638,784.2053,1417.3662,-0.0041916072,0.0056166053,-0.033463478,0.0,0.0,0.0
1212.0514,607.5221,71856902,0.71250004,0.09574468,666.1874,1174.0796,-0.035353284,-0.0115067065,0.021229744,0.0,0.0,0.0
1217.2697,624.35767,71856918,0.71250004,0.08510638,422.382,928.8544,-0.035353284,-0.0115067065,0.021229744,0.0,0.0,0.0
1218.5812,638.912,71856935,0.71250004,0.06382979,176.8233,834.2574,-0.035353284,-0.0115067065,0.021229744,0.0,0.0,0.0
1214.485,655.9381,71856952,0.7,0.09574468,-163.12875,813.2651,-0.035353284,-0.0115067065,0.021229744,0.0,0.0,0.0
1194.229,677.5492,71856968,0.7,0.08510638,-797.2186,1006.83875,-0.035353284,-0.0115067065,0.021229744,0.0,0.0,0.0
1151.6849,705.8917,71856985,0.675,0.07446808,-2039.3024,1521.654,-0.035353284,-0.0115067065,0.021229744,0.0,0.0,0.0
1114.9344,713.31226,71857002,0.675,0.08510638,-3067.7778,1295.2018,-0.035353284,-0.0115067065,0.021229744,0.0,0.0,0.0
1020.6456,718.67554,71857053,0.2375,0.10638297,-3067.7778,1295.2018,-0.035353284,-0.0115067065,0.021229744,0.0,0.0,0.0
