x,y,timestamp,pressure,fingerarea,velocityx,velocityy,accelx,accely,accelz,gyrox,gyroy,gyroz
251.39603,226.4447,98479826,1.275,0.12765957,0.0,0.0,-0.046385705,0.05942273,-0.07339764,-1.224621E-4,2.0410349E-5,0.0
251.39603,226.4447,98479858,1.4250001,0.14893617,-0.00399252,-0.004614794,-0.046385705,0.05942273,-0.07339764,-1.224621E-4,2.0410349E-5,0.0
251.39603,226.4447,98479875,1.275,0.12765957,9.916084E-4,4.140831E-4,-0.046385705,0.05942273,-0.07339764,1.0610839E-5,0.0,0.0
251.39603,226.4447,98479892,1.0375,0.12765957,-7.578604E-5,1.3875122E-4,-0.046385705,0.05942273,-0.07339764,1.0610839E-5,0.0,0.0
245.5364,261.16443,98479908,0.9375,0.08510638,-176.2867,1044.4946,-0.046385705,0.05942273,-0.07339764,1.0610839E-5,0.0,0.0
241.5816,277.62024,98479925,0.95,0.10638297,-305.28033,1647.1061,-0.046385705,0.05942273,-0.07339764,1.0610839E-5,0.0,0.0
235.20209,313.20386,98479942,0.9375,0.08510638,-450.8479,2419.4897,-0.046385705,0.05942273,-0.07339764,-8.7176915E-5,1.7435385E-5,0.0
226.34674,343.91418,98479958,0.9375,0.10638297,-574.60376,2574.103,-0.046385705,0.05942273,-0.07339764,-8.7176915E-5,1.7435385E-5,0.0
216.53946,377.02075,98479975,0.95,0.08510638,-654.81866,2247.9736,-0.046385705,0.05942273,-0.07339764,-8.7176915E-5,1.7435385E-5,0.0
204.20987,408.66736,98479992,0.95,0.12765957,-740.72723,1980.3765,-0.046385705,0.05942273,-0.07339764,-8.7176915E-5,1.7435385E-5,0.0
189.43777,434.16504,98480008,0.975,0.08510638,-916.6196,1783.1593,-0.046385705,0.05942273,-0.07339764,-2.7052412E-5,0.0,0.0
171.89183,458.08948,98480025,0.975,0.12765957,-1068.1077,1442.0273,-0.046385705,0.05942273,-0.07339764,-2.7052412E-5,0.0,0.0
149.42982,483.1056,98480042,1.0,0.09574468,-1303.0433,1249.0808,-0.046385705,0.05942273,-0.07339764,-2.7052412E-5,0.0,0.0
126.966385,499.19666,98480059,1.0375,0.10638297,-1533.1176,1081.7797,-0.046385705,0.05942273,-0.07339764,-2.7052412E-5,0.0,0.0
108.826706,506.51636,98480075,1.1,0.14893617,-1436.8962,617.79596,-0.046385705,0.05942273,-0.07339764,-0.0,0.0,0.0
92.90648,508.23242,98480092,1.15,0.12765957,-1179.7576,68.140945,-0.046385705,0.05942273,-0.07339764,-0.0,0.0,0.0
81.80934,505.91748,98480109,1.2,0.10638297,-763.68286,-463.66452,-0.046385705,0.05942273,-0.07339764,-0.0,0.0,0.0
73.55409,495.83923,98480125,1.2,0.10638297,-398.56503,-810.4532,-0.046385705,0.05942273,-0.07339764,-0.0,0.0,0.0
67.37056,480.44836,98480142,1.1875,0.10638297,-214.81546,-1103.0094,0.06689143,0.063538074,0.053281784,-3.0198984E-5,0.0,0.0
66.93138,468.6715,98480159,1.15,0.10638297,1.050951,-1202.9124,0.06689143,0.063538074,0.053281784,-3.0198984E-5,0.0,0.0
69.2908,461.79675,98480176,1.15,0.12765957,238.7457,-925.6398,0.06689143,0.063538074,0.053281784,-3.0198984E-5,0.0,0.0
73.87137,458.66455,98480192,1.2125,0.12765957,446.326,-358.76157,0.06689143,0.063538074,0.053281784,-3.0198984E-5,0.0,0.0
80.52774,457.45557,98480209,1.2875,0.14893617,583.0789,86.59392,0.06689143,0.063538074,0.053281784,6.08488E-4,-6.760978E-5,0.0
85.53644,459.04883,98480226,1.275,0.14893617,542.1718,271.13297,0.06689143,0.063538074,0.053281784,6.08488E-4,-6.760978E-5,0.0
91.49747,463.3319,98480242,1.1625,0.12765957,442.02243,353.9218,0.06689143,0.063538074,0.053281784,6.08488E-4,-6.760978E-5,0.0
104.146805,471.4956,98480259,1.0625,0.12765957,532.9769,507.16956,0.06689143,0.063538074,0.053281784,6.08488E-4,-6.760978E-5,0.0
121.77757,482.53467,98480276,1.1125001,0.10638297,922.0865,740.6993,0.06689143,0.063538074,0.053281784,-3.613921E-5,0.0,0.0
141.2332,490.79272,98480293,1.1125001,0.14893617,1306.0779,792.80316,0.06689143,0.063538074,0.053281784,-3.613921E-5,0.0,0.0
165.65619,494.06445,98480309,1.1125001,0.09574468,1636.9015,558.642,0.06689143,0.063538074,0.053281784,-3.613921E-5,0.0,0.0
191.43976,490.76514,98480326,1.075,0.14893617,1759.2062,69.449005,0.06689143,0.063538074,0.053281784,-3.613921E-5,0.0,0.0
218.75543,477.6587,98480343,1.0625,0.11702127,1812.0415,-627.53876,0.06689143,0.063538074,0.053281784,-2.530628E-4,4.2177136E-5,0.0
242.3778,462.66638,98480359,1.0375,0.12765957,1729.8849,-1194.105,0.06689143,0.063538074,0.053281784,-2.530628E-4,4.2177136E-5,0.0
262.5874,448.39722,98480376,1.0375,0.12765957,1393.7372,-1350.0787,0.06689143,0.063538074,0.053281784,-2.530628E-4,4.2177136E-5,0.0
279.84818,432.79175,98480393,1.0500001,0.09574468,1056.4738,-1217.466,0.06689143,0.063538074,0.053281784,-2.530628E-4,4.2177136E-5,0.0
290.47934,420.23242,98480410,1.0625,0.12765957,668.2781,-944.06915,0.06689143,0.063538074,0.053281784,0.0,0.0,0.0
296.37976,411.25623,98480426,1.0875,0.12765957,299.28546,-675.4116,0.06689143,0.063538074,0.053281784,0.0,0.0,0.0
299.21695,406.2129,98480443,1.1125001,0.12765957,-29.062122,-379.92432,0.06689143,0.063538074,0.053281784,0.0,0.0,0.0
299.3804,404.22327,98480460,1.2375001,0.12765957,-242.82208,-38.299915,0.06689143,0.063538074,0.053281784,0.0,0.0,0.0
298.88004,404.1454,98480476,1.4375,0.14893617,-269.98663,164.44637,0.06689143,0.063538074,0.053281784,3.7061996E-5,0.0,0.0
296.74365,405.11536,98480493,1.45,0.12765957,-250.7528,231.45158,0.06689143,0.063538074,0.053281784,3.7061996E-5,0.0,0.0
290.38242,408.88464,98480510,1.3000001,0.12765957,-360.2997,297.2011,0.06689143,0.063538074,0.053281784,3.7061996E-5,0.0,0.0
284.15576,414.56702,98480526,1.0375,0.10638297,-475.44003,389.7672,0.06689143,0.063538074,0.053281784,3.7061996E-5,0.0,0.0
271.398,436.11646,98480543,0.9875,0.11702127,-679.8031,838.90063,0.06689143,0.063538074,0.053281784,7.5029975E-6,0.0,0.0
263.45367,450.81018,98480560,1.0,0.14893617,-767.1495,1230.4377,0.06689143,0.063538074,0.053281784,7.5029975E-6,0.0,0.0
258.40063,468.06873,98480577,0.975,0.11702127,-593.7743,1458.2986,0.06689143,0.063538074,0.053281784,7.5029975E-6,0.0,0.0
258.46204,482.3142,98480593,0.975,0.09574468,-211.532,1252.6832,0.06689143,0.063538074,0.053281784,7.5029975E-6,0.0,0.0
262.19553,493.80334,98480610,0.975,0.11702127,266.73663,816.81976,0.06689143,0.063538074,0.053281784,0.0,0.0,0.0
266.73822,503.3861,98480627,0.9875,0.12765957,540.62537,501.94366,0.06689143,0.063538074,0.053281784,0.0,0.0,0.0
276.4451,514.0249,98480643,1.0500001,0.10638297,659.6098,394.07834,0.06689143,0.063538074,0.053281784,0.0,0.0,0.0
292.44385,522.7876,98480660,1.075,0.10638297,904.0515,452.5848,0.06689143,0.063538074,0.053281784,0.0,0.0,0.0
310.62537,524.9818,98480677,1.1,0.12765957,1222.459,326.92703,-0.018486857,0.0028305054,0.02662468,-3.7664744E-5,1.2554915E-5,0.0
330.3028,520.41125,98480694,1.1,0.11702127,1447.7906,-115.93577,-0.018486857,0.0028305054,0.02662468,-3.7664744E-5,1.2554915E-5,0.0
346.63303,511.12927,98480710,1.0625,0.12765957,1375.9354,-629.6222,-0.018486857,0.0028305054,0.02662468,-3.7664744E-5,1.2554915E-5,0.0
357.58447,497.74683,98480727,1.0625,0.11702127,980.59607,-1045.1237,-0.018486857,0.0028305054,0.02662468,-3.7664744E-5,1.2554915E-5,0.0
367.73843,472.72485,98480744,1.025,0.12765957,584.85944,-1458.1191,-0.018486857,0.0028305054,0.02662468,-1.8981249E-5,0.0,0.0
371.8568,451.8114,98480760,1.0625,0.11702127,240.16588,-1726.2233,-0.018486857,0.0028305054,0.02662468,-1.8981249E-5,0.0,0.0
370.40494,435.98364,98480777,1.1,0.09574468,-112.86678,-1547.0729,-0.018486857,0.0028305054,0.02662468,-1.8981249E-5,0.0,0.0
366.80527,424.01855,98480794,1.1,0.12765957,-377.53647,-1029.6686,-0.018486857,0.0028305054,0.02662468,-1.8981249E-5,0.0,0.0
363.4593,417.2948,98480811,1.1375,0.12765957,-524.7201,-395.4853,-0.018486857,0.0028305054,0.02662468,9.549742E-5,0.0,0.0
360.34802,414.20752,98480827,1.2,0.12765957,-452.1961,32.17889,-0.018486857,0.0028305054,0.02662468,9.549742E-5,0.0,0.0
357.2208,414.5946,98480844,1.2625,0.12765957,-269.18927,195.17958,-0.018486857,0.0028305054,0.02662468,9.549742E-5,0.0,0.0
354.60687,417.92688,98480861,1.325,0.12765957,-170.16766,372.79944,-0.018486857,0.0028305054,0.02662468,9.549742E-5,0.0,0.0
352.90598,423.46313,98480877,1.2875,0.12765957,-120.8459,500.3108,-0.018486857,0.0028305054,0.02662468,7.176049E-4,-6.523681E-5,0.0
352.86298,429.063,98480894,1.0500001,0.10638297,-40.023216,531.91406,-0.018486857,0.0028305054,0.02662468,7.176049E-4,-6.523681E-5,0.0
354.95456,438.40015,98480911,0.96250004,0.12765957,98.12959,599.8792,-0.018486857,0.0028305054,0.02662468,7.176049E-4,-6.523681E-5,0.0
360.98083,457.56873,98480928,0.9875,0.12765957,302.55798,911.066,-0.018486857,0.0028305054,0.02662468,7.176049E-4,-6.523681E-5,0.0
368.5195,472.61218,98480944,1.0125,0.11702127,520.25775,1198.9254,-0.018486857,0.0028305054,0.02662468,0.0,0.0,0.0
376.42532,483.615,98480961,1.0375,0.10638297,627.7353,1128.2386,-0.018486857,0.0028305054,0.02662468,0.0,0.0,0.0
392.83472,495.74756,98480978,1.075,0.10638297,851.1908,905.2341,-0.018486857,0.0028305054,0.02662468,0.0,0.0,0.0
412.86194,501.88367,98480994,1.075,0.12765957,1200.7831,419.96408,-0.018486857,0.0028305054,0.02662468,0.0,0.0,0.0
435.43805,501.2201,98481011,1.0875,0.11702127,1545.0717,57.00562,-0.018486857,0.0028305054,0.02662468,5.0331622E-5,0.0,0.0
457.555,488.64343,98481028,1.0500001,0.11702127,1683.3467,-528.372,-0.018486857,0.0028305054,0.02662468,5.0331622E-5,0.0,0.0
474.35254,471.34106,98481045,1.0125,0.14893617,1408.1589,-1291.8578,-0.018486857,0.0028305054,0.02662468,5.0331622E-5,0.0,0.0
489.97906,449.00342,98481061,1.0125,0.10638297,1020.31854,-1734.9336,-0.018486857,0.0028305054,0.02662468,5.0331622E-5,0.0,0.0
510.13495,406.8927,98481078,1.0375,0.12765957,926.7455,-2375.2332,-0.018486857,0.0028305054,0.02662468,-4.7453127E-6,0.0,0.0
522.6801,367.32703,98481095,1.0125,0.11702127,847.62854,-2840.2473,-0.018486857,0.0028305054,0.02662468,-4.7453127E-6,0.0,0.0
532.03644,326.6161,98481111,1.0,0.11702127,665.5743,-3056.4897,-0.018486857,0.0028305054,0.02662468,-4.7453127E-6,0.0,0.0
536.57526,286.46436,98481128,1.025,0.09574468,325.11572,-2950.246,-0.018486857,0.0028305054,0.02662468,-4.7453127E-6,0.0,0.0
537.3029,248.36646,98481145,1.025,0.14893617,-76.51799,-2487.9243,-0.018486857,0.0028305054,0.02662468,0.0,0.0,0.0
535.3437,225.84155,98481161,1.0500001,0.09574468,-316.33075,-1811.6702,-0.018486857,0.0028305054,0.02662468,0.0,0.0,0.0
531.5086,206.91455,98481178,1.0500001,0.12765957,-431.02524,-1138.7987,-0.018486857,0.0028305054,0.02662468,0.0,0.0,0.0
527.3752,194.58118,98481195,1.1,0.14893617,-433.81018,-512.4657,-0.018486857,0.0028305054,0.02662468,0.0,0.0,0.0
523.7412,189.95728,98481212,1.1375,0.12765957,-381.34955,-64.15564,-0.21478942,-0.14973569,-0.02670002,4.074052E-4,-4.5267243E-5,0.0
518.7602,188.23901,98481228,1.2125,0.12765957,-324.67975,234.70462,-0.21478942,-0.14973569,-0.02670002,4.074052E-4,-4.5267243E-5,0.0
514.9153,189.7472,98481245,1.2625,0.12765957,-277.34412,409.57434,-0.21478942,-0.14973569,-0.02670002,4.074052E-4,-4.5267243E-5,0.0
511.27856,195.8789,98481262,1.2625,0.12765957,-239.81761,539.53815,-0.21478942,-0.14973569,-0.02670002,4.074052E-4,-4.5267243E-5,0.0
509.39514,204.53003,98481278,1.2,0.12765957,-168.91563,672.33716,-0.21478942,-0.14973569,-0.02670002,4.2707805E-5,0.0,0.0
508.34387,217.94446,98481295,1.0,0.09574468,-64.2032,854.94196,-0.21478942,-0.14973569,-0.02670002,4.2707805E-5,0.0,0.0
504.7611,246.61328,98481312,0.975,0.09574468,-73.56796,1438.5281,-0.21478942,-0.14973569,-0.02670002,4.2707805E-5,0.0,0.0
501.6411,277.74194,98481329,0.975,0.10638297,-146.24069,2100.4805,-0.21478942,-0.14973569,-0.02670002,4.2707805E-5,0.0,0.0
500.81482,320.1886,98481345,0.975,0.08510638,-149.28032,2715.8044,-0.21478942,-0.14973569,-0.02670002,-4.336686E-4,5.4208576E-5,0.0
500.81482,358.85095,98481362,0.95,0.09574468,-69.1147,2947.3,-0.21478942,-0.14973569,-0.02670002,-4.336686E-4,5.4208576E-5,0.0
501.31464,391.74548,98481379,0.95,0.10638297,57.0434,2682.7222,-0.21478942,-0.14973569,-0.02670002,-4.336686E-4,5.4208576E-5,0.0
501.31464,426.89233,98481395,0.96250004,0.08510638,107.19093,2320.6538,-0.21478942,-0.14973569,-0.02670002,-4.336686E-4,5.4208576E-5,0.0
501.05768,448.74646,98481412,0.95,0.10638297,41.30217,1621.1594,-0.21478942,-0.14973569,-0.02670002,4.2443335E-5,0.0,0.0
499.71832,466.49866,98481429,0.96250004,0.09574468,-44.233536,1010.39856,-0.21478942,-0.14973569,-0.02670002,4.2443335E-5,0.0,0.0
498.48352,475.21887,98481446,0.9875,0.08510638,-101.786095,376.88342,-0.21478942,-0.14973569,-0.02670002,4.2443335E-5,0.0,0.0
497.44604,479.2057,98481462,1.0625,0.10638297,-111.83032,-83.94989,-0.21478942,-0.14973569,-0.02670002,4.2443335E-5,0.0,0.0
496.4267,480.55664,98481479,1.2625,0.12765957,-87.64068,-301.93472,-0.21478942,-0.14973569,-0.02670002,4.7453127E-6,0.0,0.0
496.31628,476.53687,98481496,1.4125,0.12765957,-38.26232,-454.7829,-0.21478942,-0.14973569,-0.02670002,4.7453127E-6,0.0,0.0
496.326,455.92053,98481512,1.1750001,0.12765957,13.04285,-881.23987,-0.21478942,-0.14973569,-0.02670002,4.7453127E-6,0.0,0.0
503.76416,429.66675,98481529,1.0,0.10638297,212.92238,-1680.5634,-0.21478942,-0.14973569,-0.02670002,4.7453127E-6,0.0,0.0
513.8185,406.79675,98481546,0.95,0.08510638,577.32837,-2140.0698,-0.21478942,-0.14973569,-0.02670002,2.337032E-4,-3.338617E-5,0.0
528.32904,384.08484,98481563,0.975,0.11702127,943.1901,-2025.2004,-0.21478942,-0.14973569,-0.02670002,2.337032E-4,-3.338617E-5,0.0
545.5324,361.62402,98481579,0.975,0.12765957,1198.7533,-1573.9661,-0.21478942,-0.14973569,-0.02670002,2.337032E-4,-3.338617E-5,0.0
560.6169,349.40955,98481596,0.9875,0.12765957,1231.2803,-984.6726,-0.21478942,-0.14973569,-0.02670002,2.337032E-4,-3.338617E-5,0.0
571.0092,347.28113,98481613,1.025,0.12765957,931.378,-326.76385,-0.21478942,-0.14973569,-0.02670002,-2.5465977E-4,3.183247E-5,0.0
577.6522,348.9359,98481629,1.075,0.14893617,559.89044,234.56137,-0.21478942,-0.14973569,-0.02670002,-2.5465977E-4,3.183247E-5,0.0
580.6949,353.87036,98481646,1.075,0.12765957,139.65097,693.5668,-0.21478942,-0.14973569,-0.02670002,-2.5465977E-4,3.183247E-5,0.0
582.6464,363.53955,98481663,1.0625,0.12765957,-117.31751,876.93774,-0.21478942,-0.14973569,-0.02670002,-2.5465977E-4,3.183247E-5,0.0
582.38727,377.14795,98481679,1.0125,0.11702127,-187.61229,983.1853,-0.21478942,-0.14973569,-0.02670002,4.7453127E-6,0.0,0.0
579.0701,389.94458,98481696,1.0125,0.12765957,-252.13492,1044.4868,-0.21478942,-0.14973569,-0.02670002,4.7453127E-6,0.0,0.0
571.95953,403.88965,98481713,0.975,0.10638297,-412.5788,1048.4293,-0.21478942,-0.14973569,-0.02670002,4.7453127E-6,0.0,0.0
560.0031,419.60974,98481730,0.9875,0.10638297,-714.4861,1007.0205,-0.067831546,0.1762116,-0.03736019,0.0,-0.0,0.0
544.8361,434.37988,98481746,1.0,0.11702127,-1017.57556,968.75134,-0.067831546,0.1762116,-0.03736019,0.0,-0.0,0.0
529.3094,445.0774,98481763,1.075,0.12765957,-1187.7516,847.7329,-0.067831546,0.1762116,-0.03736019,0.0,-0.0,0.0
516.6042,449.9641,98481780,1.1625,0.11702127,-1105.9242,518.72406,-0.067831546,0.1762116,-0.03736019,0.0,-0.0,0.0
508.4856,450.34753,98481796,1.1875,0.11702127,-780.68964,57.85948,-0.067831546,0.1762116,-0.03736019,0.0,0.0,0.0
504.6444,449.95117,98481813,1.2375001,0.11702127,-347.721,-270.31842,-0.067831546,0.1762116,-0.03736019,0.0,0.0,0.0
502.55176,448.99255,98481830,1.25,0.11702127,31.671583,-335.77533,-0.067831546,0.1762116,-0.03736019,0.0,0.0,0.0
501.8145,448.57056,98481847,1.2625,0.11702127,159.68767,-214.04678,-0.067831546,0.1762116,-0.03736019,0.0,0.0,0.0
502.49176,448.57056,98481863,1.325,0.11702127,182.58965,-72.591125,-0.067831546,0.1762116,-0.03736019,3.613921E-5,0.0,0.0
507.40466,448.57056,98481880,1.3000001,0.12765957,259.3824,0.64033556,-0.067831546,0.1762116,-0.03736019,3.613921E-5,0.0,0.0
515.03375,447.8545,98481897,1.15,0.12765957,464.81512,12.653162,-0.067831546,0.1762116,-0.03736019,3.613921E-5,0.0,0.0
540.88776,449.29688,98481913,0.975,0.12765957,1028.0085,10.0709,-0.067831546,0.1762116,-0.03736019,3.613921E-5,0.0,0.0
573.88495,452.1294,98481930,1.0500001,0.14893617,2018.471,119.54728,-0.067831546,0.1762116,-0.03736019,-2.164193E-4,2.7052412E-5,0.0
608.64667,450.18005,98481947,1.0375,0.09574468,2663.6616,85.68975,-0.067831546,0.1762116,-0.03736019,-2.164193E-4,2.7052412E-5,0.0
646.9549,443.61157,98481964,1.0,0.12765957,2879.7312,-172.78575,-0.067831546,0.1762116,-0.03736019,-2.164193E-4,2.7052412E-5,0.0
676.3798,433.02283,98481980,0.975,0.12765957,2478.788,-571.38007,-0.067831546,0.1762116,-0.03736019,-2.164193E-4,2.7052412E-5,0.0
702.23346,420.37878,98481997,0.95,0.12765957,1795.7548,-920.3972,-0.067831546,0.1762116,-0.03736019,6.0023962E-5,0.0,0.0
717.94293,410.36584,98482014,1.0,0.11702127,1190.6414,-972.312,-0.067831546,0.1762116,-0.03736019,6.0023962E-5,0.0,0.0
725.965,402.406,98482030,1.0,0.10638297,436.42014,-716.4057,-0.067831546,0.1762116,-0.03736019,6.0023962E-5,0.0,0.0
729.5231,393.6371,98482047,1.0375,0.10638297,-78.84667,-503.64163,-0.067831546,0.1762116,-0.03736019,6.0023962E-5,0.0,0.0
727.28864,387.0238,98482064,1.1375,0.10638297,-465.13147,-378.98508,-0.067831546,0.1762116,-0.03736019,3.183252E-5,0.0,0.0
721.83685,383.3767,98482081,1.1875,0.10638297,-651.13165,-235.99864,-0.067831546,0.1762116,-0.03736019,3.183252E-5,0.0,0.0
713.5866,381.93274,98482097,1.2,0.12765957,-740.8871,-87.43416,-0.067831546,0.1762116,-0.03736019,3.183252E-5,0.0,0.0
705.7896,384.32336,98482114,1.2,0.12765957,-757.2267,139.39229,-0.067831546,0.1762116,-0.03736019,3.183252E-5,0.0,0.0
697.93243,388.91968,98482131,1.1375,0.14893617,-666.5276,364.22302,-0.067831546,0.1762116,-0.03736019,9.678568E-5,0.0,0.0
689.5283,394.54956,98482147,1.025,0.11702127,-567.3907,480.77115,-0.067831546,0.1762116,-0.03736019,9.678568E-5,0.0,0.0
677.4848,405.8346,98482164,1.0,0.10638297,-626.8771,675.73505,-0.067831546,0.1762116,-0.03736019,9.678568E-5,0.0,0.0
666.33594,427.5028,98482181,1.0,0.09574468,-714.4792,1067.32,-0.067831546,0.1762116,-0.03736019,9.678568E-5,0.0,0.0
663.3236,439.72583,98482198,0.95,0.10638297,-563.4662,1268.5463,-0.067831546,0.1762116,-0.03736019,-7.5029975E-6,0.0,0.0
663.26196,456.40906,98482214,0.925,0.10638297,-180.76299,1264.3219,-0.067831546,0.1762116,-0.03736019,-7.5029975E-6,0.0,0.0
669.3474,475.29846,98482231,0.95,0.08510638,395.246,1151.746,-0.067831546,0.1762116,-0.03736019,-7.5029975E-6,0.0,0.0
675.79865,488.1632,98482248,0.9875,0.09574468,690.914,975.567,-0.067831546,0.1762116,-0.03736019,-7.5029975E-6,0.0,0.0
683.7446,496.00903,98482264,1.025,0.12765957,722.5889,663.2042,0.041734755,-0.043030977,-0.013887405,0.0,0.0,0.0
696.00696,502.7373,98482281,1.0375,0.12765957,768.8006,321.37985,0.041734755,-0.043030977,-0.013887405,0.0,0.0,0.0
709.8579,504.54614,98482298,1.075,0.10638297,883.0148,-27.30648,0.041734755,-0.043030977,-0.013887405,0.0,0.0,0.0
722.72723,502.3728,98482314,1.0500001,0.11702127,970.1236,-203.6953,0.041734755,-0.043030977,-0.013887405,0.0,0.0,0.0
732.48834,491.66467,98482331,1.025,0.12765957,876.3551,-536.75885,0.041734755,-0.043030977,-0.013887405,0.0,0.0,0.0
741.8109,467.87146,98482348,1.0,0.12765957,615.0769,-1294.8945,0.041734755,-0.043030977,-0.013887405,0.0,0.0,0.0
745.31213,447.8186,98482365,1.0,0.09574468,306.74387,-1737.768,0.041734755,-0.043030977,-0.013887405,0.0,0.0,0.0
744.6529,426.37402,98482381,1.0125,0.12765957,-27.60211,-1811.219,0.041734755,-0.043030977,-0.013887405,0.0,0.0,0.0
742.387,405.63098,98482398,1.025,0.12765957,-283.10855,-1614.2192,0.041734755,-0.043030977,-0.013887405,0.0,0.0,0.0
740.37244,392.1056,98482415,1.0375,0.09574468,-390.72418,-1117.916,0.041734755,-0.043030977,-0.013887405,0.0,0.0,0.0
739.5308,385.2754,98482431,1.0625,0.09574468,-312.82104,-595.4439,0.041734755,-0.043030977,-0.013887405,0.0,0.0,0.0
738.73737,382.8213,98482448,1.1375,0.11702127,-98.68978,-52.652596,0.041734755,-0.043030977,-0.013887405,0.0,0.0,0.0
739.02264,383.83557,98482465,1.2875,0.12765957,5.1176934,320.42197,0.041734755,-0.043030977,-0.013887405,8.164123E-5,0.0,0.0
740.04645,387.47522,98482482,1.325,0.12765957,79.34617,469.984,0.041734755,-0.043030977,-0.013887405,8.164123E-5,0.0,0.0
741.0563,391.63342,98482498,1.2,0.12765957,106.418,500.85175,0.041734755,-0.043030977,-0.013887405,8.164123E-5,0.0,0.0
747.03265,408.47668,98482515,1.0,0.12765957,212.90254,728.3453,0.041734755,-0.043030977,-0.013887405,8.164123E-5,0.0,0.0
758.8373,432.64453,98482532,1.0125,0.11702127,527.10223,1302.7965,0.041734755,-0.043030977,-0.013887405,-2.0233032E-4,3.372172E-5,0.0
769.16016,447.58423,98482548,1.0125,0.10638297,805.944,1584.5282,0.041734755,-0.043030977,-0.013887405,-2.0233032E-4,3.372172E-5,0.0
785.2734,466.99353,98482565,1.025,0.10638297,1071.4209,1535.8593,0.041734755,-0.043030977,-0.013887405,-2.0233032E-4,3.372172E-5,0.0
799.60284,480.40222,98482582,1.025,0.12765957,1117.7617,1135.0079,0.041734755,-0.043030977,-0.013887405,-2.0233032E-4,3.372172E-5,0.0
815.95905,488.44067,98482599,1.0375,0.10638297,1082.1531,603.87946,0.041734755,-0.043030977,-0.013887405,6.0023962E-5,0.0,0.0
832.65967,488.35193,98482615,1.025,0.11702127,1087.3668,144.88513,0.041734755,-0.043030977,-0.013887405,6.0023962E-5,0.0,0.0
845.7511,479.37097,98482632,1.0,0.14893617,974.8702,-488.80716,0.041734755,-0.043030977,-0.013887405,6.0023962E-5,0.0,0.0
856.8035,464.3777,98482649,0.975,0.12765957,764.402,-1149.3011,0.041734755,-0.043030977,-0.013887405,6.0023962E-5,0.0,0.0
870.42285,429.18164,98482665,0.95,0.11702127,634.5858,-1950.2986,0.041734755,-0.043030977,-0.013887405,2.0410349E-5,0.0,0.0
877.7258,392.90027,98482682,0.975,0.10638297,510.22708,-2685.3232,0.041734755,-0.043030977,-0.013887405,2.0410349E-5,0.0,0.0
881.13666,352.96008,98482699,0.9375,0.12765957,283.84003,-3009.431,0.041734755,-0.043030977,-0.013887405,2.0410349E-5,0.0,0.0
881.191,312.06165,98482716,0.975,0.08510638,-14.727726,-2951.837,0.041734755,-0.043030977,-0.013887405,2.0410349E-5,0.0,0.0
879.3926,274.97266,98482732,0.975,0.08510638,-291.26535,-2635.1055,0.041734755,-0.043030977,-0.013887405,2.4196437E-5,0.0,0.0
877.81036,237.40942,98482749,0.9875,0.12765957,-355.3169,-2285.857,0.041734755,-0.043030977,-0.013887405,2.4196437E-5,0.0,0.0
875.1585,210.91174,98482766,0.9875,0.12765957,-283.47885,-1934.4563,0.041734755,-0.043030977,-0.013887405,2.4196437E-5,0.0,0.0
874.13837,190.02588,98482782,0.9875,0.12765957,-191.03746,-1364.9661,0.041734755,-0.043030977,-0.013887405,2.4196437E-5,0.0,0.0
872.6096,179.49426,98482799,1.025,0.09574468,-111.62404,-669.7904,-0.03061217,-0.16242504,-0.05911064,0.0,0.0,0.0
872.1939,176.68848,98482816,1.0875,0.11702127,-48.439747,-7.9745736,-0.03061217,-0.16242504,-0.05911064,0.0,0.0,0.0
872.1939,176.68848,98482832,1.2375001,0.12765957,11.325313,470.11807,-0.03061217,-0.16242504,-0.05911064,0.0,0.0,0.0
872.1939,179.23279,98482849,1.325,0.14893617,36.110085,602.69025,-0.03061217,-0.16242504,-0.05911064,0.0,0.0,0.0
873.20435,187.88062,98482866,1.125,0.12765957,60.522125,610.65375,-0.03061217,-0.16242504,-0.05911064,-1.224621E-4,0.0,0.0
877.32043,216.57996,98482883,1.025,0.10638297,162.63612,1277.9916,-0.03061217,-0.16242504,-0.05911064,-1.224621E-4,0.0,0.0
882.5275,254.75134,98482899,1.0,0.12765957,314.21503,2301.6768,-0.03061217,-0.16242504,-0.05911064,-1.224621E-4,0.0,0.0
888.9446,293.0067,98482916,0.9875,0.10638297,449.89014,3001.0251,-0.03061217,-0.16242504,-0.05911064,-1.224621E-4,0.0,0.0
895.4818,329.72668,98482933,0.9875,0.09574468,511.44672,3090.9683,-0.03061217,-0.16242504,-0.05911064,1.6441657E-4,0.0,0.0
903.78076,367.75476,98482949,0.975,0.12765957,521.4064,2643.806,-0.03061217,-0.16242504,-0.05911064,1.6441657E-4,0.0,0.0
910.2063,393.56482,98482966,0.96250004,0.14893617,480.86432,1938.6906,-0.03061217,-0.16242504,-0.05911064,1.6441657E-4,0.0,0.0
917.9695,417.3954,98482983,0.96250004,0.11702127,480.01712,1447.8981,-0.03061217,-0.16242504,-0.05911064,1.6441657E-4,0.0,0.0
923.5198,427.85522,98483000,0.925,0.08510638,421.26303,794.2796,-0.03061217,-0.16242504,-0.05911064,4.0768195E-4,-3.7061996E-5,0.0
929.8877,435.19873,98483016,0.9125,0.09574468,366.09183,206.6365,-0.03061217,-0.16242504,-0.05911064,4.0768195E-4,-3.7061996E-5,0.0
943.7052,440.5299,98483033,0.7,0.10638297,521.00775,-148.84456,-0.03061217,-0.16242504,-0.05911064,4.0768195E-4,-3.7061996E-5,0.0
954.16724,439.68542,98483039,0.275,0.11702127,717.3802,-213.73708,-0.03061217,-0.16242504,-0.05911064,4.0768195E-4,-3.7061996E-5,0.0
954.16724,439.68542,98483046,0.275,0.11702127,717.3802,-213.73708,-0.03061217,-0.16242504,-0.05911064,4.0768195E-4,-3.7061996E-5,0.0
832.207,311.74097,98483199,1.2,0.12765957,0.0,0.0,-0.03061217,-0.16242504,-0.05911064,-1.4529473E-4,2.9058947E-5,0.0
832.207,311.74097,98483217,1.3375,0.12765957,0.54022944,0.19548708,-0.03061217,-0.16242504,-0.05911064,-3.0198984E-5,0.0,0.0
832.207,311.74097,98483234,1.3375,0.12765957,-0.010314534,-0.0060650236,-0.03061217,-0.16242504,-0.05911064,-3.0198984E-5,0.0,0.0
861.4093,316.6848,98483250,0.975,0.12765957,1670.3567,282.8013,-0.03061217,-0.16242504,-0.05911064,-3.0198984E-5,0.0,0.0
890.7745,327.73987,98483267,0.9875,0.10638297,2511.062,684.3416,-0.03061217,-0.16242504,-0.05911064,-1.4432285E-4,0.0,0.0
928.6746,340.33936,98483284,0.9375,0.12765957,2976.705,943.112,-0.03061217,-0.16242504,-0.05911064,1.07426495E-4,0.0,0.0
969.81506,349.66504,98483300,0.875,0.14893617,3115.6934,960.26996,-0.03061217,-0.16242504,-0.05911064,1.07426495E-4,0.0,0.0
1006.20166,361.39148,98483317,0.6875,0.10638297,2856.0503,834.4908,-0.03061217,-0.16242504,-0.05911064,1.07426495E-4,0.0,0.0
1011.64856,363.27417,98483319,0.2875,0.12765957,2804.1836,826.76917,-0.03061217,-0.16242504,-0.05911064,1.07426495E-4,0.0,0.0
1011.64856,363.27417,98483327,0.2875,0.12765957,2804.1836,826.76917,-0.03061217,-0.16242504,-0.05911064,1.07426495E-4,0.0,0.0
1058.1334,355.2777,98483480,0.975,0.10638297,0.0,0.0,-0.08848971,0.10206008,-0.031288147,-5.3687072E-5,0.0,0.0
1058.1334,355.2777,98483501,1.1375,0.12765957,0.025963197,0.006817012,-0.08848971,0.10206008,-0.031288147,-5.3687072E-5,0.0,0.0
1058.1334,355.2777,98483518,1.1375,0.12765957,-6.0641975E-4,-0.0013612901,-0.08848971,0.10206008,-0.031288147,-5.3687072E-5,0.0,0.0
1058.1334,355.2777,98483534,0.95,0.12765957,-0.01056843,-0.001993427,-0.08848971,0.10206008,-0.031288147,-5.3687072E-5,0.0,0.0
1040.2935,376.95874,98483551,0.83750004,0.11702127,-720.4084,874.2378,-0.08848971,0.10206008,-0.031288147,4.2707805E-5,0.0,0.0
1024.1666,403.9242,98483568,0.8125,0.14893617,-1153.9745,1568.8032,-0.08848971,0.10206008,-0.031288147,4.2707805E-5,0.0,0.0
1016.6874,427.10217,98483584,0.7875,0.08510638,-1248.4163,2214.6072,-0.08848971,0.10206008,-0.031288147,4.2707805E-5,0.0,0.0
1013.1135,445.24133,98483601,0.8,0.11702127,-705.76105,1911.5713,-0.08848971,0.10206008,-0.031288147,4.2707805E-5,0.0,0.0
1014.28784,466.6975,98483618,0.83750004,0.08510638,2.6025846,1451.3636,-0.08848971,0.10206008,-0.031288147,1.7083103E-4,0.0,0.0
1017.48364,481.06555,98483635,0.875,0.09574468,488.97488,930.96643,-0.08848971,0.10206008,-0.031288147,1.7083103E-4,0.0,0.0
1020.45605,486.43945,98483651,0.9125,0.11702127,528.06177,476.0316,-0.08848971,0.10206008,-0.031288147,1.7083103E-4,0.0,0.0
1028.6846,493.09656,98483668,0.975,0.10638297,514.7931,198.9162,-0.08848971,0.10206008,-0.031288147,1.7083103E-4,0.0,0.0
1041.019,496.94336,98483685,1.0,0.10638297,696.67554,-77.40877,-0.08848971,0.10206008,-0.031288147,-4.885594E-5,0.0,0.0
1051.996,494.68518,98483701,0.9875,0.10638297,876.0666,-148.00314,-0.08848971,0.10206008,-0.031288147,-4.885594E-5,0.0,0.0
1060.2926,485.26318,98483718,0.925,0.10638297,830.5139,-457.05307,-0.08848971,0.10206008,-0.031288147,-4.885594E-5,0.0,0.0
1070.0492,462.52332,98483735,0.9375,0.14893617,640.507,-1173.1663,-0.08848971,0.10206008,-0.031288147,-4.885594E-5,0.0,0.0
1074.3867,439.13367,98483752,0.9375,0.09574468,365.36853,-1809.7839,-0.08848971,0.10206008,-0.031288147,-5.533931E-5,0.0,0.0
1072.9259,411.45776,98483768,0.975,0.12765957,52.376163,-2111.4624,-0.08848971,0.10206008,-0.031288147,-5.533931E-5,0.0,0.0
1067.3547,390.49866,98483785,0.9875,0.09574468,-330.22742,-1938.6233,-0.08848971,0.10206008,-0.031288147,-5.533931E-5,0.0,0.0
1061.0278,379.08118,98483802,1.0,0.10638297,-637.0221,-1191.7996,-0.08848971,0.10206008,-0.031288147,-5.533931E-5,0.0,0.0
1053.2196,368.0515,98483818,1.0375,0.12765957,-734.1564,-574.7272,-0.08848971,0.10206008,-0.031288147,-1.38348405E-5,0.0,0.0
1046.0729,360.99573,98483835,1.075,0.12765957,-643.5962,-197.93947,-0.08848971,0.10206008,-0.031288147,-1.38348405E-5,0.0,0.0
1041.0513,360.60864,98483852,1.1125001,0.12765957,-470.86804,84.86688,-0.08848971,0.10206008,-0.031288147,-1.38348405E-5,0.0,0.0
1038.7292,362.75037,98483869,1.1,0.12765957,-251.3432,265.28207,-0.08848971,0.10206008,-0.031288147,-1.38348405E-5,0.0,0.0
1036.6404,367.55774,98483885,1.0875,0.12765957,-79.67509,478.36667,0.05720818,-0.07035184,0.10296917,5.513527E-4,-5.513527E-5,0.0
1037.6488,371.28613,98483902,1.0375,0.10638297,89.37921,526.2074,0.05720818,-0.07035184,0.10296917,5.513527E-4,-5.513527E-5,0.0
1039.7268,374.09167,98483919,1.0125,0.10638297,191.02956,357.79865,0.05720818,-0.07035184,0.10296917,5.513527E-4,-5.513527E-5,0.0
1043.9521,378.95166,98483935,0.9375,0.09574468,285.94724,257.34274,0.05720818,-0.07035184,0.10296917,5.513527E-4,-5.513527E-5,0.0
1054.8027,386.90027,98483952,0.975,0.10638297,536.56195,340.78583,0.05720818,-0.07035184,0.10296917,-0.0,0.0,0.0
1071.0947,395.46716,98483969,1.0125,0.14893617,925.6268,535.5527,0.05720818,-0.07035184,0.10296917,-0.0,0.0,0.0
1089.6631,399.5232,98483985,0.9875,0.12765957,1289.7725,540.0331,0.05720818,-0.07035184,0.10296917,-0.0,0.0,0.0
1106.5448,397.9419,98484002,0.975,0.11702127,1441.0216,232.4177,0.05720818,-0.07035184,0.10296917,-0.0,0.0,0.0
1123.2347,388.62598,98484019,0.925,0.12765957,1254.3341,-402.269,0.05720818,-0.07035184,0.10296917,1.710946E-5,0.0,0.0
1134.8145,375.62598,98484036,0.9375,0.12765957,933.1996,-941.01245,0.05720818,-0.07035184,0.10296917,1.710946E-5,0.0,0.0
1144.334,354.88647,98484052,0.95,0.12765957,590.8167,-1352.2849,0.05720818,-0.07035184,0.10296917,1.710946E-5,0.0,0.0
1145.7849,339.06848,98484069,0.975,0.09574468,190.74086,-1468.6134,0.05720818,-0.07035184,0.10296917,1.710946E-5,0.0,0.0
1143.6388,321.33728,98484086,0.975,0.11702127,-199.92708,-1382.2869,0.05720818,-0.07035184,0.10296917,-4.885594E-5,0.0,0.0
1138.9335,307.51575,98484102,1.0125,0.14893617,-505.76068,-1071.1582,0.05720818,-0.07035184,0.10296917,-4.885594E-5,0.0,0.0
1134.2778,297.8258,98484119,1.0500001,0.12765957,-589.90845,-735.0651,0.05720818,-0.07035184,0.10296917,-4.885594E-5,0.0,0.0
1129.2725,292.88245,98484136,1.075,0.12765957,-506.45013,-320.3611,0.05720818,-0.07035184,0.10296917,-4.885594E-5,0.0,0.0
1123.903,291.30542,98484153,1.1125001,0.12765957,-395.64307,36.233723,0.05720818,-0.07035184,0.10296917,3.3888244E-4,-3.3888246E-5,0.0
1120.3268,291.30542,98484169,1.1875,0.12765957,-308.95197,257.09262,0.05720818,-0.07035184,0.10296917,3.3888244E-4,-3.3888246E-5,0.0
1118.2662,292.81165,98484186,1.2375001,0.12765957,-182.25691,302.26138,0.05720818,-0.07035184,0.10296917,3.3888244E-4,-3.3888246E-5,0.0
1117.614,296.54163,98484203,1.2625,0.12765957,-52.359573,311.53003,0.05720818,-0.07035184,0.10296917,3.3888244E-4,-3.3888246E-5,0.0
1119.0846,299.2505,98484219,1.1875,0.12765957,107.59671,322.08905,0.05720818,-0.07035184,0.10296917,3.6489475E-4,-4.0543862E-5,0.0
1124.0354,309.047,98484236,0.8875,0.09574468,273.46353,443.5386,0.05720818,-0.07035184,0.10296917,3.6489475E-4,-4.0543862E-5,0.0
1132.8224,325.26672,98484253,0.90000004,0.12765957,520.8557,862.1011,0.05720818,-0.07035184,0.10296917,3.6489475E-4,-4.0543862E-5,0.0
1146.3766,358.68286,98484270,0.90000004,0.10638297,830.1268,1640.1921,0.05720818,-0.07035184,0.10296917,-1.90818E-4,2.7259714E-5,0.0
1154.853,382.15808,98484286,0.925,0.10638297,884.0556,2070.869,0.05720818,-0.07035184,0.10296917,-1.90818E-4,2.7259714E-5,0.0
1158.2671,401.77417,98484303,0.90000004,0.10638297,624.60443,1919.7446,0.05720818,-0.07035184,0.10296917,-1.90818E-4,2.7259714E-5,0.0
1158.078,422.11816,98484320,0.90000004,0.08510638,81.96372,1350.973,0.05720818,-0.07035184,0.10296917,-1.90818E-4,2.7259714E-5,0.0
1154.9095,436.64417,98484336,0.9375,0.10638297,-311.84283,927.57526,0.05720818,-0.07035184,0.10296917,2.3726541E-5,0.0,0.0
1150.2437,445.9402,98484353,0.925,0.12765957,-500.8466,611.0733,0.05720818,-0.07035184,0.10296917,2.3726541E-5,0.0,0.0
1142.7054,454.5929,98484370,0.95,0.12765957,-580.7624,300.984,0.05720818,-0.07035184,0.10296917,2.3726541E-5,0.0,0.0
1132.8827,461.43982,98484387,1.0,0.12765957,-676.0412,130.30428,0.05720818,-0.07035184,0.10296917,2.3726541E-5,0.0,0.0
1123.4705,464.484,98484403,1.0625,0.11702127,-720.60016,102.91585,0.045766532,0.2797184,-0.013624191,0.0012971801,-1.3654526E-4,0.0
1115.6864,464.5636,98484420,1.0875,0.11702127,-684.1435,-4.7964215,0.045766532,0.2797184,-0.013624191,0.0012971801,-1.3654526E-4,0.0
1110.9414,462.70886,98484437,1.0875,0.11702127,-452.2072,-199.19768,0.045766532,0.2797184,-0.013624191,0.0012971801,-1.3654526E-4,0.0
1108.4475,460.8589,98484453,1.0125,0.11702127,-178.2079,-311.77618,0.045766532,0.2797184,-0.013624191,0.0012971801,-1.3654526E-4,0.0
1107.4855,458.99805,98484470,0.95,0.11702127,23.341967,-270.81604,0.045766532,0.2797184,-0.013624191,-3.4564236E-4,3.8404705E-5,0.0
1107.6173,457.036,98484487,0.85,0.09574468,130.24866,-188.56876,0.045766532,0.2797184,-0.013624191,-3.4564236E-4,3.8404705E-5,0.0
1108.617,457.45557,98484500,0.625,0.11702127,167.13947,-103.59154,0.045766532,0.2797184,-0.013624191,-3.4564236E-4,3.8404705E-5,0.0
1108.617,457.45557,98484508,0.625,0.11702127,167.13947,-103.59154,0.045766532,0.2797184,-0.013624191,-3.4564236E-4,3.8404705E-5,0.0
