x,y,timestamp,pressure,fingerarea,velocityx,velocityy,accelx,accely,accelz,gyrox,gyroy,gyroz
275.88806,187.35059,14018658,1.3000001,0.12765957,0.0,0.0,0.06202084,-0.16738105,-0.07673073,0.0,0.0,0.0
275.88806,187.35059,14018680,1.325,0.12765957,-0.09103615,-0.060747877,0.06202084,-0.16738105,-0.07673073,0.0,0.0,0.0
275.88806,187.35059,14018697,1.2375001,0.12765957,-4.5015244E-4,0.0010012242,0.06202084,-0.16738105,-0.07673073,0.0,0.0,0.0
275.88806,187.35059,14018714,0.9875,0.12765957,-0.0050452203,-0.00426265,0.06202084,-0.16738105,-0.07673073,3.5589844E-6,3.5589844E-6,0.0
268.34003,215.05872,14018730,0.85,0.09574468,-323.95544,1198.7004,0.06202084,-0.16738105,-0.07673073,3.5589844E-6,3.5589844E-6,0.0
261.02066,244.8971,14018747,0.875,0.11702127,-505.1393,1938.114,0.06202084,-0.16738105,-0.07673073,3.5589844E-6,3.5589844E-6,0.0
250.5213,274.2461,14018764,0.875,0.10638297,-732.4241,2508.635,0.06202084,-0.16738105,-0.07673073,3.5589844E-6,3.5589844E-6,0.0
234.81723,312.3014,14018780,0.8875,0.08510638,-975.0627,2763.796,-0.11838329,0.13009524,-0.18938446,7.0464E-4,-1.0066285E-4,0.0
216.70462,352.61816,14018797,0.90000004,0.12765957,-1155.834,2688.1067,-0.11838329,0.13009524,-0.18938446,7.0464E-4,-1.0066285E-4,0.0
198.10138,386.3977,14018814,0.925,0.10638297,-1296.2174,2471.506,-0.11838329,0.13009524,-0.18938446,7.0464E-4,-1.0066285E-4,0.0
182.15106,411.82056,14018831,0.95,0.08510638,-1245.3282,2023.301,-0.11838329,0.13009524,-0.18938446,7.0464E-4,-1.0066285E-4,0.0
162.91809,437.62024,14018847,0.9375,0.11702127,-1149.0844,1463.7092,-0.11838329,0.13009524,-0.18938446,-1.5005995E-5,-7.5029975E-6,0.0
144.99532,456.0653,14018864,0.975,0.12765957,-1101.7009,1005.00806,-0.11838329,0.13009524,-0.18938446,-1.5005995E-5,-7.5029975E-6,0.0
126.56001,468.52344,14018881,1.025,0.09574468,-1080.841,607.5433,-0.11838329,0.13009524,-0.18938446,-1.5005995E-5,-7.5029975E-6,0.0
111.50139,473.77393,14018897,1.075,0.10638297,-1041.5525,243.20474,-0.11838329,0.13009524,-0.18938446,-1.5005995E-5,-7.5029975E-6,0.0
97.84531,472.8506,14018914,1.1125001,0.12765957,-870.60144,-180.40009,-0.11838329,0.13009524,-0.18938446,-6.7761015E-5,-2.7104408E-5,0.0
87.71472,468.27478,14018931,1.1375,0.10638297,-639.54614,-594.434,-0.11838329,0.13009524,-0.18938446,-6.7761015E-5,-2.7104408E-5,0.0
80.37251,462.7162,14018947,1.15,0.10638297,-402.28146,-699.57556,-0.11838329,0.13009524,-0.18938446,-6.7761015E-5,-2.7104408E-5,0.0
74.63182,451.36218,14018964,1.225,0.10638297,-227.55894,-791.9036,-0.11838329,0.13009524,-0.18938446,-6.7761015E-5,-2.7104408E-5,0.0
72.8703,438.64258,14018981,1.2,0.09574468,-63.70095,-910.30756,-0.11838329,0.13009524,-0.18938446,-1.5005995E-5,0.0,0.0
74.82945,428.1327,14018998,1.1625,0.12765957,152.18898,-923.88074,-0.11838329,0.13009524,-0.18938446,-1.5005995E-5,0.0,0.0
78.24869,421.95496,14019014,1.125,0.12765957,325.6175,-722.83954,-0.11838329,0.13009524,-0.18938446,-1.5005995E-5,0.0,0.0
84.17232,417.9995,14019031,1.0625,0.12765957,482.19296,-369.68768,-0.11838329,0.13009524,-0.18938446,-1.5005995E-5,0.0,0.0
90.14903,417.0161,14019048,1.0625,0.12765957,526.5696,46.414604,-0.11838329,0.13009524,-0.18938446,-1.2451352E-4,8.3009014E-5,0.0
97.99303,420.2556,14019064,1.0625,0.12765957,529.8456,262.32523,-0.11838329,0.13009524,-0.18938446,-1.2451352E-4,8.3009014E-5,0.0
109.50629,426.50452,14019081,1.0125,0.08510638,628.75195,445.50537,-0.11838329,0.13009524,-0.18938446,-1.2451352E-4,8.3009014E-5,0.0
125.66504,435.1222,14019098,1.0125,0.08510638,898.9233,666.42255,-0.11838329,0.13009524,-0.18938446,-1.2451352E-4,8.3009014E-5,0.0
147.79729,443.40833,14019115,1.0500001,0.12765957,1270.8998,738.6412,-0.11838329,0.13009524,-0.18938446,5.132838E-5,1.710946E-5,0.0
171.41905,446.67737,14019131,1.0625,0.08510638,1624.4628,555.194,-0.11838329,0.13009524,-0.18938446,5.132838E-5,1.710946E-5,0.0
199.27713,444.2373,14019148,1.0625,0.12765957,1837.3212,137.81538,-0.11838329,0.13009524,-0.18938446,5.132838E-5,1.710946E-5,0.0
230.57944,434.99414,14019165,1.0625,0.11702127,2018.9873,-483.02448,-0.11838329,0.13009524,-0.18938446,5.132838E-5,1.710946E-5,0.0
265.47446,419.11023,14019181,1.075,0.11702127,2191.979,-1027.4557,-0.11838329,0.13009524,-0.18938446,2.230689E-4,0.0,0.0
299.17416,402.59607,14019198,1.1125001,0.14893617,2259.6304,-1365.2794,-0.11838329,0.13009524,-0.18938446,2.230689E-4,0.0,0.0
329.75833,385.50342,14019215,1.0875,0.10638297,2189.1995,-1413.751,-0.11838329,0.13009524,-0.18938446,2.230689E-4,0.0,0.0
354.2029,366.5265,14019232,1.0625,0.14893617,1782.4784,-1351.5084,-0.11838329,0.13009524,-0.18938446,2.230689E-4,0.0,0.0
371.892,354.28906,14019248,1.0625,0.12765957,1242.2781,-1091.6089,-0.11838329,0.13009524,-0.18938446,-3.6294656E-5,0.0,0.0
381.3508,348.1714,14019265,1.0875,0.10638297,519.5034,-586.5128,-0.11838329,0.13009524,-0.18938446,-3.6294656E-5,0.0,0.0
384.64404,345.87476,14019282,1.075,0.10638297,-18.577957,-89.58478,-0.11838329,0.13009524,-0.18938446,-3.6294656E-5,0.0,0.0
384.85257,345.50415,14019298,1.1625,0.11702127,-341.0998,262.71332,-0.11838329,0.13009524,-0.18938446,-3.6294656E-5,0.0,0.0
383.623,346.1527,14019315,1.275,0.12765957,-477.9804,327.8618,-0.070706666,-0.22392368,0.21649265,1.3415996E-4,-5.7497124E-5,0.0
377.1816,352.68457,14019332,1.1375,0.12765957,-509.8151,381.9267,-0.070706666,-0.22392368,0.21649265,1.3415996E-4,-5.7497124E-5,0.0
361.94153,365.92383,14019349,1.0125,0.10638297,-765.1388,664.56525,-0.070706666,-0.22392368,0.21649265,1.3415996E-4,-5.7497124E-5,0.0
339.287,386.40784,14019365,0.9875,0.09574468,-1334.5914,1203.6616,-0.070706666,-0.22392368,0.21649265,1.3415996E-4,-5.7497124E-5,0.0
317.40298,407.2716,14019382,1.025,0.10638297,-1742.235,1599.475,-0.070706666,-0.22392368,0.21649265,7.227842E-5,-3.613921E-5,0.0
300.2702,427.71387,14019399,1.025,0.10638297,-1634.5627,1645.8251,-0.070706666,-0.22392368,0.21649265,7.227842E-5,-3.613921E-5,0.0
286.51477,448.70837,14019415,0.975,0.12765957,-1161.9432,1464.6425,-0.070706666,-0.22392368,0.21649265,7.227842E-5,-3.613921E-5,0.0
274.19434,477.9397,14019432,0.96250004,0.08510638,-726.63,1574.3043,-0.070706666,-0.22392368,0.21649265,7.227842E-5,-3.613921E-5,0.0
270.4227,495.48584,14019449,0.9375,0.12765957,-306.6476,1484.1096,-0.070706666,-0.22392368,0.21649265,-1.1254497E-5,5.6272484E-6,0.0
273.05292,507.0078,14019465,0.9125,0.12765957,140.40254,1099.7136,-0.070706666,-0.22392368,0.21649265,-1.1254497E-5,5.6272484E-6,0.0
277.2024,512.1478,14019482,0.9375,0.09574468,531.3098,335.30316,-0.070706666,-0.22392368,0.21649265,-1.1254497E-5,5.6272484E-6,0.0
289.09167,516.63086,14019499,0.975,0.10638297,854.131,-166.07767,-0.070706666,-0.22392368,0.21649265,-1.1254497E-5,5.6272484E-6,0.0
306.703,516.015,14019516,1.0375,0.12765957,1109.4215,-239.25291,-0.070706666,-0.22392368,0.21649265,1.4235935E-5,1.4235935E-5,0.0
330.33023,508.3401,14019532,1.0875,0.11702127,1558.8179,-459.4954,-0.070706666,-0.22392368,0.21649265,1.4235935E-5,1.4235935E-5,0.0
349.73846,495.24353,14019549,1.1125001,0.10638297,1716.4197,-823.9297,-0.070706666,-0.22392368,0.21649265,1.4235935E-5,1.4235935E-5,0.0
365.54865,478.03088,14019566,1.15,0.14893617,1437.0107,-1225.6935,-0.070706666,-0.22392368,0.21649265,1.4235935E-5,1.4235935E-5,0.0
375.69543,463.07104,14019582,1.1375,0.12765957,901.52905,-1389.1473,-0.070706666,-0.22392368,0.21649265,-1.1254497E-5,5.6272484E-6,0.0
387.2614,438.812,14019599,1.125,0.10638297,459.08063,-1421.4283,-0.070706666,-0.22392368,0.21649265,-1.1254497E-5,5.6272484E-6,0.0
395.8343,409.5287,14019616,1.0875,0.10638297,358.4794,-1739.289,-0.070706666,-0.22392368,0.21649265,-1.1254497E-5,5.6272484E-6,0.0
402.06866,390.24365,14019633,1.1,0.10638297,301.7971,-1711.9867,-0.070706666,-0.22392368,0.21649265,-1.1254497E-5,5.6272484E-6,0.0
406.82928,366.91406,14019649,1.1375,0.12765957,244.38556,-1599.2297,-0.070706666,-0.22392368,0.21649265,-2.1019069E-4,-1.0509534E-4,0.0
408.53842,355.3352,14019666,1.1375,0.12765957,102.226166,-1125.9281,-0.070706666,-0.22392368,0.21649265,-2.1019069E-4,-1.0509534E-4,0.0
408.84476,352.2234,14019683,1.1625,0.12765957,-80.76942,-344.8809,-0.070706666,-0.22392368,0.21649265,-2.1019069E-4,-1.0509534E-4,0.0
408.84476,350.83508,14019699,1.2375001,0.12765957,-127.42461,170.8284,-0.070706666,-0.22392368,0.21649265,-2.1019069E-4,-1.0509534E-4,0.0
408.04248,351.37268,14019716,1.35,0.12765957,-151.33977,485.10486,-0.070706666,-0.22392368,0.21649265,-5.132838E-5,1.710946E-5,0.0
404.9753,360.1493,14019733,1.3625001,0.12765957,-169.08835,566.5274,-0.070706666,-0.22392368,0.21649265,-5.132838E-5,1.710946E-5,0.0
401.21252,373.3103,14019750,1.1625,0.09574468,-252.72989,835.19415,-0.070706666,-0.22392368,0.21649265,-5.132838E-5,1.710946E-5,0.0
398.10355,390.62927,14019766,0.925,0.09574468,-296.2396,1178.5022,-0.070706666,-0.22392368,0.21649265,-5.132838E-5,1.710946E-5,0.0
395.8934,415.63696,14019783,0.90000004,0.09574468,-253.06248,1599.2296,-0.070706666,-0.22392368,0.21649265,1.5203965E-4,0.0,0.0
395.34915,437.9585,14019800,0.8875,0.09574468,-99.82071,1740.1642,-0.070706666,-0.22392368,0.21649265,1.5203965E-4,0.0,0.0
397.99237,457.20703,14019816,0.8875,0.09574468,96.07776,1583.3429,-0.070706666,-0.22392368,0.21649265,1.5203965E-4,0.0,0.0
403.26752,473.75684,14019833,0.8625,0.08510638,313.67227,1265.4226,-0.070706666,-0.22392368,0.21649265,1.5203965E-4,0.0,0.0
408.83325,484.0902,14019850,0.83750004,0.10638297,474.84763,758.1097,-0.19256532,0.23686099,-0.11480522,0.0010129592,0.0,0.0
421.36615,495.5454,14019867,0.8625,0.12765957,680.3261,455.11008,-0.19256532,0.23686099,-0.11480522,0.0010129592,0.0,0.0
438.50162,501.34387,14019883,0.925,0.10638297,990.3858,274.74213,-0.19256532,0.23686099,-0.11480522,0.0010129592,0.0,0.0
458.47406,499.3202,14019900,0.9125,0.10638297,1308.6761,-29.560005,-0.19256532,0.23686099,-0.11480522,0.0010129592,0.0,0.0
487.50293,485.04272,14019917,0.9875,0.10638297,1744.6793,-651.1026,-0.19256532,0.23686099,-0.11480522,-8.9747296E-4,0.0,0.0
511.8542,465.49817,14019933,1.0500001,0.11702127,1919.0349,-1407.8192,-0.19256532,0.23686099,-0.11480522,-8.9747296E-4,0.0,0.0
530.55005,447.39185,14019950,1.0625,0.12765957,1638.1853,-1729.905,-0.19256532,0.23686099,-0.11480522,-8.9747296E-4,0.0,0.0
546.1979,421.41174,14019967,1.0,0.12765957,1151.0764,-1794.0315,-0.19256532,0.23686099,-0.11480522,-8.9747296E-4,0.0,0.0
567.205,383.36987,14019984,0.96250004,0.08510638,775.11786,-1942.7175,-0.19256532,0.23686099,-0.11480522,0.0,5.132835E-5,0.0
585.85425,340.21863,14020000,0.9875,0.12765957,935.8176,-2704.9116,-0.19256532,0.23686099,-0.11480522,0.0,5.132835E-5,0.0
602.4022,297.1682,14020017,0.975,0.10638297,1094.0885,-3118.7566,-0.19256532,0.23686099,-0.11480522,0.0,5.132835E-5,0.0
611.5866,267.04944,14020034,0.9875,0.10638297,845.19806,-2716.1616,-0.19256532,0.23686099,-0.11480522,0.0,5.132835E-5,0.0
616.5201,237.1571,14020050,0.975,0.09574468,372.4013,-2049.8643,-0.19256532,0.23686099,-0.11480522,-1.224621E-4,-2.0410349E-5,0.0
620.22833,215.83557,14020067,0.975,0.09574468,-39.39221,-1246.9912,-0.19256532,0.23686099,-0.11480522,-1.224621E-4,-2.0410349E-5,0.0
622.4349,190.48633,14020084,0.975,0.10638297,-111.94918,-1070.4958,-0.19256532,0.23686099,-0.11480522,-1.224621E-4,-2.0410349E-5,0.0
622.5757,181.49011,14020100,0.96250004,0.08510638,-157.23311,-698.96844,-0.19256532,0.23686099,-0.11480522,-1.224621E-4,-2.0410349E-5,0.0
621.54895,176.28589,14020117,1.0125,0.09574468,-140.03896,-233.20056,-0.19256532,0.23686099,-0.11480522,-1.3654621E-4,-6.8273104E-5,0.0
620.2269,174.9115,14020134,1.1125001,0.09574468,-170.6925,150.47302,-0.19256532,0.23686099,-0.11480522,-1.3654621E-4,-6.8273104E-5,0.0
616.7607,175.45044,14020151,1.1750001,0.10638297,-224.29068,458.30347,-0.19256532,0.23686099,-0.11480522,-1.3654621E-4,-6.8273104E-5,0.0
611.3231,179.89392,14020167,1.2,0.12765957,-310.29272,464.78497,-0.19256532,0.23686099,-0.11480522,-1.3654621E-4,-6.8273104E-5,0.0
602.8042,194.15894,14020184,1.1375,0.12765957,-493.0606,725.44934,-0.19256532,0.23686099,-0.11480522,-3.1128395E-5,-2.0752263E-5,0.0
595.40295,209.21436,14020201,1.0,0.11702127,-600.20483,1079.7452,-0.19256532,0.23686099,-0.11480522,-3.1128395E-5,-2.0752263E-5,0.0
583.8182,236.69019,14020217,0.925,0.12765957,-663.54706,1519.246,-0.19256532,0.23686099,-0.11480522,-3.1128395E-5,-2.0752263E-5,0.0
570.5999,270.5221,14020234,0.90000004,0.09574468,-824.9005,2179.7427,-0.19256532,0.23686099,-0.11480522,-3.1128395E-5,-2.0752263E-5,0.0
557.1559,309.38538,14020251,0.875,0.08510638,-926.8406,2633.7808,-0.19256532,0.23686099,-0.11480522,4.2920656E-4,0.0,0.0
542.44934,356.52844,14020268,0.8625,0.11702127,-991.6911,3067.7966,-0.19256532,0.23686099,-0.11480522,4.2920656E-4,0.0,0.0
527.9369,401.19116,14020284,0.8625,0.12765957,-966.14856,3205.9434,-0.19256532,0.23686099,-0.11480522,4.2920656E-4,0.0,0.0
518.2063,438.27405,14020301,0.85,0.10638297,-780.3523,2881.4683,-0.19256532,0.23686099,-0.11480522,4.2920656E-4,0.0,0.0
509.88043,471.42798,14020318,0.8875,0.08510638,-583.89954,2402.8767,-0.19256532,0.23686099,-0.11480522,9.137944E-4,0.0,0.0
504.2094,494.25488,14020334,0.9125,0.10638297,-304.36304,1473.545,-0.19256532,0.23686099,-0.11480522,9.137944E-4,0.0,0.0
500.5354,510.19214,14020351,0.925,0.12765957,-131.89497,802.0447,-0.19256532,0.23686099,-0.11480522,9.137944E-4,0.0,0.0
499.49274,518.70447,14020368,0.95,0.10638297,11.021711,251.99507,-0.19256532,0.23686099,-0.11480522,9.137944E-4,0.0,0.0
499.3153,521.9724,14020385,0.96250004,0.08510638,115.16399,-156.81729,0.22994775,-0.19451118,-0.22784424,0.0,0.0,0.0
499.3153,522.3163,14020401,1.025,0.09574468,143.26314,-364.0727,0.22994775,-0.19451118,-0.22784424,0.0,0.0,0.0
499.7193,521.598,14020418,1.15,0.12765957,111.701324,-398.5345,0.22994775,-0.19451118,-0.22784424,0.0,0.0,0.0
504.67853,516.2339,14020435,1.15,0.10638297,169.317,-429.18765,0.22994775,-0.19451118,-0.22784424,0.0,0.0,0.0
519.1574,489.64563,14020451,1.0875,0.12765957,594.26135,-1042.4583,0.22994775,-0.19451118,-0.22784424,-2.5787263E-4,2.5787265E-5,0.0
529.8643,463.23926,14020468,1.0875,0.12765957,934.2559,-1855.6915,0.22994775,-0.19451118,-0.22784424,-2.5787263E-4,2.5787265E-5,0.0
535.9841,450.74207,14020485,1.0500001,0.10638297,875.85205,-1876.3632,0.22994775,-0.19451118,-0.22784424,-2.5787263E-4,2.5787265E-5,0.0
551.1614,423.9359,14020502,1.025,0.11702127,798.8678,-1686.5458,0.22994775,-0.19451118,-0.22784424,-2.5787263E-4,2.5787265E-5,0.0
573.1062,395.2572,14020518,1.0125,0.12765957,979.9375,-1572.928,0.22994775,-0.19451118,-0.22784424,-8.7567396E-4,-2.0207862E-4,0.0
594.6617,371.55115,14020535,1.0125,0.11702127,1356.1929,-1554.2463,0.22994775,-0.19451118,-0.22784424,-8.7567396E-4,-2.0207862E-4,0.0
615.29266,354.37915,14020552,1.0125,0.11702127,1707.0198,-1631.6246,0.22994775,-0.19451118,-0.22784424,-8.7567396E-4,-2.0207862E-4,0.0
633.21106,345.8811,14020568,0.975,0.12765957,1383.2621,-779.01733,0.22994775,-0.19451118,-0.22784424,-8.7567396E-4,-2.0207862E-4,0.0
646.45105,342.83862,14020585,1.0125,0.12765957,930.3639,6.5860376,0.22994775,-0.19451118,-0.22784424,-2.1683508E-4,1.0841754E-4,0.0
652.30005,343.45142,14020602,1.0125,0.10638297,430.21286,434.23398,0.22994775,-0.19451118,-0.22784424,-2.1683508E-4,1.0841754E-4,0.0
653.6518,345.30286,14020619,1.0875,0.12765957,-23.189278,529.482,0.22994775,-0.19451118,-0.22784424,-2.1683508E-4,1.0841754E-4,0.0
652.9072,351.09338,14020635,1.1750001,0.12765957,-311.77054,485.94962,0.22994775,-0.19451118,-0.22784424,-2.1683508E-4,1.0841754E-4,0.0
648.40607,363.87402,14020652,1.1,0.12765957,-511.3701,707.86005,0.22994775,-0.19451118,-0.22784424,8.987015E-4,6.4192966E-5,0.0
640.09186,375.94995,14020669,0.8625,0.10638297,-615.5291,937.40857,0.22994775,-0.19451118,-0.22784424,8.987015E-4,6.4192966E-5,0.0
618.757,400.5752,14020685,0.8875,0.10638297,-1044.254,1344.0326,0.22994775,-0.19451118,-0.22784424,8.987015E-4,6.4192966E-5,0.0
597.6599,421.04993,14020702,0.95,0.11702127,-1457.073,1530.1976,0.22994775,-0.19451118,-0.22784424,8.987015E-4,6.4192966E-5,0.0
583.44574,432.74268,14020719,0.96250004,0.10638297,-1534.7443,1339.1149,0.22994775,-0.19451118,-0.22784424,4.4135624E-4,-6.790096E-5,0.0
572.34357,441.06995,14020735,0.96250004,0.10638297,-1177.8308,867.5482,0.22994775,-0.19451118,-0.22784424,4.4135624E-4,-6.790096E-5,0.0
564.50226,446.1643,14020752,0.9375,0.10638297,-636.1079,311.8803,0.22994775,-0.19451118,-0.22784424,4.4135624E-4,-6.790096E-5,0.0
559.2642,450.83374,14020769,0.90000004,0.12765957,-154.33276,-39.0476,0.22994775,-0.19451118,-0.22784424,4.4135624E-4,-6.790096E-5,0.0
555.75586,457.60132,14020786,0.875,0.10638297,-7.9470077,78.54985,0.22994775,-0.19451118,-0.22784424,-2.2772518E-4,-9.75965E-5,0.0
555.11346,463.02222,14020802,0.8625,0.09574468,65.48383,257.88068,0.22994775,-0.19451118,-0.22784424,-2.2772518E-4,-9.75965E-5,0.0
557.7442,466.73853,14020819,0.8875,0.09574468,201.85127,295.22144,0.22994775,-0.19451118,-0.22784424,-2.2772518E-4,-9.75965E-5,0.0
568.7692,470.42212,14020836,0.9125,0.09574468,502.49518,221.03033,0.22994775,-0.19451118,-0.22784424,-2.2772518E-4,-9.75965E-5,0.0
592.1724,471.67163,14020852,0.95,0.12765957,1133.7178,100.74771,0.22994775,-0.19451118,-0.22784424,-5.6943732E-5,0.0,0.0
618.1228,468.1394,14020869,0.9875,0.08510638,1808.4233,-108.600624,0.22994775,-0.19451118,-0.22784424,-5.6943732E-5,0.0,0.0
650.3285,460.5653,14020886,1.0,0.11702127,2222.386,-401.00278,0.22994775,-0.19451118,-0.22784424,-5.6943732E-5,0.0,0.0
672.22534,455.20203,14020903,0.9875,0.11702127,2135.2556,-582.34796,0.22994775,-0.19451118,-0.22784424,-5.6943732E-5,0.0,0.0
699.40564,447.76953,14020919,1.025,0.12765957,1843.8363,-633.4914,-0.16804177,0.01239109,0.16972446,2.14853E-5,1.2891181E-4,0.0
716.9115,439.3706,14020936,1.0125,0.09574468,1405.2931,-584.12036,-0.16804177,0.01239109,0.16972446,2.14853E-5,1.2891181E-4,0.0
730.4632,430.29712,14020953,0.9875,0.11702127,937.2158,-570.35657,-0.16804177,0.01239109,0.16972446,2.14853E-5,1.2891181E-4,0.0
739.84045,421.17566,14020969,0.9875,0.14893617,422.65338,-618.7704,-0.16804177,0.01239109,0.16972446,2.14853E-5,1.2891181E-4,0.0
744.26263,415.6477,14020986,1.025,0.14893617,61.137123,-506.3434,-0.16804177,0.01239109,0.16972446,0.0,0.0,0.0
745.2352,411.05774,14021003,1.075,0.14893617,-157.26099,-310.35138,-0.16804177,0.01239109,0.16972446,0.0,0.0,0.0
744.1447,409.47632,14021020,1.1875,0.12765957,-295.2313,-82.7487,-0.16804177,0.01239109,0.16972446,0.0,0.0,0.0
737.5467,412.33252,14021036,1.1750001,0.10638297,-452.57388,148.96492,-0.16804177,0.01239109,0.16972446,0.0,0.0,0.0
724.8798,419.30676,14021053,1.025,0.10638297,-728.7216,419.0613,-0.16804177,0.01239109,0.16972446,-1.389826E-4,-1.1118609E-4,0.0
703.6937,431.94763,14021070,0.9375,0.11702127,-1206.3561,761.9776,-0.16804177,0.01239109,0.16972446,-1.389826E-4,-1.1118609E-4,0.0
680.8287,447.63293,14021086,0.96250004,0.10638297,-1690.6921,1127.9733,-0.16804177,0.01239109,0.16972446,-1.389826E-4,-1.1118609E-4,0.0
664.245,462.3877,14021103,0.96250004,0.11702127,-1630.1993,1216.8723,-0.16804177,0.01239109,0.16972446,-1.389826E-4,-1.1118609E-4,0.0
650.05444,484.48706,14021120,0.925,0.11702127,-1217.7098,1315.8473,-0.16804177,0.01239109,0.16972446,5.397441E-4,3.2384647E-4,0.0
644.6412,496.1095,14021137,0.8875,0.12765957,-568.5483,1169.8152,-0.16804177,0.01239109,0.16972446,5.397441E-4,3.2384647E-4,0.0
644.2681,507.09705,14021153,0.8625,0.12765957,29.406883,863.16345,-0.16804177,0.01239109,0.16972446,5.397441E-4,3.2384647E-4,0.0
647.04175,511.79797,14021170,0.83750004,0.10638297,402.70102,454.20294,-0.16804177,0.01239109,0.16972446,5.397441E-4,3.2384647E-4,0.0
653.58514,517.3336,14021187,0.83750004,0.09574468,622.3348,53.635654,-0.16804177,0.01239109,0.16972446,5.9553164E-5,1.9851053E-5,0.0
666.80707,521.9071,14021203,0.8875,0.08510638,857.8594,32.63034,-0.16804177,0.01239109,0.16972446,5.9553164E-5,1.9851053E-5,0.0
686.469,520.15344,14021220,0.90000004,0.12765957,1183.8202,-27.597948,-0.16804177,0.01239109,0.16972446,5.9553164E-5,1.9851053E-5,0.0
713.5444,511.29932,14021237,0.9375,0.11702127,1739.5233,-374.5998,-0.16804177,0.01239109,0.16972446,5.9553164E-5,1.9851053E-5,0.0
734.12756,497.26062,14021254,1.0,0.10638297,1839.4756,-865.8804,-0.16804177,0.01239109,0.16972446,-4.157833E-4,0.0,0.0
750.3498,479.19983,14021270,1.0,0.14893617,1543.997,-1341.3184,-0.16804177,0.01239109,0.16972446,-4.157833E-4,0.0,0.0
758.90643,464.25146,14021287,0.9875,0.12765957,820.3803,-1388.7694,-0.16804177,0.01239109,0.16972446,-4.157833E-4,0.0,0.0
766.7523,444.95667,14021304,0.95,0.08510638,247.42003,-1315.768,-0.16804177,0.01239109,0.16972446,-4.157833E-4,0.0,0.0
769.29895,433.08435,14021320,0.90000004,0.10638297,-16.418762,-1038.522,-0.16804177,0.01239109,0.16972446,-4.246953E-4,2.1234764E-4,0.0
771.3056,421.07532,14021337,0.9125,0.12765957,-133.79912,-741.13055,-0.16804177,0.01239109,0.16972446,-4.246953E-4,2.1234764E-4,0.0
770.55334,410.9076,14021354,0.975,0.12765957,-164.80438,-530.34143,-0.16804177,0.01239109,0.16972446,-4.246953E-4,2.1234764E-4,0.0
769.5259,406.9834,14021370,1.0375,0.12765957,-221.98672,-279.65182,-0.16804177,0.01239109,0.16972446,-4.246953E-4,2.1234764E-4,0.0
767.4573,405.92236,14021387,1.1625,0.14893617,-223.80667,-39.450462,-0.16804177,0.01239109,0.16972446,-5.2328577E-4,-3.8057144E-4,0.0
764.52386,406.7577,14021404,1.2125,0.12765957,-235.56998,184.1386,-0.16804177,0.01239109,0.16972446,-5.2328577E-4,-3.8057144E-4,0.0
760.099,414.95654,14021421,1.1750001,0.12765957,-268.58298,460.92847,-0.16804177,0.01239109,0.16972446,-5.2328577E-4,-3.8057144E-4,0.0
756.399,427.54016,14021437,1.025,0.11702127,-305.3294,834.15985,-0.16804177,0.01239109,0.16972446,-5.2328577E-4,-3.8057144E-4,0.0
754.62476,439.56067,14021454,0.825,0.11702127,-229.25493,1018.63556,0.13756657,-0.29408717,0.2877798,5.0554627E-5,5.0554627E-5,0.0
752.37524,458.47998,14021471,0.7875,0.12765957,-122.60575,1207.6417,0.13756657,-0.29408717,0.2877798,5.0554627E-5,5.0554627E-5,0.0
752.63446,477.74524,14021487,0.8125,0.09574468,-19.862501,1294.1289,0.13756657,-0.29408717,0.2877798,5.0554627E-5,5.0554627E-5,0.0
756.09235,491.7356,14021504,0.77500004,0.09574468,146.9911,1217.7473,0.13756657,-0.29408717,0.2877798,5.0554627E-5,5.0554627E-5,0.0
760.84424,500.2556,14021521,0.8125,0.12765957,312.42285,830.79663,0.13756657,-0.29408717,0.2877798,0.0012997405,-2.2936595E-4,0.0
768.2631,507.63452,14021538,0.83750004,0.10638297,488.52768,408.04572,0.13756657,-0.29408717,0.2877798,0.0012997405,-2.2936595E-4,0.0
778.27454,511.9934,14021554,0.875,0.10638297,666.3607,111.105736,0.13756657,-0.29408717,0.2877798,0.0012997405,-2.2936595E-4,0.0
791.5642,511.4021,14021571,0.90000004,0.12765957,839.22375,-79.99768,0.13756657,-0.29408717,0.2877798,0.0012997405,-2.2936595E-4,0.0
809.9377,503.30713,14021588,0.95,0.12765957,1097.188,-385.00192,0.13756657,-0.29408717,0.2877798,3.421887E-4,0.0,0.0
829.70605,483.40222,14021604,0.96250004,0.10638297,1358.2346,-1002.2639,0.13756657,-0.29408717,0.2877798,3.421887E-4,0.0,0.0
842.6394,461.57727,14021621,0.9125,0.10638297,1226.4192,-1682.1055,0.13756657,-0.29408717,0.2877798,3.421887E-4,0.0,0.0
865.05597,415.99023,14021638,0.8875,0.12765957,1159.331,-2480.373,0.13756657,-0.29408717,0.2877798,3.421887E-4,0.0,0.0
879.85364,376.83716,14021655,0.9125,0.08510638,1029.7427,-3025.9456,0.13756657,-0.29408717,0.2877798,-5.5033073E-4,0.0,0.0
890.82056,336.17004,14021671,0.90000004,0.08510638,830.8362,-3136.1794,0.13756657,-0.29408717,0.2877798,-5.5033073E-4,0.0,0.0
898.03156,294.83264,14021688,0.9125,0.11702127,540.668,-2896.066,0.13756657,-0.29408717,0.2877798,-5.5033073E-4,0.0,0.0
902.201,262.03723,14021705,0.9125,0.08510638,115.93974,-2262.7651,0.13756657,-0.29408717,0.2877798,-5.5033073E-4,0.0,0.0
905.53925,230.21802,14021721,0.925,0.10638297,-87.09205,-1858.0939,0.13756657,-0.29408717,0.2877798,-5.7826637E-5,5.7826637E-5,0.0
907.69275,207.54651,14021738,0.95,0.12765957,-23.800846,-1494.5668,0.13756657,-0.29408717,0.2877798,-5.7826637E-5,5.7826637E-5,0.0
907.6824,192.87537,14021755,0.9875,0.12765957,-45.943172,-943.85925,0.13756657,-0.29408717,0.2877798,-5.7826637E-5,5.7826637E-5,0.0
907.06683,188.71606,14021771,1.0375,0.12765957,-95.68641,-240.9058,0.13756657,-0.29408717,0.2877798,-5.7826637E-5,5.7826637E-5,0.0
906.1982,188.23901,14021788,1.075,0.12765957,-145.53677,324.2073,0.13756657,-0.29408717,0.2877798,-8.739582E-4,0.0,0.0
905.0026,188.23901,14021805,1.2,0.12765957,-146.59944,537.82117,0.13756657,-0.29408717,0.2877798,-8.739582E-4,0.0,0.0
901.9665,197.00952,14021822,1.1875,0.12765957,-162.59396,664.9423,0.13756657,-0.29408717,0.2877798,-8.739582E-4,0.0,0.0
898.6851,211.7854,14021838,1.0625,0.09574468,-224.78954,908.0507,0.13756657,-0.29408717,0.2877798,-8.739582E-4,0.0,0.0
896.6022,225.04248,14021855,0.83750004,0.09574468,-222.33414,1140.3596,0.13756657,-0.29408717,0.2877798,3.0840808E-4,7.710202E-5,0.0
895.35474,253.64526,14021872,0.85,0.09574468,-149.27014,1574.2124,0.13756657,-0.29408717,0.2877798,3.0840808E-4,7.710202E-5,0.0
894.3159,284.2771,14021888,0.825,0.09574468,-68.98242,2004.0074,0.13756657,-0.29408717,0.2877798,3.0840808E-4,7.710202E-5,0.0
893.68695,320.25732,14021905,0.825,0.08510638,4.5324574,2409.8826,0.13756657,-0.29408717,0.2877798,3.0840808E-4,7.710202E-5,0.0
892.68726,360.42725,14021922,0.83750004,0.10638297,-15.50882,2746.8179,0.13756657,-0.29408717,0.2877798,8.108802E-4,6.757335E-5,0.0
893.17017,397.2943,14021939,0.8125,0.09574468,-0.53100526,2678.8381,0.13756657,-0.29408717,0.2877798,8.108802E-4,6.757335E-5,0.0
893.68695,430.56506,14021955,0.8,0.08510638,42.374153,2340.0522,0.13756657,-0.29408717,0.2877798,8.108802E-4,6.757335E-5,0.0
894.18677,462.57727,14021972,0.77500004,0.08510638,68.03962,1996.7515,0.13756657,-0.29408717,0.2877798,8.108802E-4,6.757335E-5,0.0
895.18646,485.74365,14021989,0.77500004,0.08510638,81.85108,1537.8684,-0.3939467,0.19673038,-0.15377712,9.925527E-5,-5.9553164E-5,0.0
896.98944,503.95898,14022005,0.7625,0.10638297,91.9601,1059.0933,-0.3939467,0.19673038,-0.15377712,9.925527E-5,-5.9553164E-5,0.0
899.0435,521.0576,14022022,0.6875,0.08510638,118.81484,775.45447,-0.3939467,0.19673038,-0.15377712,9.925527E-5,-5.9553164E-5,0.0
900.1848,529.4243,14022035,0.1875,0.08510638,141.5322,601.32275,-0.3939467,0.19673038,-0.15377712,9.925527E-5,-5.9553164E-5,0.0
900.1848,529.4243,14022043,0.1875,0.08510638,141.5322,601.32275,-0.3939467,0.19673038,-0.15377712,9.925527E-5,-5.9553164E-5,0.0
821.2105,358.83167,14022204,1.2,0.12765957,0.0,0.0,-0.3939467,0.19673038,-0.15377712,4.4022192E-5,0.0,0.0
821.2105,358.83167,14022223,1.3875,0.14893617,0.1151297,0.058097027,-0.3939467,0.19673038,-0.15377712,4.4022192E-5,0.0,0.0
821.2105,358.83167,14022239,1.4,0.14893617,0.01883528,0.009300884,-0.3939467,0.19673038,-0.15377712,4.4022192E-5,0.0,0.0
821.2105,358.83167,14022256,1.125,0.10638297,-0.017848004,-0.0062771165,-0.3939467,0.19673038,-0.15377712,1.3103409E-4,0.0,0.0
850.3313,358.4203,14022273,0.9125,0.12765957,1162.3822,-27.48103,-0.3939467,0.19673038,-0.15377712,1.3103409E-4,0.0,0.0
885.94025,360.81616,14022290,0.875,0.10638297,2310.1082,52.599808,-0.3939467,0.19673038,-0.15377712,1.3103409E-4,0.0,0.0
927.2344,365.3982,14022306,0.8,0.12765957,3248.216,228.3991,-0.3939467,0.19673038,-0.15377712,1.3103409E-4,0.0,0.0
971.31726,366.82825,14022323,0.7,0.10638297,3437.8098,282.74475,-0.3939467,0.19673038,-0.15377712,6.1593816E-4,2.0531272E-4,0.0
978.1594,366.82825,14022325,0.4375,0.10638297,3454.9475,261.6279,-0.3939467,0.19673038,-0.15377712,6.1593816E-4,2.0531272E-4,0.0
978.1594,366.82825,14022333,0.4375,0.10638297,3454.9475,261.6279,-0.3939467,0.19673038,-0.15377712,6.1593816E-4,2.0531272E-4,0.0
1014.6476,388.15222,14022453,0.96250004,0.10638297,0.0,0.0,-0.3939467,0.19673038,-0.15377712,-7.3852774E-4,0.0,0.0
1014.6476,388.15222,14022473,1.1,0.12765957,0.38247758,0.14937429,-0.3939467,0.19673038,-0.15377712,-7.3852774E-4,0.0,0.0
1014.6476,388.15222,14022490,1.1375,0.10638297,-0.0022386385,2.7114747E-4,-0.3939467,0.19673038,-0.15377712,-7.3852774E-4,0.0,0.0
1014.6476,388.15222,14022507,1.025,0.10638297,0.09966304,0.03776381,-0.3939467,0.19673038,-0.15377712,-7.3852774E-4,0.0,0.0
1014.6476,388.15222,14022523,0.90000004,0.10638297,0.0037116494,0.0039777597,0.23684263,-0.22661567,0.22897911,7.832458E-4,5.035151E-4,0.0
990.4171,410.8341,14022540,0.825,0.11702127,-764.60626,709.35834,0.23684263,-0.22661567,0.22897911,7.832458E-4,5.035151E-4,0.0
977.9093,426.2776,14022557,0.825,0.09574468,-1324.8654,1343.0702,0.23684263,-0.22661567,0.22897911,7.832458E-4,5.035151E-4,0.0
966.0637,446.8689,14022574,0.8125,0.12765957,-1321.2687,1580.9031,0.23684263,-0.22661567,0.22897911,7.832458E-4,5.035151E-4,0.0
958.0831,469.2373,14022590,0.8125,0.08510638,-879.525,1675.1455,0.23684263,-0.22661567,0.22897911,7.490422E-4,0.0,0.0
957.16626,486.73877,14022607,0.7625,0.08510638,-194.71094,1393.2234,0.23684263,-0.22661567,0.22897911,7.490422E-4,0.0,0.0
958.74243,503.45056,14022624,0.725,0.12765957,270.05954,1114.1246,0.23684263,-0.22661567,0.22897911,7.490422E-4,0.0,0.0
963.85266,518.9431,14022640,0.7375,0.09574468,471.53485,948.6196,0.23684263,-0.22661567,0.22897911,7.490422E-4,0.0,0.0
969.90845,528.23535,14022657,0.7625,0.09574468,627.3244,611.48517,0.23684263,-0.22661567,0.22897911,-1.7435383E-5,-1.7435383E-5,0.0
981.818,535.84607,14022674,0.8125,0.08510638,749.2884,410.41464,0.23684263,-0.22661567,0.22897911,-1.7435383E-5,-1.7435383E-5,0.0
995.82825,539.1979,14022691,0.875,0.09574468,934.8155,145.36865,0.23684263,-0.22661567,0.22897911,-1.7435383E-5,-1.7435383E-5,0.0
1010.1665,534.0237,14022707,0.8875,0.12765957,1061.1493,-243.39153,0.23684263,-0.22661567,0.22897911,-1.7435383E-5,-1.7435383E-5,0.0
1027.1478,522.4398,14022724,0.95,0.14893617,1148.4926,-738.6431,0.23684263,-0.22661567,0.22897911,-3.4749214E-4,-1.3899687E-4,0.0
1035.9296,512.9177,14022741,1.0,0.10638297,923.7455,-1044.993,0.23684263,-0.22661567,0.22897911,-3.4749214E-4,-1.3899687E-4,0.0
1040.9395,494.59155,14022757,0.975,0.08510638,497.01263,-1229.8408,0.23684263,-0.22661567,0.22897911,-3.4749214E-4,-1.3899687E-4,0.0
1040.7018,477.45337,14022774,0.9125,0.10638297,-2.4339428,-1249.686,0.23684263,-0.22661567,0.22897911,-3.4749214E-4,-1.3899687E-4,0.0
1037.2631,456.96008,14022791,0.9125,0.12765957,-414.45584,-1338.4155,0.23684263,-0.22661567,0.22897911,9.059688E-5,-2.264922E-5,0.0
1031.532,443.01135,14022808,0.96250004,0.09574468,-586.4537,-1231.2643,0.23684263,-0.22661567,0.22897911,9.059688E-5,-2.264922E-5,0.0
1026.2881,434.71606,14022824,1.0,0.10638297,-572.56476,-799.07715,0.23684263,-0.22661567,0.22897911,9.059688E-5,-2.264922E-5,0.0
1017.87573,425.50195,14022841,1.0375,0.10638297,-594.6596,-407.1239,0.23684263,-0.22661567,0.22897911,9.059688E-5,-2.264922E-5,0.0
1011.15234,419.2533,14022858,1.0500001,0.10638297,-545.6881,-189.47322,0.23684263,-0.22661567,0.22897911,3.438299E-5,-3.438299E-4,0.0
1007.57007,417.12952,14022874,1.0875,0.10638297,-409.23993,-71.040794,0.23684263,-0.22661567,0.22897911,3.438299E-5,-3.438299E-4,0.0
1006.44055,417.4729,14022891,1.1125001,0.10638297,-190.60866,50.20412,0.23684263,-0.22661567,0.22897911,3.438299E-5,-3.438299E-4,0.0
1005.6505,419.24927,14022908,1.1625,0.10638297,60.161716,243.41435,0.23684263,-0.22661567,0.22897911,0.0,3.0450607E-4,0.0
1006.4429,421.547,14022925,1.1625,0.12765957,147.20631,315.49118,0.23684263,-0.22661567,0.22897911,-6.876598E-5,3.438299E-5,0.0
1010.2991,423.39038,14022941,1.025,0.10638297,227.02698,258.72562,0.23684263,-0.22661567,0.22897911,-6.876598E-5,3.438299E-5,0.0
1028.3207,424.58093,14022958,0.875,0.12765957,645.8508,166.57204,0.23684263,-0.22661567,0.22897911,-6.876598E-5,3.438299E-5,0.0
1051.6178,417.3993,14022975,0.875,0.08510638,1412.5721,-119.80501,0.23684263,-0.22661567,0.22897911,4.0210923E-4,1.0966615E-4,0.0
1079.2678,406.85376,14022991,0.8875,0.14893617,2019.9636,-575.7069,0.23684263,-0.22661567,0.22897911,4.0210923E-4,1.0966615E-4,0.0
1101.8702,397.14795,14023008,0.9125,0.10638297,2134.4207,-876.61774,0.23684263,-0.22661567,0.22897911,4.0210923E-4,1.0966615E-4,0.0
1119.5485,386.08533,14023025,0.90000004,0.12765957,1563.2874,-917.57367,0.23684263,-0.22661567,0.22897911,4.0210923E-4,1.0966615E-4,0.0
1134.4325,375.10315,14023042,0.90000004,0.12765957,968.40106,-813.48883,-0.14652586,0.09070754,-0.15281677,-1.5529507E-4,-1.03530045E-4,0.0
1141.7328,368.9369,14023058,0.9375,0.12765957,471.8505,-560.485,-0.14652586,0.09070754,-0.15281677,-1.5529507E-4,-1.03530045E-4,0.0
1142.7739,366.52954,14023075,0.975,0.12765957,-16.3708,-274.62555,-0.14652586,0.09070754,-0.15281677,-1.5529507E-4,-1.03530045E-4,0.0
1142.6058,364.662,14023092,1.0500001,0.12765957,-298.4016,-12.019221,-0.14652586,0.09070754,-0.15281677,-1.5529507E-4,-1.03530045E-4,0.0
1141.3938,363.27417,14023108,1.1375,0.12765957,-404.29996,117.88072,-0.14652586,0.09070754,-0.15281677,-8.6170796E-4,-3.5904496E-4,0.0
1139.3369,363.73035,14023125,1.1750001,0.12765957,-308.57236,88.379036,-0.14652586,0.09070754,-0.15281677,-8.6170796E-4,-3.5904496E-4,0.0
1136.2062,367.00806,14023142,1.1375,0.12765957,-247.69658,157.47383,-0.14652586,0.09070754,-0.15281677,-8.6170796E-4,-3.5904496E-4,0.0
1132.0917,373.6819,14023159,1.0500001,0.12765957,-282.1805,364.23535,-0.14652586,0.09070754,-0.15281677,-8.6170796E-4,-3.5904496E-4,0.0
1130.2345,380.3805,14023175,0.9375,0.11702127,-257.61612,557.8074,-0.14652586,0.09070754,-0.15281677,-1.01165235E-4,1.7703917E-4,0.0
1131.4287,388.2373,14023192,0.8125,0.11702127,-88.89944,605.5375,-0.14652586,0.09070754,-0.15281677,-1.01165235E-4,1.7703917E-4,0.0
1137.2439,404.2257,14023209,0.7625,0.12765957,214.34222,772.58575,-0.14652586,0.09070754,-0.15281677,-1.01165235E-4,1.7703917E-4,0.0
1145.5625,423.57422,14023225,0.75,0.08510638,563.4078,1113.9773,-0.14652586,0.09070754,-0.15281677,-1.01165235E-4,1.7703917E-4,0.0
1152.831,442.10046,14023242,0.7625,0.10638297,697.7621,1378.5403,-0.14652586,0.09070754,-0.15281677,5.127264E-4,3.0763584E-4,0.0
1155.7653,460.39526,14023259,0.7625,0.09574468,527.2832,1433.9482,-0.14652586,0.09070754,-0.15281677,5.127264E-4,3.0763584E-4,0.0
1156.1014,472.99548,14023276,0.77500004,0.08510638,179.63383,1103.974,-0.14652586,0.09070754,-0.15281677,5.127264E-4,3.0763584E-4,0.0
1152.4152,481.19507,14023292,0.83750004,0.08510638,-203.50713,609.27783,-0.14652586,0.09070754,-0.15281677,5.127264E-4,3.0763584E-4,0.0
1146.4991,487.95483,14023309,0.85,0.11702127,-475.46637,281.25418,-0.14652586,0.09070754,-0.15281677,1.2824689E-4,-3.664197E-5,0.0
1134.3048,494.22375,14023326,0.85,0.10638297,-745.73596,128.89066,-0.14652586,0.09070754,-0.15281677,1.2824689E-4,-3.664197E-5,0.0
1120.3632,498.32678,14023342,0.75,0.08510638,-979.6938,168.20374,-0.14652586,0.09070754,-0.15281677,1.2824689E-4,-3.664197E-5,0.0
1094.6215,505.4347,14023351,0.4125,0.15957446,-1417.0199,248.55931,-0.14652586,0.09070754,-0.15281677,1.2824689E-4,-3.664197E-5,0.0
1094.6215,505.4347,14023354,0.4125,0.15957446,-1417.0199,248.55931,-0.14652586,0.09070754,-0.15281677,1.2824689E-4,-3.664197E-5,0.0
