x,y,timestamp,pressure,fingerarea,velocityx,velocityy,accelx,accely,accelz,gyrox,gyroy,gyroz
301.37976,239.77222,98421301,1.225,0.12765957,0.0,0.0,0.025430769,0.020614386,0.016096115,3.355443E-6,0.0,0.0
301.37976,239.77222,98421322,1.275,0.12765957,-0.07640004,-0.061246507,0.025430769,0.020614386,0.016096115,3.355443E-6,0.0,0.0
301.37976,239.77222,98421339,1.275,0.12765957,-0.011284833,-0.009467569,0.025430769,0.020614386,0.016096115,3.355443E-6,0.0,0.0
301.37976,239.77222,98421356,1.125,0.12765957,0.005753092,0.0066621676,-0.01165539,-0.055508375,-0.12312317,1.6441657E-4,0.0,0.0
297.43817,250.98254,98421372,0.9875,0.10638297,-108.810165,309.39328,-0.01165539,-0.055508375,-0.12312317,1.6441657E-4,0.0,0.0
290.19193,271.82446,98421389,0.9125,0.08510638,-371.11612,1070.095,-0.01165539,-0.055508375,-0.12312317,1.6441657E-4,0.0,0.0
282.36115,296.7196,98421406,0.8875,0.09574468,-600.1087,1790.7126,-0.01165539,-0.055508375,-0.12312317,1.6441657E-4,0.0,0.0
273.05124,325.1803,98421422,0.8875,0.10638297,-710.3981,2177.5173,-0.01165539,-0.055508375,-0.12312317,-5.020268E-4,0.0,0.0
261.1693,356.54456,98421439,0.8875,0.11702127,-764.64056,2252.1487,-0.01165539,-0.055508375,-0.12312317,-5.020268E-4,0.0,0.0
246.7297,384.00806,98421456,0.925,0.09574468,-867.3007,2065.222,-0.01165539,-0.055508375,-0.12312317,-5.020268E-4,0.0,0.0
231.60593,416.79175,98421473,0.90000004,0.09574468,-1017.44214,2012.0873,-0.01165539,-0.055508375,-0.12312317,-5.020268E-4,0.0,0.0
220.21088,436.47852,98421489,0.925,0.10638297,-955.099,1642.1326,-0.01165539,-0.055508375,-0.12312317,-0.0,0.0,0.0
208.00055,456.864,98421506,0.95,0.11702127,-784.56415,1223.1486,-0.01165539,-0.055508375,-0.12312317,-0.0,0.0,0.0
192.71155,477.69556,98421523,0.95,0.08510638,-715.24243,947.5515,-0.01165539,-0.055508375,-0.12312317,-0.0,0.0,0.0
178.00018,492.92432,98421539,0.9875,0.10638297,-839.908,838.9108,-0.01165539,-0.055508375,-0.12312317,-0.0,0.0,0.0
164.81099,504.03772,98421556,1.0,0.14893617,-913.43524,675.91345,-0.01165539,-0.055508375,-0.12312317,7.5029975E-6,0.0,0.0
152.13597,512.0062,98421573,1.0500001,0.12765957,-842.3868,437.81772,-0.01165539,-0.055508375,-0.12312317,7.5029975E-6,0.0,0.0
140.60379,515.08887,98421590,1.0875,0.10638297,-719.0851,123.87899,-0.01165539,-0.055508375,-0.12312317,7.5029975E-6,0.0,0.0
131.3464,514.4009,98421606,1.1625,0.11702127,-549.8117,-175.9723,-0.01165539,-0.055508375,-0.12312317,7.5029975E-6,0.0,0.0
123.74153,510.64966,98421623,1.1750001,0.10638297,-448.54324,-367.1023,-0.01165539,-0.055508375,-0.12312317,3.355443E-6,0.0,0.0
119.121475,505.01135,98421640,1.1875,0.12765957,-286.59985,-524.67834,-0.01165539,-0.055508375,-0.12312317,3.355443E-6,0.0,0.0
113.884155,493.38794,98421656,1.125,0.10638297,-183.43573,-719.69745,-0.01165539,-0.055508375,-0.12312317,3.355443E-6,0.0,0.0
112.27487,485.59302,98421673,1.0875,0.10638297,-87.40603,-774.5299,-0.01165539,-0.055508375,-0.12312317,3.355443E-6,0.0,0.0
112.62804,478.67212,98421690,1.0625,0.10638297,39.199665,-676.8834,-0.01165539,-0.055508375,-0.12312317,5.2826345E-4,0.0,0.0
114.16821,473.52844,98421707,1.1,0.12765957,160.38959,-472.80417,-0.01165539,-0.055508375,-0.12312317,5.2826345E-4,0.0,0.0
116.49284,469.84753,98421723,1.125,0.12765957,253.77118,-172.33363,-0.01165539,-0.055508375,-0.12312317,5.2826345E-4,0.0,0.0
122.75568,467.22913,98421740,1.2375001,0.12765957,354.2375,-88.94512,-0.01165539,-0.055508375,-0.12312317,5.2826345E-4,0.0,0.0
128.66211,467.84253,98421757,1.2875,0.12765957,455.4492,27.569767,-0.01165539,-0.055508375,-0.12312317,-3.0198984E-5,0.0,0.0
132.1961,470.3589,98421773,1.225,0.12765957,437.8853,185.16187,-0.01165539,-0.055508375,-0.12312317,-3.0198984E-5,0.0,0.0
136.97508,476.45984,98421790,1.1125001,0.12765957,326.1107,373.01932,-0.01165539,-0.055508375,-0.12312317,-3.0198984E-5,0.0,0.0
148.38838,489.6891,98421807,1.125,0.12765957,397.67596,693.3879,-0.01165539,-0.055508375,-0.12312317,-3.0198984E-5,0.0,0.0
163.06242,502.8833,98421823,1.125,0.11702127,759.1776,975.8133,-0.01165539,-0.055508375,-0.12312317,-2.7179046E-4,0.0,0.0
177.18793,514.016,98421840,1.1125001,0.10638297,1054.6832,1023.319,-0.01165539,-0.055508375,-0.12312317,-2.7179046E-4,0.0,0.0
191.74933,524.0513,98421857,1.1,0.12765957,1139.8625,861.9046,-0.01165539,-0.055508375,-0.12312317,-2.7179046E-4,0.0,0.0
209.50537,531.33777,98421874,1.1125001,0.12765957,1100.0791,552.9896,-0.01165539,-0.055508375,-0.12312317,-2.7179046E-4,0.0,0.0
226.34094,532.08984,98421890,1.0875,0.11702127,1077.1454,178.2822,0.0066756904,-0.028406858,0.021500587,-1.6441657E-4,0.0,0.0
247.79822,527.90967,98421907,1.075,0.14893617,1203.5271,-201.29237,0.0066756904,-0.028406858,0.021500587,-1.6441657E-4,0.0,0.0
270.68808,517.84924,98421924,1.0625,0.11702127,1425.5103,-687.87134,0.0066756904,-0.028406858,0.021500587,-1.6441657E-4,0.0,0.0
293.8549,506.77954,98421940,1.0375,0.10638297,1515.2736,-975.50085,0.0066756904,-0.028406858,0.021500587,-1.6441657E-4,0.0,0.0
316.90836,495.521,98421957,1.025,0.12765957,1517.9896,-1006.4944,0.0066756904,-0.028406858,0.021500587,-1.342177E-5,0.0,0.0
341.00455,481.43726,98421974,0.9875,0.10638297,1473.0784,-956.457,0.0066756904,-0.028406858,0.021500587,-1.342177E-5,0.0,0.0
361.9854,468.39502,98421991,1.0,0.12765957,1364.1493,-894.03357,0.0066756904,-0.028406858,0.021500587,-1.342177E-5,0.0,0.0
380.08377,459.5747,98422007,0.9875,0.12765957,1201.5178,-759.0042,0.0066756904,-0.028406858,0.021500587,-1.342177E-5,0.0,0.0
391.3025,454.80896,98422024,1.025,0.11702127,842.2774,-470.3589,0.0066756904,-0.028406858,0.021500587,0.0,0.0,0.0
397.524,453.9015,98422041,1.1,0.11702127,379.26953,-59.200573,0.0066756904,-0.028406858,0.021500587,0.0,0.0,0.0
400.0003,453.9015,98422057,1.2,0.11702127,-14.4809675,202.48973,0.0066756904,-0.028406858,0.021500587,0.0,0.0,0.0
399.8477,453.9015,98422074,1.325,0.12765957,-259.0187,246.50479,0.0066756904,-0.028406858,0.021500587,0.0,0.0,0.0
398.67038,455.10583,98422091,1.4125,0.12765957,-338.7407,191.46992,0.0066756904,-0.028406858,0.021500587,0.0,0.0,0.0
395.35037,456.38843,98422108,1.3875,0.12765957,-339.99796,134.30557,0.0066756904,-0.028406858,0.021500587,0.0,0.0,0.0
389.39267,460.09644,98422124,1.2875,0.12765957,-389.00165,185.32634,0.0066756904,-0.028406858,0.021500587,0.0,0.0,0.0
382.6416,463.8004,98422141,1.1875,0.12765957,-495.73166,279.7988,0.0066756904,-0.028406858,0.021500587,0.0,0.0,0.0
376.61115,467.47998,98422158,1.1,0.12765957,-523.426,306.58386,0.0066756904,-0.028406858,0.021500587,1.6441657E-4,0.0,0.0
368.98093,473.3391,98422174,1.0500001,0.12765957,-500.28882,325.5383,0.0066756904,-0.028406858,0.021500587,1.6441657E-4,0.0,0.0
360.16196,481.93738,98422191,1.025,0.10638297,-494.43677,425.93356,0.0066756904,-0.028406858,0.021500587,1.6441657E-4,0.0,0.0
350.89896,490.74304,98422208,1.0125,0.10638297,-572.17554,591.73535,0.0066756904,-0.028406858,0.021500587,1.6441657E-4,0.0,0.0
345.0253,498.0996,98422225,1.0,0.10638297,-551.49316,634.04596,0.0066756904,-0.028406858,0.021500587,-7.5029975E-6,0.0,0.0
338.73038,513.8214,98422241,0.9875,0.10638297,-413.65714,773.45044,0.0066756904,-0.028406858,0.021500587,-7.5029975E-6,0.0,0.0
337.30167,524.80115,98422258,1.0,0.09574468,-182.79077,826.3811,0.0066756904,-0.028406858,0.021500587,-7.5029975E-6,0.0,0.0
337.971,531.9348,98422275,0.9875,0.08510638,63.017002,701.64594,0.0066756904,-0.028406858,0.021500587,-7.5029975E-6,0.0,0.0
340.8796,539.22046,98422291,1.025,0.09574468,248.05186,513.8923,0.0066756904,-0.028406858,0.021500587,-3.0198984E-5,0.0,0.0
346.54764,543.74854,98422308,1.0625,0.10638297,407.75412,239.36049,0.0066756904,-0.028406858,0.021500587,-3.0198984E-5,0.0,0.0
357.60858,548.00793,98422325,1.0625,0.12765957,646.47156,107.495,0.0066756904,-0.028406858,0.021500587,-3.0198984E-5,0.0,0.0
373.14365,549.38367,98422342,1.0875,0.12765957,963.7103,95.643265,0.0066756904,-0.028406858,0.021500587,-3.0198984E-5,0.0,0.0
389.4064,543.77625,98422358,1.0875,0.11702127,1212.9667,-178.90768,0.0066756904,-0.028406858,0.021500587,-3.503178E-4,0.0,0.0
400.6094,534.854,98422375,1.025,0.12765957,1085.4,-566.01013,0.0066756904,-0.028406858,0.021500587,-3.503178E-4,0.0,0.0
414.13715,518.4852,98422392,1.0125,0.14893617,891.54694,-1059.0862,0.0066756904,-0.028406858,0.021500587,-3.503178E-4,0.0,0.0
422.3062,505.49536,98422408,1.0,0.11702127,584.254,-1208.7484,0.0066756904,-0.028406858,0.021500587,-3.503178E-4,0.0,0.0
432.52005,480.71423,98422425,1.0,0.11702127,429.83057,-1372.8673,0.0053405464,-0.022725582,0.11320019,0.0,0.0,0.0
436.36563,459.0559,98422442,1.0375,0.11702127,298.14743,-1546.4113,0.0053405464,-0.022725582,0.11320019,0.0,0.0,0.0
436.33582,444.38953,98422458,1.025,0.09574468,43.983574,-1375.9086,0.0053405464,-0.022725582,0.11320019,0.0,0.0,0.0
435.2452,433.54626,98422475,1.0500001,0.11702127,-174.10782,-975.129,0.0053405464,-0.022725582,0.11320019,0.0,0.0,0.0
434.20834,428.79565,98422492,1.125,0.11702127,-302.51102,-348.88693,0.0053405464,-0.022725582,0.11320019,8.804391E-4,0.0,0.0
433.83664,428.1349,98422509,1.275,0.12765957,-244.33333,168.16748,0.0053405464,-0.022725582,0.11320019,8.804391E-4,0.0,0.0
433.3368,428.51526,98422525,1.3625001,0.12765957,-94.81705,332.13754,0.0053405464,-0.022725582,0.11320019,8.804391E-4,0.0,0.0
432.83694,432.13757,98422542,1.3875,0.12765957,-16.999607,390.3406,0.0053405464,-0.022725582,0.11320019,8.804391E-4,0.0,0.0
432.33713,436.7915,98422559,1.2375001,0.12765957,-17.271936,425.25488,0.0053405464,-0.022725582,0.11320019,0.0,0.0,0.0
432.66373,446.10693,98422575,1.0,0.12765957,-9.8323765,520.61017,0.0053405464,-0.022725582,0.11320019,0.0,0.0,0.0
434.57468,467.10413,98422592,1.0125,0.12765957,59.430992,991.3339,0.0053405464,-0.022725582,0.11320019,0.0,0.0,0.0
437.5395,487.864,98422609,1.0125,0.10638297,170.73683,1496.5126,0.0053405464,-0.022725582,0.11320019,0.0,0.0,0.0
441.49072,505.86914,98422626,1.0,0.10638297,263.40433,1595.485,0.0053405464,-0.022725582,0.11320019,-8.031382E-4,6.1779865E-5,0.0
446.2818,525.70776,98422642,1.025,0.09574468,335.00537,1473.2595,0.0053405464,-0.022725582,0.11320019,-8.031382E-4,6.1779865E-5,0.0
450.95795,536.7578,98422659,1.025,0.09574468,358.33463,988.03143,0.0053405464,-0.022725582,0.11320019,-8.031382E-4,6.1779865E-5,0.0
457.83588,546.06104,98422676,1.0625,0.12765957,400.32812,557.6708,0.0053405464,-0.022725582,0.11320019,-8.031382E-4,6.1779865E-5,0.0
467.77997,553.6741,98422692,1.1,0.12765957,514.5054,293.78473,0.0053405464,-0.022725582,0.11320019,-1.2451326E-4,0.0,0.0
480.8139,556.3744,98422709,1.1125001,0.12765957,738.06476,57.44161,0.0053405464,-0.022725582,0.11320019,-1.2451326E-4,0.0,0.0
494.81702,552.9353,98422726,1.1,0.11702127,945.7684,-170.57791,0.0053405464,-0.022725582,0.11320019,-1.2451326E-4,0.0,0.0
506.867,542.52905,98422743,1.0500001,0.10638297,991.22485,-578.21545,0.0053405464,-0.022725582,0.11320019,-1.2451326E-4,0.0,0.0
516.76056,529.1068,98422759,1.0125,0.12765957,789.24365,-1046.4647,0.0053405464,-0.022725582,0.11320019,-1.3505387E-4,0.0,0.0
529.35944,510.88977,98422776,1.0125,0.12765957,612.7261,-1345.0999,0.0053405464,-0.022725582,0.11320019,-1.3505387E-4,0.0,0.0
547.9572,478.16187,98422793,1.0125,0.10638297,765.28284,-1700.1234,0.0053405464,-0.022725582,0.11320019,-1.3505387E-4,0.0,0.0
561.8974,444.2992,98422809,1.0125,0.10638297,1025.6681,-2315.1267,0.0053405464,-0.022725582,0.11320019,-1.3505387E-4,0.0,0.0
574.8122,408.82043,98422826,0.9875,0.12765957,1021.8128,-2610.6577,0.0053405464,-0.022725582,0.11320019,0.0,0.0,0.0
584.04224,374.08386,98422843,0.9875,0.09574468,756.1829,-2579.0828,0.0053405464,-0.022725582,0.11320019,0.0,0.0,0.0
591.92236,338.67493,98422860,0.9875,0.09574468,419.9722,-2347.7542,0.0053405464,-0.022725582,0.11320019,0.0,0.0,0.0
597.67175,302.2173,98422876,0.96250004,0.12765957,225.68039,-2152.9968,0.0053405464,-0.022725582,0.11320019,0.0,0.0,0.0
599.87195,277.53137,98422893,0.9875,0.09574468,134.48933,-1912.4545,0.0053405464,-0.022725582,0.11320019,5.3687072E-5,0.0,0.0
600.1481,252.00989,98422910,0.975,0.14893617,-58.16077,-1498.813,0.0053405464,-0.022725582,0.11320019,5.3687072E-5,0.0,0.0
598.2512,234.0127,98422926,1.025,0.09574468,-198.14752,-1093.5381,0.0053405464,-0.022725582,0.11320019,5.3687072E-5,0.0,0.0
594.6087,221.77832,98422943,1.025,0.09574468,-326.74933,-680.43463,0.0053405464,-0.022725582,0.11320019,5.3687072E-5,0.0,0.0
591.75446,214.3678,98422960,1.0625,0.11702127,-342.37817,-292.9267,0.020272434,-0.010180473,0.010560989,2.4196437E-5,0.0,0.0
589.48096,209.90967,98422977,1.1125001,0.12765957,-264.58368,8.787733,0.020272434,-0.010180473,0.010560989,2.4196437E-5,0.0,0.0
587.94354,208.67456,98422993,1.1875,0.12765957,-155.1221,172.52711,0.020272434,-0.010180473,0.010560989,2.4196437E-5,0.0,0.0
586.53827,210.005,98423010,1.3000001,0.14893617,-51.18595,238.41443,0.020272434,-0.010180473,0.010560989,2.4196437E-5,0.0,0.0
583.9625,216.93848,98423027,1.375,0.14893617,-68.6912,433.96884,0.020272434,-0.010180473,0.010560989,0.0,0.0,0.0
582.33246,223.54382,98423043,1.35,0.14893617,-109.1702,607.10254,0.020272434,-0.010180473,0.010560989,0.0,0.0,0.0
581.2843,227.34863,98423060,1.0375,0.12765957,-98.47542,546.6698,0.020272434,-0.010180473,0.010560989,0.0,0.0,0.0
578.5917,251.03992,98423077,0.96250004,0.10638297,-104.404396,902.08246,0.020272434,-0.010180473,0.010560989,0.0,0.0,0.0
574.4441,281.02344,98423093,0.95,0.10638297,-178.32771,1649.8628,0.020272434,-0.010180473,0.010560989,-0.0,0.0,0.0
567.4455,325.26038,98423110,0.95,0.08510638,-349.98163,2624.648,0.020272434,-0.010180473,0.010560989,-0.0,0.0,0.0
562.5517,370.3966,98423127,0.95,0.09574468,-430.62595,3230.514,0.020272434,-0.010180473,0.010560989,-0.0,0.0,0.0
558.17505,406.6029,98423144,0.925,0.10638297,-407.61035,3165.0,0.020272434,-0.010180473,0.010560989,-0.0,0.0,0.0
555.0547,448.01453,98423160,0.9375,0.09574468,-249.23543,2728.204,0.020272434,-0.010180473,0.010560989,-1.5005995E-5,0.0,0.0
553.0089,486.61902,98423177,0.96250004,0.08510638,-126.06864,2528.1619,0.020272434,-0.010180473,0.010560989,-1.5005995E-5,0.0,0.0
551.1449,520.6371,98423194,0.925,0.10638297,-55.52627,2179.7085,0.020272434,-0.010180473,0.010560989,-1.5005995E-5,0.0,0.0
551.7982,544.92114,98423210,0.9375,0.08510638,42.499153,1622.5059,0.020272434,-0.010180473,0.010560989,-1.5005995E-5,0.0,0.0
552.1974,564.06323,98423227,0.925,0.10638297,87.765236,1006.78455,0.020272434,-0.010180473,0.010560989,3.355443E-6,0.0,0.0
552.7979,574.3042,98423244,0.9125,0.09574468,112.2377,496.06824,0.020272434,-0.010180473,0.010560989,3.355443E-6,0.0,0.0
553.2977,579.13635,98423261,0.9875,0.09574468,95.49742,32.65744,0.020272434,-0.010180473,0.010560989,3.355443E-6,0.0,0.0
554.3292,581.01404,98423277,1.225,0.12765957,68.255875,-253.41673,0.020272434,-0.010180473,0.010560989,3.355443E-6,0.0,0.0
557.0539,579.9546,98423294,1.375,0.12765957,99.369606,-358.39255,0.020272434,-0.010180473,0.010560989,5.0331622E-5,0.0,0.0
562.4929,565.35547,98423311,1.025,0.10638297,246.59792,-712.2008,0.020272434,-0.010180473,0.010560989,5.0331622E-5,0.0,0.0
571.86346,533.9221,98423327,0.975,0.10638297,489.29626,-1530.5302,0.020272434,-0.010180473,0.010560989,5.0331622E-5,0.0,0.0
581.73047,498.67957,98423344,0.95,0.09574468,706.1168,-2486.43,0.020272434,-0.010180473,0.010560989,5.0331622E-5,0.0,0.0
592.5871,462.94006,98423361,0.95,0.14893617,812.60956,-2987.3782,0.020272434,-0.010180473,0.010560989,7.592496E-5,0.0,0.0
602.9994,437.44397,98423378,0.95,0.08510638,766.2093,-2483.8977,0.020272434,-0.010180473,0.010560989,7.592496E-5,0.0,0.0
612.74146,416.13013,98423394,0.95,0.12765957,677.21216,-1563.4067,0.020272434,-0.010180473,0.010560989,7.592496E-5,0.0,0.0
621.67505,404.0747,98423411,0.96250004,0.10638297,552.4812,-718.8909,0.020272434,-0.010180473,0.010560989,7.592496E-5,0.0,0.0
631.92096,395.91504,98423428,0.95,0.11702127,525.29425,-190.80246,0.020272434,-0.010180473,0.010560989,2.3726541E-5,0.0,0.0
639.77997,394.37183,98423444,1.0125,0.12765957,513.34875,162.03308,0.020272434,-0.010180473,0.010560989,2.3726541E-5,0.0,0.0
642.6991,396.08704,98423461,1.0500001,0.14893617,351.38437,382.572,0.020272434,-0.010180473,0.010560989,2.3726541E-5,0.0,0.0
644.79205,401.60852,98423478,1.0625,0.12765957,109.34097,553.4493,0.020272434,-0.010180473,0.010560989,2.3726541E-5,0.0,0.0
645.2678,409.99084,98423495,1.0375,0.12765957,-97.53354,708.37134,-0.031782046,-0.16014457,0.07244873,-2.164193E-4,0.0,0.0
643.5718,420.2981,98423511,1.025,0.11702127,-205.92622,801.14764,-0.031782046,-0.16014457,0.07244873,-2.164193E-4,0.0,0.0
640.7959,430.7058,98423528,0.9875,0.11702127,-242.88171,818.39764,-0.031782046,-0.16014457,0.07244873,-2.164193E-4,0.0,0.0
636.3848,436.0299,98423545,0.95,0.10638297,-313.1984,666.92426,-0.031782046,-0.16014457,0.07244873,-2.164193E-4,0.0,0.0
626.3373,446.73718,98423561,0.95,0.11702127,-497.51117,535.3325,-0.031782046,-0.16014457,0.07244873,3.036993E-4,0.0,0.0
611.7998,460.54663,98423578,0.9375,0.12765957,-847.41223,640.7929,-0.031782046,-0.16014457,0.07244873,3.036993E-4,0.0,0.0
597.6889,471.87036,98423595,0.95,0.11702127,-1074.515,788.6291,-0.031782046,-0.16014457,0.07244873,3.036993E-4,0.0,0.0
582.5946,481.45813,98423612,1.0,0.10638297,-1170.6665,818.3038,-0.031782046,-0.16014457,0.07244873,3.036993E-4,0.0,0.0
574.00464,485.6764,98423628,1.0500001,0.10638297,-886.3318,485.93817,-0.031782046,-0.16014457,0.07244873,0.0,0.0,0.0
569.55994,487.50623,98423645,1.1125001,0.10638297,-396.96143,47.78971,-0.031782046,-0.16014457,0.07244873,0.0,0.0,0.0
568.3403,487.66467,98423662,1.125,0.10638297,-3.7756617,-169.47868,-0.031782046,-0.16014457,0.07244873,0.0,0.0,0.0
567.793,487.66467,98423678,1.1375,0.10638297,212.13644,-202.00406,-0.031782046,-0.16014457,0.07244873,0.0,0.0,0.0
568.34564,487.66467,98423695,1.0875,0.12765957,224.34554,-131.86496,-0.031782046,-0.16014457,0.07244873,-1.38348405E-5,0.0,0.0
572.1337,488.70508,98423712,0.975,0.10638297,256.2364,-38.65215,-0.031782046,-0.16014457,0.07244873,-1.38348405E-5,0.0,0.0
580.0146,492.97827,98423728,0.925,0.11702127,413.92374,120.51767,-0.031782046,-0.16014457,0.07244873,-1.38348405E-5,0.0,0.0
591.9087,501.21326,98423745,0.9875,0.12765957,697.97626,393.296,-0.031782046,-0.16014457,0.07244873,-1.38348405E-5,0.0,0.0
608.5248,508.6128,98423762,1.0125,0.10638297,1034.4319,593.827,-0.031782046,-0.16014457,0.07244873,-9.678568E-5,0.0,0.0
629.5982,513.82556,98423779,1.0,0.12765957,1365.2708,585.7499,-0.031782046,-0.16014457,0.07244873,-9.678568E-5,0.0,0.0
655.11334,514.3197,98423795,1.0125,0.11702127,1663.719,267.26318,-0.031782046,-0.16014457,0.07244873,-9.678568E-5,0.0,0.0
680.1214,510.73755,98423812,0.9875,0.12765957,1754.8248,-158.31354,-0.031782046,-0.16014457,0.07244873,-9.678568E-5,0.0,0.0
705.33966,502.67468,98423829,0.95,0.12765957,1765.2007,-544.2799,-0.031782046,-0.16014457,0.07244873,-4.2707805E-5,0.0,0.0
728.579,489.3098,98423845,0.9125,0.10638297,1569.5752,-880.05054,-0.031782046,-0.16014457,0.07244873,-4.2707805E-5,0.0,0.0
751.4477,471.7621,98423862,0.925,0.12765957,1377.6033,-1179.9194,-0.031782046,-0.16014457,0.07244873,-4.2707805E-5,0.0,0.0
769.59625,455.7881,98423879,0.9375,0.10638297,1212.1848,-1346.1423,-0.031782046,-0.16014457,0.07244873,-4.2707805E-5,0.0,0.0
780.01575,441.00146,98423896,0.95,0.10638297,811.5608,-1192.4777,-0.031782046,-0.16014457,0.07244873,1.38348405E-5,0.0,0.0
787.2933,426.99194,98423912,0.96250004,0.12765957,403.15836,-970.2291,-0.031782046,-0.16014457,0.07244873,1.38348405E-5,0.0,0.0
788.3948,416.6996,98423929,1.0375,0.12765957,-42.135693,-715.8232,-0.031782046,-0.16014457,0.07244873,1.38348405E-5,0.0,0.0
785.1865,411.6659,98423946,1.1625,0.12765957,-387.5819,-411.83566,-0.031782046,-0.16014457,0.07244873,1.38348405E-5,0.0,0.0
778.7701,409.47632,98423962,1.2125,0.12765957,-594.7288,-111.919,-0.031782046,-0.16014457,0.07244873,1.4517852E-4,0.0,0.0
771.32684,410.7202,98423979,1.1750001,0.12765957,-713.41254,224.87263,-0.031782046,-0.16014457,0.07244873,1.4517852E-4,0.0,0.0
765.63885,413.80505,98423996,1.1,0.12765957,-641.42737,393.09683,-0.031782046,-0.16014457,0.07244873,1.4517852E-4,0.0,0.0
758.1418,419.76025,98424013,0.975,0.12765957,-482.9849,452.0762,-0.031782046,-0.16014457,0.07244873,1.4517852E-4,0.0,0.0
737.8103,437.39966,98424029,0.9375,0.10638297,-789.6278,822.9715,0.054574355,-0.09611535,-0.0700407,1.224621E-4,0.0,0.0
720.846,455.42114,98424046,0.925,0.10638297,-1203.4036,1266.5464,0.054574355,-0.09611535,-0.0700407,1.224621E-4,0.0,0.0
704.60187,482.59412,98424063,0.9125,0.11702127,-1357.6398,1672.2556,0.054574355,-0.09611535,-0.0700407,1.224621E-4,0.0,0.0
694.96594,503.92737,98424079,0.8875,0.12765957,-1098.919,1863.9761,0.054574355,-0.09611535,-0.0700407,1.224621E-4,0.0,0.0
690.70276,524.42065,98424096,0.8875,0.08510638,-414.17313,1595.832,0.054574355,-0.09611535,-0.0700407,0.0,0.0,0.0
691.3139,538.1808,98424113,0.90000004,0.09574468,114.04578,1142.2056,0.054574355,-0.09611535,-0.0700407,0.0,0.0,0.0
694.059,547.21545,98424130,0.9375,0.11702127,402.12262,618.34924,0.054574355,-0.09611535,-0.0700407,0.0,0.0,0.0
698.00885,550.3988,98424146,0.9875,0.12765957,538.5351,90.91083,0.054574355,-0.09611535,-0.0700407,0.0,0.0,0.0
706.9432,556.1952,98424163,1.0500001,0.12765957,597.37,-43.39617,0.054574355,-0.09611535,-0.0700407,0.0,0.0,0.0
720.8553,557.85645,98424180,1.025,0.10638297,817.57544,-91.21034,0.054574355,-0.09611535,-0.0700407,0.0,0.0,0.0
733.891,553.4772,98424196,1.025,0.12765957,1029.7104,-163.06749,0.054574355,-0.09611535,-0.0700407,0.0,0.0,0.0
743.28253,544.59656,98424213,0.96250004,0.12765957,957.52954,-505.246,0.054574355,-0.09611535,-0.0700407,0.0,0.0,0.0
748.86707,535.7157,98424230,0.9375,0.12765957,559.6102,-812.3431,0.054574355,-0.09611535,-0.0700407,-1.8561364E-4,0.0,0.0
756.76025,514.8185,98424247,0.9125,0.12765957,271.5139,-1150.6619,0.054574355,-0.09611535,-0.0700407,-1.8561364E-4,0.0,0.0
761.3627,495.1714,98424263,0.95,0.09574468,182.23886,-1415.4706,0.054574355,-0.09611535,-0.0700407,-1.8561364E-4,0.0,0.0
762.22974,470.61877,98424280,0.95,0.12765957,101.7912,-1611.4617,0.054574355,-0.09611535,-0.0700407,-1.8561364E-4,0.0,0.0
761.2531,453.19763,98424297,0.975,0.11702127,-51.878704,-1560.905,0.054574355,-0.09611535,-0.0700407,-7.5029975E-6,0.0,0.0
759.1623,442.9353,98424313,1.0,0.09574468,-248.65942,-1043.4884,0.054574355,-0.09611535,-0.0700407,-7.5029975E-6,0.0,0.0
757.6514,438.51343,98424330,1.0625,0.09574468,-293.9369,-382.7723,0.054574355,-0.09611535,-0.0700407,-7.5029975E-6,0.0,0.0
757.2313,437.90845,98424347,1.2125,0.12765957,-171.80971,131.38878,0.054574355,-0.09611535,-0.0700407,-7.5029975E-6,0.0,0.0
757.2313,439.0935,98424363,1.3375,0.12765957,-43.38709,421.9049,0.054574355,-0.09611535,-0.0700407,1.710946E-5,0.0,0.0
757.2313,443.04126,98424380,1.325,0.12765957,35.222343,474.02878,0.054574355,-0.09611535,-0.0700407,1.710946E-5,0.0,0.0
757.4366,446.9995,98424397,1.1375,0.12765957,45.29383,418.37622,0.054574355,-0.09611535,-0.0700407,1.710946E-5,0.0,0.0
761.3408,462.76892,98424414,0.9875,0.12765957,119.08418,668.60034,0.054574355,-0.09611535,-0.0700407,1.710946E-5,0.0,0.0
767.98846,484.7776,98424430,1.0,0.10638297,334.9402,1266.8582,0.054574355,-0.09611535,-0.0700407,1.710946E-5,0.0,0.0
774.7511,502.07214,98424447,1.0,0.10638297,526.2363,1581.0306,0.054574355,-0.09611535,-0.0700407,1.710946E-5,0.0,0.0
781.59875,518.1708,98424464,1.0125,0.10638297,586.2212,1464.4847,0.054574355,-0.09611535,-0.0700407,1.710946E-5,0.0,0.0
785.90485,525.30664,98424480,1.025,0.10638297,443.18906,845.2465,0.054574355,-0.09611535,-0.0700407,1.710946E-5,0.0,0.0
791.63544,532.01465,98424497,1.0500001,0.10638297,306.89075,264.92245,0.054574355,-0.09611535,-0.0700407,1.4455659E-4,0.0,0.0
799.27985,535.6576,98424514,1.075,0.12765957,344.90256,33.44996,0.054574355,-0.09611535,-0.0700407,1.4455659E-4,0.0,0.0
809.3849,534.6471,98424531,1.0875,0.12765957,505.8994,-153.97543,0.054574355,-0.09611535,-0.0700407,1.4455659E-4,0.0,0.0
818.11804,526.0364,98424547,1.0375,0.11702127,646.5883,-460.98257,0.054574355,-0.09611535,-0.0700407,1.4455659E-4,0.0,0.0
823.2468,514.18835,98424564,0.975,0.12765957,552.51483,-808.0543,0.011659503,0.21110773,0.12796688,-1.7273163E-4,0.0,0.0
826.0923,497.9265,98424581,0.96250004,0.08510638,299.5952,-1167.1228,0.011659503,0.21110773,0.12796688,-1.7273163E-4,0.0,0.0
826.4328,473.78955,98424597,0.9375,0.12765957,-39.646526,-1486.9154,0.011659503,0.21110773,0.12796688,-1.7273163E-4,0.0,0.0
826.17804,449.0747,98424614,0.95,0.08510638,-169.06268,-1773.3104,0.011659503,0.21110773,0.12796688,-1.7273163E-4,0.0,0.0
825.2092,418.72302,98424631,0.95,0.12765957,-182.42139,-1947.4799,0.011659503,0.21110773,0.12796688,5.249938E-4,-4.3749482E-5,0.0
823.2535,388.54016,98424648,0.96250004,0.08510638,-181.11958,-2074.5337,0.011659503,0.21110773,0.12796688,5.249938E-4,-4.3749482E-5,0.0
821.3617,355.6731,98424664,0.95,0.12765957,-172.14989,-2063.0017,0.011659503,0.21110773,0.12796688,5.249938E-4,-4.3749482E-5,0.0
818.92377,329.3003,98424681,0.95,0.09574468,-176.5476,-1905.57,0.011659503,0.21110773,0.12796688,5.249938E-4,-4.3749482E-5,0.0
818.2115,300.0216,98424698,0.96250004,0.14893617,-131.59589,-1741.3871,0.011659503,0.21110773,0.12796688,0.0,0.0,0.0
817.70166,280.46594,98424714,0.95,0.09574468,-51.772858,-1385.5764,0.011659503,0.21110773,0.12796688,0.0,0.0,0.0
817.75696,264.8949,98424731,0.96250004,0.12765957,17.470238,-1021.59,0.011659503,0.21110773,0.12796688,0.0,0.0,0.0
818.7895,251.23853,98424748,0.96250004,0.14893617,71.30309,-656.8101,0.011659503,0.21110773,0.12796688,0.0,0.0,0.0
820.3436,246.40796,98424765,1.0125,0.12765957,121.11072,-286.93036,0.011659503,0.21110773,0.12796688,-3.0198984E-5,0.0,0.0
822.8,245.9917,98424781,1.1625,0.12765957,151.28345,110.21242,0.011659503,0.21110773,0.12796688,-3.0198984E-5,0.0,0.0
825.3518,249.2915,98424798,1.2125,0.12765957,196.07335,379.12024,0.011659503,0.21110773,0.12796688,-3.0198984E-5,0.0,0.0
828.2145,258.0254,98424815,1.1125001,0.12765957,205.90019,695.46387,0.011659503,0.21110773,0.12796688,-3.0198984E-5,0.0,0.0
833.1173,275.80188,98424831,1.0375,0.10638297,251.06865,1041.1697,0.011659503,0.21110773,0.12796688,-2.164193E-4,0.0,0.0
842.2023,302.318,98424848,1.0375,0.12765957,431.0484,1582.0331,0.011659503,0.21110773,0.12796688,-2.164193E-4,0.0,0.0
851.46747,335.51636,98424865,1.0500001,0.12765957,632.14044,2231.9497,0.011659503,0.21110773,0.12796688,-2.164193E-4,0.0,0.0
859.3058,374.0747,98424881,0.9875,0.11702127,683.4166,2648.8774,0.011659503,0.21110773,0.12796688,-2.164193E-4,0.0,0.0
866.135,410.78625,98424898,0.9875,0.14893617,556.27167,2671.766,0.011659503,0.21110773,0.12796688,-2.5324104E-4,0.0,0.0
872.1551,443.9348,98424915,0.96250004,0.11702127,377.71362,2486.4707,0.011659503,0.21110773,0.12796688,-2.5324104E-4,0.0,0.0
878.4058,477.06445,98424932,0.96250004,0.10638297,310.1413,2172.2412,0.011659503,0.21110773,0.12796688,-2.5324104E-4,0.0,0.0
884.1378,494.94507,98424948,0.9875,0.10638297,314.92004,1547.6157,0.011659503,0.21110773,0.12796688,-2.5324104E-4,0.0,0.0
890.182,507.20105,98424965,0.96250004,0.10638297,342.11792,791.58435,0.011659503,0.21110773,0.12796688,7.592496E-5,0.0,0.0
898.4645,516.2184,98424982,0.975,0.10638297,403.85446,186.0024,0.011659503,0.21110773,0.12796688,7.592496E-5,0.0,0.0
908.07056,522.54626,98424998,0.96250004,0.12765957,526.39417,-89.9814,0.011659503,0.21110773,0.12796688,7.592496E-5,0.0,0.0
920.2642,521.4667,98425015,0.925,0.12765957,703.8476,-136.15512,0.011659503,0.21110773,0.12796688,7.592496E-5,0.0,0.0
939.609,512.1217,98425032,0.8625,0.11702127,991.69525,-465.11328,0.011659503,0.21110773,0.12796688,-2.0410349E-5,0.0,0.0
948.669,496.54968,98425043,0.2125,0.08510638,1172.1823,-924.1817,0.011659503,0.21110773,0.12796688,-2.0410349E-5,0.0,0.0
948.669,496.54968,98425051,0.2125,0.08510638,1172.1823,-924.1817,0.011659503,0.21110773,0.12796688,-2.0410349E-5,0.0,0.0
763.72925,354.38916,98425220,1.2375001,0.14893617,0.0,0.0,0.1453276,-0.13511395,-0.017625809,1.342177E-5,0.0,0.0
763.72925,354.38916,98425249,1.3875,0.14893617,-0.0014400143,-9.43795E-4,0.1453276,-0.13511395,-0.017625809,-0.0,0.0,0.0
773.7268,356.84033,98425266,1.2,0.12765957,574.9011,140.95496,0.1453276,-0.13511395,-0.017625809,-0.0,0.0,0.0
802.69604,365.57703,98425283,1.0,0.14893617,1845.1842,517.31226,0.1453276,-0.13511395,-0.017625809,-0.0,0.0,0.0
835.0187,376.7129,98425299,1.0125,0.11702127,2509.4033,794.3022,0.1453276,-0.13511395,-0.017625809,1.4517852E-4,0.0,0.0
870.5279,386.87512,98425316,0.9875,0.14893617,2834.8577,888.7732,0.1453276,-0.13511395,-0.017625809,1.4517852E-4,0.0,0.0
899.83154,394.4054,98425333,0.9375,0.14893617,2587.7788,769.3982,0.1453276,-0.13511395,-0.017625809,1.4517852E-4,0.0,0.0
932.933,400.83984,98425349,0.8875,0.11702127,2151.5188,501.954,0.1453276,-0.13511395,-0.017625809,1.4517852E-4,0.0,0.0
959.5675,407.46082,98425366,0.7625,0.12765957,1778.8419,308.86853,0.1453276,-0.13511395,-0.017625809,-5.3687072E-5,0.0,0.0
972.1614,410.36487,98425373,0.45000002,0.12765957,1694.8245,279.32892,0.1453276,-0.13511395,-0.017625809,-5.3687072E-5,0.0,0.0
972.1614,410.36487,98425383,0.45000002,0.12765957,1694.8245,279.32892,0.1453276,-0.13511395,-0.017625809,-5.3687072E-5,0.0,0.0
1008.64954,391.7063,98425541,1.0125,0.10638297,0.0,0.0,0.1453276,-0.13511395,-0.017625809,-9.034802E-5,0.0,0.0
1008.64954,391.7063,98425567,1.1625,0.11702127,0.033533067,0.017455747,0.1453276,-0.13511395,-0.017625809,-1.342177E-5,0.0,0.0
1008.64954,391.7063,98425583,1.0500001,0.10638297,0.03310632,0.011523442,0.1453276,-0.13511395,-0.017625809,-1.342177E-5,0.0,0.0
1008.64954,391.7063,98425600,0.875,0.11702127,-0.048856635,-0.018795973,0.1453276,-0.13511395,-0.017625809,-1.342177E-5,0.0,0.0
981.937,422.29663,98425617,0.825,0.09574468,-1086.2776,1234.299,0.1453276,-0.13511395,-0.017625809,-1.342177E-5,0.0,0.0
967.1144,442.02063,98425633,0.8,0.12765957,-1406.2786,1680.1932,-0.035737902,-0.15609097,0.033899307,2.8649226E-4,0.0,0.0
952.5082,474.8098,98425650,0.7875,0.08510638,-1498.6505,2273.8762,-0.035737902,-0.15609097,0.033899307,2.8649226E-4,0.0,0.0
947.22064,490.71033,98425667,0.8,0.09574468,-904.513,1994.2606,-0.035737902,-0.15609097,0.033899307,2.8649226E-4,0.0,0.0
945.67,503.3661,98425684,0.83750004,0.10638297,-52.34803,1074.1558,-0.035737902,-0.15609097,0.033899307,2.8649226E-4,0.0,0.0
947.73584,512.6609,98425700,0.90000004,0.10638297,305.20465,513.7139,-0.035737902,-0.15609097,0.033899307,0.0,0.0,0.0
953.1177,517.5073,98425717,0.96250004,0.12765957,560.62524,-0.82459444,-0.035737902,-0.15609097,0.033899307,0.0,0.0,0.0
966.7532,520.4938,98425734,0.975,0.12765957,806.5592,-118.618065,-0.035737902,-0.15609097,0.033899307,0.0,0.0,0.0
985.4044,516.9077,98425750,0.9375,0.09574468,1209.3134,-223.51743,-0.035737902,-0.15609097,0.033899307,0.0,0.0,0.0
998.89954,509.46887,98425767,0.8875,0.10638297,1321.8228,-539.7695,-0.035737902,-0.15609097,0.033899307,-0.0,0.0,0.0
1015.2987,495.88464,98425784,0.875,0.11702127,1238.001,-861.374,-0.035737902,-0.15609097,0.033899307,-0.0,0.0,0.0
1028.3235,478.06836,98425801,0.8875,0.12765957,989.6689,-1227.755,-0.035737902,-0.15609097,0.033899307,-0.0,0.0,0.0
1039.4669,451.08325,98425817,0.925,0.10638297,731.5397,-1682.0801,-0.035737902,-0.15609097,0.033899307,-0.0,0.0,0.0
1038.5521,430.48877,98425834,0.95,0.11702127,305.0559,-1776.8329,-0.035737902,-0.15609097,0.033899307,0.0,0.0,0.0
1033.1157,412.96936,98425851,0.9875,0.14893617,-380.87192,-1479.817,-0.035737902,-0.15609097,0.033899307,0.0,0.0,0.0
1027.6173,404.75354,98425867,1.0375,0.12765957,-767.0721,-824.0304,-0.035737902,-0.15609097,0.033899307,0.0,0.0,0.0
1019.1062,399.39087,98425884,1.0500001,0.12765957,-849.31116,-190.13203,-0.035737902,-0.15609097,0.033899307,0.0,0.0,0.0
1011.8983,398.81433,98425901,1.075,0.10638297,-681.58093,169.20564,-0.035737902,-0.15609097,0.033899307,1.6441657E-4,0.0,0.0
1006.97656,400.4463,98425918,1.0625,0.11702127,-487.30704,407.6073,-0.035737902,-0.15609097,0.033899307,1.6441657E-4,0.0,0.0
1004.24243,402.287,98425934,1.0375,0.11702127,-279.7048,402.4841,-0.035737902,-0.15609097,0.033899307,1.6441657E-4,0.0,0.0
1001.64844,406.81958,98425951,0.925,0.10638297,-85.947266,365.66022,-0.035737902,-0.15609097,0.033899307,1.6441657E-4,0.0,0.0
1001.693,411.47363,98425968,0.8625,0.09574468,44.77525,380.8778,-0.035737902,-0.15609097,0.033899307,7.5664726E-4,-5.0443152E-5,0.0
1003.31494,418.05505,98425984,0.83750004,0.08510638,132.06223,421.65012,-0.035737902,-0.15609097,0.033899307,7.5664726E-4,-5.0443152E-5,0.0
1007.1146,427.59644,98426001,0.85,0.08510638,252.05687,550.9791,-0.035737902,-0.15609097,0.033899307,7.5664726E-4,-5.0443152E-5,0.0
1013.6926,434.53394,98426018,0.925,0.11702127,395.63293,579.9583,-0.035737902,-0.15609097,0.033899307,7.5664726E-4,-5.0443152E-5,0.0
1031.0807,446.3744,98426034,0.96250004,0.12765957,795.9257,681.24835,-0.035737902,-0.15609097,0.033899307,-9.782707E-5,0.0,0.0
1050.6761,452.08533,98426051,0.95,0.11702127,1316.3629,602.06915,-0.035737902,-0.15609097,0.033899307,-9.782707E-5,0.0,0.0
1074.3646,452.01538,98426068,0.96250004,0.14893617,1684.4572,258.1465,-0.035737902,-0.15609097,0.033899307,-9.782707E-5,0.0,0.0
1091.7921,446.29065,98426085,0.9375,0.10638297,1655.7344,-258.48764,-0.035737902,-0.15609097,0.033899307,-9.782707E-5,0.0,0.0
1102.5588,436.75513,98426101,0.9125,0.10638297,1070.8519,-771.4835,-0.035737902,-0.15609097,0.033899307,-2.02052E-4,0.0,0.0
1111.8398,423.29443,98426118,0.90000004,0.12765957,512.683,-1042.1151,-0.035737902,-0.15609097,0.033899307,-2.02052E-4,0.0,0.0
1120.7467,399.01086,98426135,0.9125,0.12765957,229.29079,-1415.2073,-0.035737902,-0.15609097,0.033899307,-2.02052E-4,0.0,0.0
1122.6124,379.5536,98426151,0.925,0.09574468,69.39317,-1617.7133,-0.035737902,-0.15609097,0.033899307,-2.02052E-4,0.0,0.0
1119.0073,359.20117,98426168,0.9375,0.12765957,-161.02382,-1560.751,0.0034096837,0.051127195,-0.004880905,-1.0610839E-5,0.0,0.0
1113.7927,347.48193,98426185,0.975,0.10638297,-483.82126,-1158.7823,0.0034096837,0.051127195,-0.004880905,-1.0610839E-5,0.0,0.0
1109.5891,341.2002,98426202,0.975,0.10638297,-605.2903,-529.8377,0.0034096837,0.051127195,-0.004880905,-1.0610839E-5,0.0,0.0
1104.2665,336.9021,98426218,1.025,0.10638297,-534.40326,-69.229836,0.0034096837,0.051127195,-0.004880905,-1.0610839E-5,0.0,0.0
1100.5929,336.61914,98426235,1.1,0.12765957,-359.04263,193.4238,0.0034096837,0.051127195,-0.004880905,9.437274E-4,-1.1796592E-4,0.0
1098.3943,337.50757,98426252,1.125,0.12765957,-193.42026,263.43848,0.0034096837,0.051127195,-0.004880905,9.437274E-4,-1.1796592E-4,0.0
1096.3572,340.22192,98426268,1.1625,0.14893617,-99.45198,287.27014,0.0034096837,0.051127195,-0.004880905,9.437274E-4,-1.1796592E-4,0.0
1096.121,343.0293,98426285,1.1750001,0.12765957,8.233573,325.85733,0.0034096837,0.051127195,-0.004880905,9.437274E-4,-1.1796592E-4,0.0
1097.2806,344.3136,98426302,1.075,0.12765957,87.83222,237.02068,0.0034096837,0.051127195,-0.004880905,0.0,0.0,0.0
1102.8027,351.68164,98426319,0.9125,0.10638297,236.33298,260.73492,0.0034096837,0.051127195,-0.004880905,0.0,0.0,0.0
1115.0541,368.93225,98426335,0.925,0.08510638,592.83356,678.1949,0.0034096837,0.051127195,-0.004880905,0.0,0.0,0.0
1129.6671,387.54663,98426352,0.9375,0.12765957,996.4528,1217.045,0.0034096837,0.051127195,-0.004880905,0.0,0.0,0.0
1142.7513,405.2279,98426369,0.95,0.10638297,1133.4556,1488.435,0.0034096837,0.051127195,-0.004880905,-6.710883E-5,0.0,0.0
1152.6201,420.96606,98426385,0.925,0.09574468,957.285,1350.9827,0.0034096837,0.051127195,-0.004880905,-6.710883E-5,0.0,0.0
1162.5757,440.8473,98426402,0.9125,0.10638297,661.52576,1136.3207,0.0034096837,0.051127195,-0.004880905,-6.710883E-5,0.0,0.0
1166.0228,452.99646,98426419,0.9125,0.10638297,327.09677,927.81384,0.0034096837,0.051127195,-0.004880905,-6.710883E-5,0.0,0.0
1165.3978,464.9248,98426436,0.9125,0.09574468,1.3308438,763.5567,0.0034096837,0.051127195,-0.004880905,0.0,0.0,0.0
1160.5479,475.31836,98426452,0.9125,0.08510638,-334.55606,599.3619,0.0034096837,0.051127195,-0.004880905,0.0,0.0,0.0
1155.8234,481.47375,98426469,0.9125,0.08510638,-572.0258,346.77737,0.0034096837,0.051127195,-0.004880905,0.0,0.0,0.0
1145.7876,490.27356,98426486,0.925,0.11702127,-680.2976,301.45044,0.0034096837,0.051127195,-0.004880905,0.0,0.0,0.0
1132.3445,496.77625,98426502,1.0,0.12765957,-852.59235,324.21243,0.0034096837,0.051127195,-0.004880905,0.0,0.0,0.0
1121.4103,498.32666,98426519,1.0125,0.10638297,-939.342,202.42418,0.0034096837,0.051127195,-0.004880905,0.0,0.0,0.0
1115.0597,495.97742,98426536,1.025,0.10638297,-764.49524,-60.250393,0.0034096837,0.051127195,-0.004880905,0.0,0.0,0.0
1112.2214,492.29492,98426552,0.9125,0.09574468,-343.3393,-356.1548,0.0034096837,0.051127195,-0.004880905,0.0,0.0,0.0
1111.616,489.44165,98426562,0.71250004,0.08510638,-107.55789,-490.03687,0.0034096837,0.051127195,-0.004880905,0.0010905071,-6.058373E-5,0.0
1111.616,489.44165,98426568,0.71250004,0.08510638,-107.55789,-490.03687,0.0034096837,0.051127195,-0.004880905,0.0010905071,-6.058373E-5,0.0
