x,y,timestamp,pressure,fingerarea,velocityx,velocityy,accelx,accely,accelz,gyrox,gyroy,gyroz
265.39148,285.97437,126823305,0.8625,0.12765957,0.0,0.0,-0.028056324,0.010129601,0.01734066,0.0,0.0,0.0
265.39148,285.97437,126823327,0.90000004,0.12765957,0.02426142,0.029335927,-0.028056324,0.010129601,0.01734066,0.0,0.0,0.0
260.8352,296.7732,126823344,0.83750004,0.12765957,-338.3821,801.98883,-0.028056324,0.010129601,0.01734066,0.0,0.0,0.0
249.80197,322.97693,126823360,0.85,0.10638297,-818.66943,1948.0751,-0.028056324,0.010129601,0.01734066,0.0,0.0,0.0
234.84274,348.27393,126823377,0.85,0.10638297,-1038.8309,2099.901,-0.028056324,0.010129601,0.01734066,0.0,0.0,0.0
216.92633,379.23328,126823394,0.8625,0.10638297,-1271.1156,2299.1587,-0.028056324,0.010129601,0.01734066,0.0,0.0,0.0
205.44684,403.38342,126823411,0.875,0.12765957,-1173.1501,2053.8572,-0.028056324,0.010129601,0.01734066,0.0,0.0,0.0
194.38977,420.9309,126823427,0.8625,0.10638297,-909.7325,1537.9113,-0.028056324,0.010129601,0.01734066,0.0,0.0,0.0
174.52995,446.14673,126823444,0.8625,0.12765957,-903.58,1311.5709,-0.028056324,0.010129601,0.01734066,0.0,0.0,0.0
159.8965,467.20654,126823461,0.875,0.11702127,-924.1746,1159.5592,-0.028056324,0.010129601,0.01734066,0.0,0.0,0.0
143.66759,484.78894,126823477,0.90000004,0.12765957,-1033.6436,1100.2579,-0.028056324,0.010129601,0.01734066,0.0,0.0,0.0
129.11389,495.13782,126823494,0.9125,0.10638297,-1011.5522,864.0529,-0.028056324,0.010129601,0.01734066,0.0,0.0,0.0
118.96744,498.8147,126823511,0.975,0.12765957,-721.1383,242.15047,-0.0064450577,0.008103684,0.04587269,0.0,0.0,0.0
110.53638,496.72363,126823528,0.975,0.12765957,-498.19885,-270.6722,-0.0064450577,0.008103684,0.04587269,0.0,0.0,0.0
103.65753,488.04382,126823544,0.95,0.14893617,-291.96463,-742.37915,-0.0064450577,0.008103684,0.04587269,0.0,0.0,0.0
93.82077,466.50378,126823561,0.96250004,0.14893617,-293.69278,-1297.0449,-0.0064450577,0.008103684,0.04587269,0.0,0.0,0.0
87.83385,448.16028,126823578,0.9125,0.10638297,-371.52225,-1626.0527,-0.0064450577,0.008103684,0.04587269,0.0,0.0,0.0
85.949875,426.14856,126823594,0.8875,0.10638297,-278.75577,-1735.3353,-0.0064450577,0.008103684,0.04587269,0.0,0.0,0.0
91.045074,402.93726,126823611,0.9125,0.12765957,133.92694,-1648.8375,-0.0064450577,0.008103684,0.04587269,0.0,0.0,0.0
94.61636,389.32764,126823628,0.9875,0.12765957,460.28732,-1269.9894,-0.0064450577,0.008103684,0.04587269,0.0,0.0,0.0
96.13222,386.0453,126823645,0.9875,0.12765957,481.30206,-596.59625,-0.0064450577,0.008103684,0.04587269,0.0,0.0,0.0
98.70598,384.36707,126823661,1.0,0.12765957,309.01437,36.602974,-0.0064450577,0.008103684,0.04587269,0.0,0.0,0.0
100.7829,384.59827,126823678,0.9875,0.12765957,131.80467,449.45352,-0.0064450577,0.008103684,0.04587269,0.0,0.0,0.0
105.62523,390.39355,126823695,0.925,0.10638297,126.65699,569.9981,-0.0064450577,0.008103684,0.04587269,0.0,0.0,0.0
116.75305,407.80298,126823711,0.925,0.10638297,472.3039,815.2114,-0.0064450577,0.008103684,0.04587269,0.0,0.0,0.0
129.96733,429.44543,126823728,0.9125,0.12765957,836.54016,1449.4241,-0.0064450577,0.008103684,0.04587269,0.0,0.0,0.0
144.87364,455.57715,126823745,0.90000004,0.12765957,1071.232,1873.2935,-0.0064450577,0.008103684,0.04587269,0.0,0.0,0.0
156.91719,477.20984,126823762,0.9125,0.10638297,1095.8743,1991.6458,-0.0064450577,0.008103684,0.04587269,0.0,0.0,0.0
172.10939,493.24707,126823778,0.90000004,0.10638297,913.255,1460.0844,-0.0064450577,0.008103684,0.04587269,0.0,0.0,0.0
189.56561,504.90125,126823795,0.875,0.12765957,947.53674,843.60455,-0.0064450577,0.008103684,0.04587269,0.0,0.0,0.0
211.71362,513.37085,126823812,0.8875,0.12765957,1182.805,375.30246,-0.0064450577,0.008103684,0.04587269,0.0,0.0,0.0
237.20886,516.1566,126823828,0.875,0.12765957,1544.103,19.111624,-0.0064450577,0.008103684,0.04587269,0.0,0.0,0.0
262.36322,515.0736,126823845,0.8875,0.11702127,1758.5797,-157.11127,-0.0064450577,0.008103684,0.04587269,0.0,0.0,0.0
290.63245,511.068,126823862,0.925,0.11702127,1812.8129,-428.6368,-0.0064450577,0.008103684,0.04587269,0.0,0.0,0.0
316.87827,501.5498,126823879,0.875,0.12765957,1784.272,-652.1473,-0.0064450577,0.008103684,0.04587269,0.0,0.0,0.0
343.93082,482.3822,126823895,0.875,0.11702127,1701.635,-1051.5276,-0.0064450577,0.008103684,0.04587269,0.0,0.0,0.0
369.14087,460.93018,126823912,0.8875,0.14893617,1582.6656,-1531.9133,-0.0064450577,0.008103684,0.04587269,0.0,0.0,0.0
391.21927,440.6178,126823929,0.8875,0.10638297,1404.1423,-1698.0496,-0.0064450577,0.008103684,0.04587269,0.0,0.0,0.0
406.758,421.94763,126823945,0.90000004,0.14893617,1099.6218,-1523.762,-0.0064450577,0.008103684,0.04587269,0.0,0.0,0.0
416.30597,409.90332,126823962,0.85,0.14893617,614.82996,-1025.0759,-0.0064450577,0.008103684,0.04587269,0.0,0.0,0.0
420.49698,404.55286,126823979,0.8625,0.12765957,126.86116,-443.4301,-0.0064450577,0.008103684,0.04587269,0.0,0.0,0.0
421.3407,402.50598,126823996,0.95,0.14893617,-229.0129,24.966375,-0.0064450577,0.008103684,0.04587269,0.0,0.0,0.0
420.8729,401.47986,126824012,1.0125,0.14893617,-351.00827,294.2603,-0.0064450577,0.008103684,0.04587269,0.0,0.0,0.0
418.31122,402.38184,126824029,0.9875,0.12765957,-347.29672,294.5296,-0.0064450577,0.008103684,0.04587269,0.0,0.0,0.0
407.75574,405.20837,126824046,0.925,0.11702127,-541.7272,276.75824,-0.0064450577,0.008103684,0.04587269,0.0,0.0,0.0
395.04657,411.661,126824062,0.8625,0.12765957,-830.05804,376.90714,-0.02115605,-0.009517059,0.03669834,0.0,0.0,0.0
375.4609,426.81738,126824079,0.83750004,0.12765957,-1215.586,730.4246,-0.02115605,-0.009517059,0.03669834,0.0,0.0,0.0
351.61722,444.4807,126824096,0.8625,0.10638297,-1587.2935,1153.9216,-0.02115605,-0.009517059,0.03669834,0.0,0.0,0.0
330.89734,461.74,126824112,0.875,0.12765957,-1706.4006,1391.6969,-0.02115605,-0.009517059,0.03669834,0.0,0.0,0.0
317.8576,479.25073,126824129,0.875,0.12765957,-1303.2102,1337.9542,-0.02115605,-0.009517059,0.03669834,0.0,0.0,0.0
307.89612,496.14392,126824146,0.8875,0.12765957,-690.28656,1109.378,-0.02115605,-0.009517059,0.03669834,0.0,0.0,0.0
302.87927,512.7489,126824163,0.8875,0.12765957,-193.26482,1014.7375,-0.02115605,-0.009517059,0.03669834,0.0,0.0,0.0
305.3453,524.4491,126824179,0.85,0.11702127,227.363,860.68884,-0.02115605,-0.009517059,0.03669834,0.0,0.0,0.0
309.9887,532.4608,126824196,0.85,0.09574468,503.06006,578.78906,-0.02115605,-0.009517059,0.03669834,0.0,0.0,0.0
318.3112,541.36304,126824213,0.85,0.10638297,731.1653,327.22525,-0.02115605,-0.009517059,0.03669834,0.0,0.0,0.0
336.61377,549.7594,126824229,0.85,0.10638297,1069.4376,272.70737,-0.02115605,-0.009517059,0.03669834,0.0,0.0,0.0
355.31155,551.63684,126824246,0.8625,0.14893617,1351.4348,223.71053,-0.02115605,-0.009517059,0.03669834,0.0,0.0,0.0
374.6526,549.6294,126824263,0.90000004,0.11702127,1491.2208,-31.439919,-0.02115605,-0.009517059,0.03669834,0.0,0.0,0.0
391.22235,538.631,126824280,0.90000004,0.11702127,1376.5935,-524.9507,-0.02115605,-0.009517059,0.03669834,0.0,0.0,0.0
404.08026,523.6294,126824296,0.8875,0.12765957,1014.7399,-1066.001,-0.02115605,-0.009517059,0.03669834,0.0,0.0,0.0
415.32083,500.2777,126824313,0.8875,0.12765957,679.6523,-1511.2914,-0.02115605,-0.009517059,0.03669834,0.0,0.0,0.0
420.78702,475.00732,126824330,0.90000004,0.14893617,375.86786,-1858.2473,-0.02115605,-0.009517059,0.03669834,0.0,0.0,0.0
421.08398,456.92676,126824346,0.9125,0.12765957,5.250005,-1748.7579,-0.02115605,-0.009517059,0.03669834,0.0,0.0,0.0
419.76663,446.01794,126824363,0.8875,0.11702127,-284.01443,-1134.0161,-0.02115605,-0.009517059,0.03669834,0.0,0.0,0.0
418.52103,439.43457,126824380,0.95,0.11702127,-391.4956,-396.42398,-0.02115605,-0.009517059,0.03669834,0.0,0.0,0.0
417.46896,437.2456,126824397,0.95,0.12765957,-303.36874,166.46953,-0.02115605,-0.009517059,0.03669834,0.0,0.0,0.0
416.42645,437.0199,126824413,1.0,0.14893617,-135.08908,318.0569,-0.02115605,-0.009517059,0.03669834,0.0,0.0,0.0
415.4108,439.4431,126824430,1.0500001,0.14893617,-62.09842,330.4582,-0.02115605,-0.009517059,0.03669834,0.0,0.0,0.0
413.83987,444.13953,126824447,0.9375,0.12765957,-71.27335,411.495,-0.02115605,-0.009517059,0.03669834,0.0,0.0,0.0
412.80136,455.46362,126824463,0.8625,0.12765957,-80.61249,604.733,-0.02115605,-0.009517059,0.03669834,0.0,0.0,0.0
413.428,479.6986,126824480,0.8625,0.10638297,-28.8751,1210.2341,-0.02115605,-0.009517059,0.03669834,0.0,0.0,0.0
416.4698,496.5569,126824497,0.85,0.12765957,101.87645,1558.2498,-0.02115605,-0.009517059,0.03669834,0.0,0.0,0.0
421.62943,510.95117,126824514,0.83750004,0.12765957,292.6837,1452.2842,-0.02115605,-0.009517059,0.03669834,0.0,0.0,0.0
427.14307,521.6111,126824530,0.8875,0.10638297,436.38058,1002.78064,-0.02115605,-0.009517059,0.03669834,0.0,0.0,0.0
436.01212,529.6887,126824547,0.8625,0.09574468,525.7873,324.38913,-0.02115605,-0.009517059,0.03669834,0.0,0.0,0.0
453.1991,535.7732,126824564,0.875,0.10638297,850.7557,219.7179,-0.02115605,-0.009517059,0.03669834,0.0,0.0,0.0
469.515,534.49097,126824580,0.8625,0.14893617,1171.9198,-0.06278197,-0.02115605,-0.009517059,0.03669834,0.0,0.0,0.0
487.73883,526.4297,126824597,0.85,0.12765957,1345.4791,-423.77557,-0.02115605,-0.009517059,0.03669834,0.0,0.0,0.0
506.09882,513.8755,126824614,0.8875,0.11702127,1322.5858,-893.921,-0.02115605,-0.009517059,0.03669834,0.0,0.0,0.0
520.03503,495.15295,126824631,0.85,0.12765957,1076.1714,-1327.1354,0.0150751695,0.008386359,-0.018640518,0.0,0.0,0.0
536.6175,463.1577,126824647,0.85,0.14893617,961.66046,-1904.4363,0.0150751695,0.008386359,-0.018640518,0.0,0.0,0.0
560.4585,414.30322,126824664,0.825,0.12765957,1079.1392,-2675.8047,0.0150751695,0.008386359,-0.018640518,0.0,0.0,0.0
574.11487,383.49988,126824681,0.8125,0.10638297,1105.6392,-2968.1145,0.0150751695,0.008386359,-0.018640518,0.0,0.0,0.0
588.3362,341.4441,126824697,0.83750004,0.11702127,1041.3873,-3007.4888,0.0150751695,0.008386359,-0.018640518,0.0,0.0,0.0
601.24115,297.03076,126824714,0.85,0.14893617,813.3345,-2782.8762,0.0150751695,0.008386359,-0.018640518,0.0,0.0,0.0
605.89716,271.13745,126824731,0.85,0.10638297,394.63553,-2162.7961,0.0150751695,0.008386359,-0.018640518,0.0,0.0,0.0
608.27985,244.15271,126824748,0.825,0.12765957,50.891514,-1676.0779,0.0150751695,0.008386359,-0.018640518,0.0,0.0,0.0
607.76605,232.15784,126824764,0.8625,0.10638297,-185.47617,-877.544,0.0150751695,0.008386359,-0.018640518,0.0,0.0,0.0
605.68195,225.38074,126824781,0.8875,0.10638297,-335.26407,-187.29924,0.0150751695,0.008386359,-0.018640518,0.0,0.0,0.0
603.6144,223.18652,126824798,0.9375,0.12765957,-349.7133,316.0514,0.0150751695,0.008386359,-0.018640518,0.0,0.0,0.0
601.1751,222.89062,126824814,0.975,0.14893617,-277.4337,529.4736,0.0150751695,0.008386359,-0.018640518,0.0,0.0,0.0
597.70355,225.18274,126824831,0.9875,0.14893617,-219.42001,405.61447,0.0150751695,0.008386359,-0.018640518,0.0,0.0,0.0
593.494,230.51526,126824848,0.975,0.14893617,-248.92717,426.56268,0.0150751695,0.008386359,-0.018640518,0.0,0.0,0.0
588.80286,243.27295,126824865,0.875,0.12765957,-302.8482,644.2082,0.0150751695,0.008386359,-0.018640518,0.0,0.0,0.0
580.4415,271.9674,126824881,0.83750004,0.12765957,-434.11273,1404.9275,0.0150751695,0.008386359,-0.018640518,0.0,0.0,0.0
570.43317,304.88147,126824898,0.875,0.10638297,-595.21765,2161.3652,0.0150751695,0.008386359,-0.018640518,0.0,0.0,0.0
561.2412,338.37952,126824915,0.875,0.12765957,-696.751,2641.4185,0.0150751695,0.008386359,-0.018640518,0.0,0.0,0.0
552.366,378.09656,126824931,0.8625,0.10638297,-688.22034,2798.1057,0.0150751695,0.008386359,-0.018640518,0.0,0.0,0.0
548.01917,411.62,126824948,0.8625,0.12765957,-487.5026,2532.313,0.0150751695,0.008386359,-0.018640518,0.0,0.0,0.0
544.8005,443.38818,126824965,0.85,0.12765957,-195.72672,2144.268,0.0150751695,0.008386359,-0.018640518,0.0,0.0,0.0
542.75104,471.00684,126824982,0.85,0.10638297,-13.623534,1728.8191,0.0150751695,0.008386359,-0.018640518,0.0,0.0,0.0
542.30133,492.16174,126824998,0.85,0.10638297,69.15573,1347.0353,0.0150751695,0.008386359,-0.018640518,0.0,0.0,0.0
542.30133,507.54736,126825015,0.85,0.12765957,94.1612,865.726,0.0150751695,0.008386359,-0.018640518,0.0,0.0,0.0
541.9169,521.0852,126825032,0.83750004,0.10638297,83.044655,519.5497,0.0150751695,0.008386359,-0.018640518,0.0,0.0,0.0
540.88275,529.7373,126825048,0.8625,0.11702127,19.164234,321.8714,0.0150751695,0.008386359,-0.018640518,0.0,0.0,0.0
539.8567,533.6727,126825065,0.8875,0.11702127,-30.911764,99.2367,0.0150751695,0.008386359,-0.018640518,0.0,0.0,0.0
538.81525,535.621,126825082,0.9375,0.12765957,-87.30159,-46.977104,0.0150751695,0.008386359,-0.018640518,0.0,0.0,0.0
538.3026,534.6892,126825098,0.9875,0.14893617,-74.44314,-219.30312,0.0150751695,0.008386359,-0.018640518,0.0,0.0,0.0
539.8799,522.58264,126825115,0.96250004,0.14893617,14.072183,-570.2277,0.0150751695,0.008386359,-0.018640518,0.0,0.0,0.0
542.52435,498.21692,126825132,0.85,0.09574468,137.88072,-1219.2666,0.0150751695,0.008386359,-0.018640518,0.0,0.0,0.0
551.4895,475.57007,126825148,0.8125,0.12765957,367.93002,-1763.5447,0.0150751695,0.008386359,-0.018640518,0.0,0.0,0.0
564.1894,458.12512,126825165,0.85,0.10638297,712.4791,-1849.4735,0.0150751695,0.008386359,-0.018640518,0.0,0.0,0.0
580.455,441.75916,126825182,0.83750004,0.11702127,1098.1908,-1331.7839,0.012060136,-0.009290919,-0.014912605,0.0,0.0,0.0
598.8928,429.27966,126825198,0.8625,0.12765957,1341.8118,-806.33026,0.012060136,-0.009290919,-0.014912605,0.0,0.0,0.0
614.2113,425.46936,126825215,0.83750004,0.11702127,1306.1494,-355.47458,0.012060136,-0.009290919,-0.014912605,0.0,0.0,0.0
622.7515,426.94324,126825232,0.8875,0.13829787,889.5888,165.44504,0.012060136,-0.009290919,-0.014912605,0.0,0.0,0.0
626.87756,429.4425,126825249,0.90000004,0.13829787,338.89563,516.609,0.012060136,-0.009290919,-0.014912605,0.0,0.0,0.0
629.1283,434.72852,126825265,0.90000004,0.12765957,-85.03445,634.23834,0.012060136,-0.009290919,-0.014912605,0.0,0.0,0.0
628.349,442.0819,126825282,0.9375,0.12765957,-276.17075,612.64246,0.012060136,-0.009290919,-0.014912605,0.0,0.0,0.0
625.74884,447.72705,126825299,0.875,0.12765957,-316.03113,533.3523,0.012060136,-0.009290919,-0.014912605,0.0,0.0,0.0
620.6627,455.8794,126825315,0.8625,0.10638297,-388.6471,529.3263,0.012060136,-0.009290919,-0.014912605,0.0,0.0,0.0
613.6217,465.56348,126825332,0.875,0.12765957,-502.84448,570.48376,0.012060136,-0.009290919,-0.014912605,0.0,0.0,0.0
600.7739,481.45508,126825349,0.83750004,0.12765957,-729.87537,802.1551,0.012060136,-0.009290919,-0.014912605,0.0,0.0,0.0
587.1019,495.08606,126825366,0.90000004,0.12765957,-936.03845,1002.8455,0.012060136,-0.009290919,-0.014912605,0.0,0.0,0.0
574.2315,502.97864,126825382,0.9125,0.12765957,-1033.3025,904.56854,0.012060136,-0.009290919,-0.014912605,0.0,0.0,0.0
566.16,508.01746,126825399,0.90000004,0.12765957,-798.19775,433.3803,0.012060136,-0.009290919,-0.014912605,0.0,0.0,0.0
562.7369,509.8772,126825416,0.9375,0.12765957,-350.95975,11.821551,0.012060136,-0.009290919,-0.014912605,0.0,0.0,0.0
561.795,511.33362,126825432,0.90000004,0.12765957,36.50492,-153.60506,0.012060136,-0.009290919,-0.014912605,0.0,0.0,0.0
563.5229,512.4221,126825449,0.9125,0.12765957,291.23898,-139.46402,0.012060136,-0.009290919,-0.014912605,0.0,0.0,0.0
571.02185,515.6454,126825466,0.8625,0.12765957,462.90805,3.7335927,0.012060136,-0.009290919,-0.014912605,0.0,0.0,0.0
587.00903,521.0493,126825483,0.825,0.12765957,829.0647,200.40634,0.012060136,-0.009290919,-0.014912605,0.0,0.0,0.0
613.54047,525.78284,126825499,0.8625,0.10638297,1455.0188,367.47623,0.012060136,-0.009290919,-0.014912605,0.0,0.0,0.0
639.3337,526.7588,126825516,0.825,0.12765957,2009.5526,280.1561,0.012060136,-0.009290919,-0.014912605,0.0,0.0,0.0
667.20496,523.98145,126825533,0.85,0.12765957,2151.151,0.85767955,0.012060136,-0.009290919,-0.014912605,0.0,0.0,0.0
694.18616,518.22144,126825549,0.8625,0.14893617,2021.7532,-354.33075,0.012060136,-0.009290919,-0.014912605,0.0,0.0,0.0
720.35565,509.53125,126825566,0.85,0.11702127,1748.3118,-629.8064,0.012060136,-0.009290919,-0.014912605,0.0,0.0,0.0
744.5012,496.4663,126825583,0.83750004,0.14893617,1531.6191,-844.93134,0.012060136,-0.009290919,-0.014912605,0.0,0.0,0.0
764.5332,479.9193,126825600,0.85,0.12765957,1324.6614,-1069.1735,0.012060136,-0.009290919,-0.014912605,0.0,0.0,0.0
774.56946,469.6864,126825616,0.85,0.11702127,849.99396,-1086.6278,0.012060136,-0.009290919,-0.014912605,0.0,0.0,0.0
783.4819,459.66064,126825633,0.85,0.11702127,373.23264,-813.4675,0.012060136,-0.009290919,-0.014912605,0.0,0.0,0.0
785.2222,454.56396,126825650,0.875,0.12765957,-76.67678,-397.45532,0.012060136,-0.009290919,-0.014912605,0.0,0.0,0.0
784.02814,452.396,126825666,0.90000004,0.11702127,-339.38968,-26.0354,0.012060136,-0.009290919,-0.014912605,0.0,0.0,0.0
778.0754,451.23596,126825683,0.9375,0.12765957,-518.8035,116.38729,0.012060136,-0.009290919,-0.014912605,0.0,0.0,0.0
769.5642,452.93823,126825700,0.8875,0.12765957,-699.94446,195.5452,0.012060136,-0.009290919,-0.014912605,0.0,0.0,0.0
758.2344,459.23022,126825716,0.8125,0.12765957,-857.5372,355.39407,0.012060136,-0.009290919,-0.014912605,0.0,0.0,0.0
732.62775,482.50867,126825733,0.8125,0.10638297,-1289.042,979.69763,0.012060136,-0.009290919,-0.014912605,0.0,0.0,0.0
712.25916,502.391,126825750,0.83750004,0.12765957,-1622.5212,1561.7638,0.0096481,0.008567259,-0.011929512,0.0,0.0,0.0
700.85315,519.05334,126825767,0.83750004,0.11702127,-1410.3666,1663.7635,0.0096481,0.008567259,-0.011929512,0.0,0.0,0.0
688.20483,544.2599,126825783,0.825,0.12765957,-1005.26337,1669.6631,0.0096481,0.008567259,-0.011929512,0.0,0.0,0.0
686.44775,555.4757,126825800,0.83750004,0.12765957,-300.2762,1183.4781,0.0096481,0.008567259,-0.011929512,0.0,0.0,0.0
689.6808,565.724,126825817,0.825,0.12765957,334.9426,663.1578,0.0096481,0.008567259,-0.011929512,0.0,0.0,0.0
693.635,570.8815,126825833,0.8125,0.11702127,573.813,265.95587,0.0096481,0.008567259,-0.011929512,0.0,0.0,0.0
704.61334,576.4203,126825850,0.8125,0.12765957,814.80493,-36.903484,0.0096481,0.008567259,-0.011929512,0.0,0.0,0.0
725.8572,577.6598,126825867,0.8125,0.10638297,1165.2649,11.878727,0.0096481,0.008567259,-0.011929512,0.0,0.0,0.0
746.67676,571.9154,126825884,0.825,0.14893617,1573.4313,-264.2347,0.0096481,0.008567259,-0.011929512,0.0,0.0,0.0
765.6727,562.2313,126825900,0.85,0.11702127,1689.8889,-605.18884,0.0096481,0.008567259,-0.011929512,0.0,0.0,0.0
777.41296,545.0325,126825917,0.85,0.10638297,1286.0592,-1073.4314,0.0096481,0.008567259,-0.011929512,0.0,0.0,0.0
790.83325,514.89307,126825934,0.825,0.12765957,754.982,-1783.7452,0.0096481,0.008567259,-0.011929512,0.0,0.0,0.0
798.0468,491.0221,126825950,0.825,0.12765957,391.5554,-2014.5138,0.0096481,0.008567259,-0.011929512,0.0,0.0,0.0
803.18427,464.73486,126825967,0.8125,0.12765957,177.0528,-1990.267,0.0096481,0.008567259,-0.011929512,0.0,0.0,0.0
803.2164,453.55945,126825984,0.825,0.11702127,-34.98533,-1405.455,0.0096481,0.008567259,-0.011929512,0.0,0.0,0.0
802.0255,445.43433,126826001,0.8875,0.11702127,-236.1466,-590.75256,0.0096481,0.008567259,-0.011929512,0.0,0.0,0.0
800.98553,443.71643,126826017,0.90000004,0.12765957,-307.25543,38.18696,0.0096481,0.008567259,-0.011929512,0.0,0.0,0.0
799.96686,444.57324,126826034,0.9125,0.14893617,-224.73293,429.86517,0.0096481,0.008567259,-0.011929512,0.0,0.0,0.0
798.78064,446.6819,126826051,0.95,0.14893617,-120.62072,433.45993,0.0096481,0.008567259,-0.011929512,0.0,0.0,0.0
796.564,450.62207,126826067,0.875,0.12765957,-105.73927,418.4136,0.0096481,0.008567259,-0.011929512,0.0,0.0,0.0
794.8498,465.9867,126826084,0.8,0.12765957,-132.4338,647.918,0.0096481,0.008567259,-0.011929512,0.0,0.0,0.0
796.0282,486.86047,126826101,0.77500004,0.10638297,-63.11086,1233.988,0.0096481,0.008567259,-0.011929512,0.0,0.0,0.0
799.45746,502.02942,126826118,0.7875,0.12765957,118.00723,1523.8314,0.0096481,0.008567259,-0.011929512,0.0,0.0,0.0
805.1673,515.97644,126826134,0.8,0.12765957,357.02454,1351.0842,0.0096481,0.008567259,-0.011929512,0.0,0.0,0.0
811.3805,524.30493,126826151,0.8125,0.10638297,497.11176,767.06024,0.0096481,0.008567259,-0.011929512,0.0,0.0,0.0
827.99207,534.5005,126826168,0.8625,0.10638297,795.2872,381.2466,0.0096481,0.008567259,-0.011929512,0.0,0.0,0.0
845.0049,537.62085,126826184,0.825,0.12765957,1126.0713,208.62195,0.0096481,0.008567259,-0.011929512,0.0,0.0,0.0
861.0944,534.0038,126826201,0.825,0.13829787,1286.044,-106.06655,0.0096481,0.008567259,-0.011929512,0.0,0.0,0.0
878.10016,523.3202,126826218,0.83750004,0.11702127,1272.2134,-588.11774,0.0096481,0.008567259,-0.011929512,0.0,0.0,0.0
892.7989,508.61572,126826235,0.83750004,0.12765957,1017.9312,-1136.7362,0.0096481,0.008567259,-0.011929512,0.0,0.0,0.0
908.8138,477.89478,126826251,0.8,0.14893617,880.82263,-1667.5842,0.0096481,0.008567259,-0.011929512,0.0,0.0,0.0
922.9425,444.15698,126826268,0.8,0.12765957,879.6255,-2377.4473,0.0096481,0.008567259,-0.011929512,0.0,0.0,0.0
935.76996,405.63586,126826285,0.7875,0.12765957,791.6254,-2817.1675,0.0096481,0.008567259,-0.011929512,0.0,0.0,0.0
947.26514,372.49963,126826301,0.77500004,0.10638297,669.72943,-2665.513,0.0077184737,0.006853804,-0.009543419,0.0,0.0,0.0
953.3643,343.5664,126826318,0.7875,0.12765957,491.64813,-2216.61,0.0077184737,0.006853804,-0.009543419,0.0,0.0,0.0
956.50867,317.37524,126826335,0.8125,0.12765957,163.2468,-1580.7122,0.0077184737,0.006853804,-0.009543419,0.0,0.0,0.0
958.66736,296.6106,126826351,0.8125,0.12765957,-8.2451725,-1270.5571,0.0077184737,0.006853804,-0.009543419,0.0,0.0,0.0
959.16565,287.36414,126826368,0.83750004,0.10638297,-132.00748,-682.7715,0.0077184737,0.006853804,-0.009543419,0.0,0.0,0.0
959.16565,282.00256,126826385,0.83750004,0.12765957,-149.12752,-140.27428,0.0077184737,0.006853804,-0.009543419,0.0,0.0,0.0
959.16565,280.41467,126826402,0.8625,0.12765957,-91.89884,219.15663,0.0077184737,0.006853804,-0.009543419,0.0,0.0,0.0
959.16565,280.64343,126826418,0.9125,0.14893617,-71.01523,432.74997,0.0077184737,0.006853804,-0.009543419,0.0,0.0,0.0
959.16565,284.0072,126826435,0.925,0.14893617,-30.69274,409.80157,0.0077184737,0.006853804,-0.009543419,0.0,0.0,0.0
958.18884,289.40637,126826452,0.8625,0.12765957,-22.502623,414.3316,0.0077184737,0.006853804,-0.009543419,0.0,0.0,0.0
957.66614,314.87842,126826468,0.8125,0.10638297,-55.992897,1000.14417,0.0077184737,0.006853804,-0.009543419,0.0,0.0,0.0
956.98364,346.68433,126826485,0.8125,0.12765957,-67.72889,1937.1891,0.0077184737,0.006853804,-0.009543419,0.0,0.0,0.0
956.30664,381.5027,126826502,0.8,0.10638297,-50.836823,2703.8909,0.0077184737,0.006853804,-0.009543419,0.0,0.0,0.0
957.5458,418.5243,126826519,0.825,0.12765957,12.613188,2857.304,0.0077184737,0.006853804,-0.009543419,0.0,0.0,0.0
958.86865,450.02112,126826535,0.8125,0.12765957,77.62836,2430.62,0.0077184737,0.006853804,-0.009543419,0.0,0.0,0.0
962.067,483.18518,126826552,0.7875,0.10638297,165.95166,2015.5829,0.0077184737,0.006853804,-0.009543419,0.0,0.0,0.0
967.2705,504.89673,126826569,0.8,0.12765957,305.22946,1632.9692,0.0077184737,0.006853804,-0.009543419,0.0,0.0,0.0
974.5393,525.0543,126826585,0.8,0.11702127,455.66586,1209.1449,0.0077184737,0.006853804,-0.009543419,0.0,0.0,0.0
980.0415,535.43555,126826602,0.7875,0.10638297,503.016,663.51385,0.0077184737,0.006853804,-0.009543419,0.0,0.0,0.0
990.6366,546.853,126826619,0.8,0.10638297,580.108,312.1316,0.0077184737,0.006853804,-0.009543419,0.0,0.0,0.0
1004.39136,554.63904,126826636,0.75,0.12765957,756.2033,161.9035,0.0077184737,0.006853804,-0.009543419,0.0,0.0,0.0
1014.43787,556.07935,126826652,0.7,0.12765957,816.507,41.63122,0.0077184737,0.006853804,-0.009543419,0.0,0.0,0.0
1032.1418,552.5254,126826665,0.45000002,0.10638297,990.921,-172.35286,0.0077184737,0.006853804,-0.009543419,0.0,0.0,0.0
1032.1418,552.5254,126826672,0.45000002,0.10638297,990.921,-172.35286,0.0077184737,0.006853804,-0.009543419,0.0,0.0,0.0
849.2014,411.25342,126826834,0.90000004,0.14893617,0.0,0.0,0.0077184737,0.006853804,-0.009543419,0.0,0.0,0.0
849.2014,411.25342,126826853,0.95,0.14893617,0.24018808,0.12228309,0.0077184737,0.006853804,-0.009543419,0.0,0.0,0.0
868.8387,412.20972,126826886,0.8125,0.14893617,864.6889,42.12159,0.006174773,0.005483046,0.024365425,0.0,0.0,0.0
916.91223,417.01233,126826903,0.7375,0.12765957,3055.3254,255.51028,0.006174773,0.005483046,0.024365425,0.0,0.0,0.0
954.66705,420.13843,126826915,0.625,0.10638297,3928.704,355.46594,0.006174773,0.005483046,0.024365425,0.0,0.0,0.0
954.66705,420.13843,126826921,0.625,0.10638297,3928.704,355.46594,0.006174773,0.005483046,0.024365425,0.0,0.0,0.0
1055.1344,450.34753,126827091,0.875,0.12765957,0.0,0.0,0.006174773,0.005483046,0.024365425,0.0,0.0,0.0
1055.1344,450.34753,126827120,0.875,0.12765957,0.03492377,0.019195454,0.006174773,0.005483046,0.024365425,0.0,0.0,0.0
1055.1344,450.34753,126827137,0.825,0.12765957,0.032500792,0.014523553,0.006174773,0.005483046,0.024365425,0.0,0.0,0.0
1055.1344,450.34753,126827153,0.7625,0.12765957,0.023398465,0.010140379,0.006174773,0.005483046,0.024365425,0.0,0.0,0.0
1037.842,471.43726,126827170,0.7375,0.11702127,-614.06433,725.69507,0.006174773,0.005483046,0.024365425,0.0,0.0,0.0
1028.3413,492.52612,126827187,0.7375,0.11702127,-911.0982,1360.3231,0.006174773,0.005483046,0.024365425,0.0,0.0,0.0
1025.6426,505.45325,126827203,0.75,0.12765957,-759.3336,1531.0717,0.006174773,0.005483046,0.024365425,0.0,0.0,0.0
1025.1442,522.0537,126827220,0.725,0.09574468,-290.11575,1348.8564,0.006174773,0.005483046,0.024365425,0.0,0.0,0.0
1027.2982,535.7185,126827237,0.75,0.09574468,184.4408,1012.9045,0.006174773,0.005483046,0.024365425,0.0,0.0,0.0
1029.3851,544.5017,126827253,0.7625,0.11702127,489.56534,552.9238,0.006174773,0.005483046,0.024365425,0.0,0.0,0.0
1032.5592,548.45386,126827271,0.7625,0.12765957,353.55258,333.71255,0.006174773,0.005483046,0.024365425,0.0,0.0,0.0
1039.0175,552.3784,126827287,0.77500004,0.10638297,352.91748,63.126816,0.006174773,0.005483046,0.024365425,0.0,0.0,0.0
1049.4459,554.30237,126827304,0.8125,0.10638297,546.67145,-92.69064,0.006174773,0.005483046,0.024365425,0.0,0.0,0.0
1060.6228,551.28845,126827321,0.825,0.11702127,787.6195,-165.71838,0.006174773,0.005483046,0.024365425,0.0,0.0,0.0
1068.8955,540.5028,126827337,0.8,0.12765957,804.7384,-488.01352,0.006174773,0.005483046,0.024365425,0.0,0.0,0.0
1078.4022,516.2638,126827354,0.77500004,0.14893617,675.61383,-1226.6293,0.006174773,0.005483046,0.024365425,0.0,0.0,0.0
1082.7819,495.43677,126827371,0.75,0.11702127,396.08612,-1755.5698,0.006174773,0.005483046,0.024365425,0.0,0.0,0.0
1081.7722,471.8246,126827388,0.77500004,0.12765957,71.99064,-1932.8115,0.006174773,0.005483046,0.024365425,0.0,0.0,0.0
1076.6584,457.52197,126827404,0.7875,0.12765957,-311.6266,-1555.0813,0.006174773,0.005483046,0.024365425,0.0,0.0,0.0
1070.9695,449.2224,126827421,0.825,0.10638297,-586.01495,-756.62573,0.006174773,0.005483046,0.024365425,0.0,0.0,0.0
1060.3751,440.03552,126827438,0.8125,0.09574468,-771.8975,-300.85117,-0.011060186,-0.011613563,-0.028508186,0.0,0.0,0.0
1051.6965,435.71436,126827454,0.83750004,0.12765957,-771.7407,-59.412094,-0.011060186,-0.011613563,-0.028508186,0.0,0.0,0.0
1046.9534,437.3236,126827471,0.875,0.12765957,-585.58264,142.2228,-0.011060186,-0.011613563,-0.028508186,0.0,0.0,0.0
1044.4496,440.35486,126827488,0.8875,0.12765957,-309.00177,300.94113,-0.011060186,-0.011613563,-0.028508186,0.0,0.0,0.0
1044.365,444.0465,126827504,0.8875,0.12765957,54.283325,489.74594,-0.011060186,-0.011613563,-0.028508186,0.0,0.0,0.0
1045.9502,445.49805,126827521,0.85,0.12765957,214.12195,371.2318,-0.011060186,-0.011613563,-0.028508186,0.0,0.0,0.0
1050.8115,448.45044,126827538,0.7625,0.10638297,330.51324,198.3646,-0.011060186,-0.011613563,-0.028508186,0.0,0.0,0.0
1061.1085,457.43433,126827555,0.77500004,0.12765957,565.9798,292.94333,-0.011060186,-0.011613563,-0.028508186,0.0,0.0,0.0
1075.3269,467.7284,126827571,0.8,0.12765957,881.68713,583.7557,-0.011060186,-0.011613563,-0.028508186,0.0,0.0,0.0
1091.5992,474.5515,126827588,0.8,0.12765957,1136.0835,709.08966,-0.011060186,-0.011613563,-0.028508186,0.0,0.0,0.0
1110.6012,476.11414,126827605,0.77500004,0.10638297,1348.1937,502.85135,-0.011060186,-0.011613563,-0.028508186,0.0,0.0,0.0
1128.2986,472.5044,126827621,0.7875,0.15957446,1306.1073,-74.30089,-0.011060186,-0.011613563,-0.028508186,0.0,0.0,0.0
1144.2996,462.2931,126827638,0.7875,0.11702127,1170.1843,-634.62,-0.011060186,-0.011613563,-0.028508186,0.0,0.0,0.0
1157.0579,449.1112,126827655,0.77500004,0.10638297,933.82697,-1007.4017,-0.011060186,-0.011613563,-0.028508186,0.0,0.0,0.0
1168.9146,423.09473,126827672,0.75,0.12765957,669.0551,-1451.1455,-0.011060186,-0.011613563,-0.028508186,0.0,0.0,0.0
1174.3522,401.67297,126827688,0.77500004,0.10638297,416.12823,-1776.8325,-0.011060186,-0.011613563,-0.028508186,0.0,0.0,0.0
1172.7759,387.37878,126827705,0.77500004,0.10638297,20.078245,-1599.1133,-0.011060186,-0.011613563,-0.028508186,0.0,0.0,0.0
1169.3627,377.0736,126827722,0.825,0.12765957,-382.9178,-964.4118,-0.011060186,-0.011613563,-0.028508186,0.0,0.0,0.0
1165.185,371.54065,126827738,0.83750004,0.12765957,-572.0034,-247.92865,-0.011060186,-0.011613563,-0.028508186,0.0,0.0,0.0
1160.0618,366.62317,126827755,0.85,0.12765957,-568.0317,87.55447,-0.011060186,-0.011613563,-0.028508186,0.0,0.0,0.0
1155.6217,365.9397,126827772,0.90000004,0.14893617,-407.18234,102.742004,-0.011060186,-0.011613563,-0.028508186,0.0,0.0,0.0
1152.9503,368.8756,126827789,0.9375,0.15957446,-269.91962,240.44336,-0.011060186,-0.011613563,-0.028508186,0.0,0.0,0.0
1151.6029,376.15808,126827805,0.9375,0.15957446,-142.97623,460.25146,-0.011060186,-0.011613563,-0.028508186,0.0,0.0,0.0
1153.0603,380.96948,126827822,0.90000004,0.14893617,49.91316,617.9557,-0.011060186,-0.011613563,-0.028508186,0.0,0.0,0.0
1156.2083,384.7406,126827839,0.7625,0.10638297,225.21942,475.47433,-0.011060186,-0.011613563,-0.028508186,0.0,0.0,0.0
1166.8319,398.99268,126827855,0.75,0.12765957,519.41956,579.64856,-0.011060186,-0.011613563,-0.028508186,0.0,0.0,0.0
1179.1611,419.36914,126827872,0.77500004,0.11702127,842.6334,1009.0557,-0.011060186,-0.011613563,-0.028508186,0.0,0.0,0.0
1191.8065,439.79297,126827889,0.75,0.12765957,1014.64417,1457.6173,-0.011060186,-0.011613563,-0.028508186,0.0,0.0,0.0
1205.9088,462.08716,126827906,0.7625,0.09574468,1040.3704,1674.3472,-0.011060186,-0.011613563,-0.028508186,0.0,0.0,0.0
1215.1842,487.6355,126827922,0.77500004,0.09574468,883.41144,1760.1074,-0.011060186,-0.011613563,-0.028508186,0.0,0.0,0.0
1217.0634,504.28088,126827939,0.7875,0.11702127,391.96024,1365.46,-0.011060186,-0.011613563,-0.028508186,0.0,0.0,0.0
1212.9822,522.31836,126827956,0.75,0.09574468,-169.11902,1104.2664,-0.011060186,-0.011613563,-0.028508186,0.0,0.0,0.0
1203.7134,539.2577,126827972,0.75,0.09574468,-753.06146,903.1978,-0.011060186,-0.011613563,-0.028508186,0.0,0.0,0.0
1167.0842,571.9584,126827989,0.6875,0.10638297,-1600.1102,1146.7822,-0.011060186,-0.011613563,-0.028508186,0.0,0.0,0.0
1160.1002,577.40344,126827991,0.6625,0.08510638,-1841.2379,1314.66,-0.011060186,-0.011613563,-0.028508186,0.0,0.0,0.0
1160.1002,577.40344,126827999,0.6625,0.08510638,-1841.2379,1314.66,-0.011060186,-0.011613563,-0.028508186,0.0,0.0,0.0
