x,y,timestamp,pressure,fingerarea,velocityx,velocityy,accelx,accely,accelz,gyrox,gyroy,gyroz
211.90887,288.6399,126803999,0.9375,0.12765957,0.0,0.0,-0.019442298,-2.9584765E-4,0.0044927597,0.0,0.0,0.0
211.90887,288.6399,126804026,0.925,0.12765957,-0.014416472,-0.023168037,-0.019442298,-2.9584765E-4,0.0044927597,0.0,0.0,0.0
211.90887,288.6399,126804043,0.83750004,0.12765957,0.015779888,0.01926564,-0.019442298,-2.9584765E-4,0.0044927597,0.0,0.0,0.0
204.52634,313.99756,126804060,0.83750004,0.09574468,-361.22214,1236.0535,-0.019442298,-2.9584765E-4,0.0044927597,0.0,0.0,0.0
196.0834,338.65784,126804077,0.8125,0.12765957,-599.7675,1927.0107,-0.019442298,-2.9584765E-4,0.0044927597,0.0,0.0,0.0
185.48242,369.63843,126804093,0.83750004,0.08510638,-768.6748,2337.5037,-0.019442298,-2.9584765E-4,0.0044927597,0.0,0.0,0.0
172.87665,398.1554,126804110,0.8125,0.10638297,-912.0821,2452.476,-0.019442298,-2.9584765E-4,0.0044927597,0.0,0.0,0.0
160.68759,428.88196,126804127,0.8125,0.08510638,-901.7892,2121.6506,-0.019442298,-2.9584765E-4,0.0044927597,0.0,0.0,0.0
150.16844,454.15173,126804144,0.7875,0.12765957,-791.7381,1724.7021,-0.019442298,-2.9584765E-4,0.0044927597,0.0,0.0,0.0
138.26569,475.46326,126804160,0.8,0.08510638,-721.5634,1458.2765,-0.019442298,-2.9584765E-4,0.0044927597,0.0,0.0,0.0
122.02792,494.89502,126804177,0.83750004,0.12765957,-809.463,1131.6725,-0.019442298,-2.9584765E-4,0.0044927597,0.0,0.0,0.0
107.58679,510.36572,126804194,0.85,0.12765957,-923.01105,845.9279,-0.019442298,-2.9584765E-4,0.0044927597,0.0,0.0,0.0
96.40257,520.0093,126804210,0.90000004,0.12765957,-899.7641,550.10315,-0.019442298,-2.9584765E-4,0.0044927597,0.0,0.0,0.0
83.04143,522.6731,126804227,0.925,0.10638297,-807.71375,187.41463,-0.019442298,-2.9584765E-4,0.0044927597,0.0,0.0,0.0
73.76988,518.52856,126804244,0.9125,0.11702127,-628.9433,-278.57355,-0.019442298,-2.9584765E-4,0.0044927597,0.0,0.0,0.0
66.19145,511.19116,126804261,0.9125,0.10638297,-467.3795,-715.4552,-0.019442298,-2.9584765E-4,0.0044927597,0.0,0.0,0.0
58.188843,493.97278,126804277,0.875,0.10638297,-395.37433,-1102.7501,-0.019442298,-2.9584765E-4,0.0044927597,0.0,0.0,0.0
55.45981,473.72546,126804294,0.875,0.12765957,-220.1119,-1460.8436,-0.019442298,-2.9584765E-4,0.0044927597,0.0,0.0,0.0
57.07921,457.2544,126804311,0.8625,0.12765957,44.166595,-1561.9265,-0.019442298,-2.9584765E-4,0.0044927597,0.0,0.0,0.0
59.778824,449.0492,126804327,0.875,0.09574468,312.0811,-1143.5557,-0.019442298,-2.9584765E-4,0.0044927597,0.0,0.0,0.0
65.10664,444.30566,126804344,0.9375,0.09574468,480.24432,-439.2553,-0.019442298,-2.9584765E-4,0.0044927597,0.0,0.0,0.0
72.24667,443.2395,126804361,0.975,0.12765957,574.7601,140.66843,-0.019442298,-2.9584765E-4,0.0044927597,0.0,0.0,0.0
77.62512,444.1892,126804378,0.9375,0.12765957,511.86984,345.09912,-0.019442298,-2.9584765E-4,0.0044927597,0.0,0.0,0.0
83.96898,448.96545,126804394,0.875,0.12765957,460.81946,414.4095,-0.019442298,-2.9584765E-4,0.0044927597,0.0,0.0,0.0
99.28128,457.58643,126804411,0.90000004,0.10638297,652.2922,572.97876,-0.019442298,-2.9584765E-4,0.0044927597,0.0,0.0,0.0
116.78935,469.9441,126804428,0.9125,0.10638297,981.0131,807.1351,0.040446162,0.03176333,-0.012406349,0.0,0.0,0.0
134.31143,483.02783,126804444,0.925,0.12765957,1281.2632,985.28156,0.040446162,0.03176333,-0.012406349,0.0,0.0,0.0
150.1445,493.28186,126804461,0.8875,0.12765957,1321.2281,963.3979,0.040446162,0.03176333,-0.012406349,0.0,0.0,0.0
169.79323,501.53516,126804478,0.90000004,0.10638297,1155.6082,693.7652,0.040446162,0.03176333,-0.012406349,0.0,0.0,0.0
189.67792,505.08508,126804495,0.8875,0.12765957,1174.9458,330.71115,0.040446162,0.03176333,-0.012406349,0.0,0.0,0.0
209.35147,505.4347,126804511,0.875,0.12765957,1226.7803,-28.902843,0.040446162,0.03176333,-0.012406349,0.0,0.0,0.0
228.12363,503.21936,126804528,0.8625,0.09574468,1251.2828,-267.09497,0.040446162,0.03176333,-0.012406349,0.0,0.0,0.0
242.92468,497.08228,126804545,0.8875,0.12765957,1049.4341,-469.6371,0.040446162,0.03176333,-0.012406349,0.0,0.0,0.0
254.06512,487.9579,126804561,0.8875,0.14893617,746.473,-647.61554,0.040446162,0.03176333,-0.012406349,0.0,0.0,0.0
261.95905,478.6953,126804578,0.875,0.12765957,438.95285,-750.21497,0.040446162,0.03176333,-0.012406349,0.0,0.0,0.0
268.6998,468.54797,126804595,0.9125,0.12765957,228.69778,-782.98157,0.040446162,0.03176333,-0.012406349,0.0,0.0,0.0
273.20972,461.328,126804611,0.925,0.12765957,138.02876,-646.50256,0.040446162,0.03176333,-0.012406349,0.0,0.0,0.0
276.7709,455.88623,126804628,0.90000004,0.10638297,92.99904,-425.84286,0.040446162,0.03176333,-0.012406349,0.0,0.0,0.0
278.54312,451.5703,126804645,0.8875,0.10638297,41.969055,-244.81454,0.040446162,0.03176333,-0.012406349,0.0,0.0,0.0
279.59027,447.84753,126804662,0.90000004,0.10638297,-12.07528,-131.7457,0.040446162,0.03176333,-0.012406349,0.0,0.0,0.0
280.63,445.4723,126804678,0.9125,0.10638297,-24.635313,-98.93814,0.040446162,0.03176333,-0.012406349,0.0,0.0,0.0
281.15268,443.65466,126804695,0.925,0.10638297,-19.573374,-60.397182,0.040446162,0.03176333,-0.012406349,0.0,0.0,0.0
281.8861,442.35095,126804712,0.95,0.10638297,9.019351,-34.16446,0.040446162,0.03176333,-0.012406349,0.0,0.0,0.0
282.2438,442.35095,126804728,0.9375,0.10638297,11.756336,11.49148,0.040446162,0.03176333,-0.012406349,0.0,0.0,0.0
284.17004,442.35095,126804745,0.9375,0.11702127,49.879765,47.727093,0.040446162,0.03176333,-0.012406349,0.0,0.0,0.0
288.11542,443.2395,126804762,0.90000004,0.11702127,159.2279,77.772865,0.040446162,0.03176333,-0.012406349,0.0,0.0,0.0
293.25912,443.2395,126804779,0.9125,0.11702127,300.2962,74.51353,0.040446162,0.03176333,-0.012406349,0.0,0.0,0.0
298.48438,444.12793,126804795,0.8625,0.12765957,404.70825,54.080162,0.040446162,0.03176333,-0.012406349,0.0,0.0,0.0
305.1352,445.01648,126804812,0.85,0.14893617,454.26157,57.21294,0.040446162,0.03176333,-0.012406349,0.0,0.0,0.0
312.47104,445.01648,126804829,0.85,0.12765957,482.08414,33.004635,0.040446162,0.03176333,-0.012406349,0.0,0.0,0.0
318.07016,446.15234,126804845,0.8875,0.12765957,442.5108,31.782698,0.040446162,0.03176333,-0.012406349,0.0,0.0,0.0
320.74643,446.79346,126804862,0.925,0.12765957,302.7899,45.39364,0.040446162,0.03176333,-0.012406349,0.0,0.0,0.0
320.8734,447.1775,126804879,0.96250004,0.12765957,80.14564,33.933945,0.040446162,0.03176333,-0.012406349,0.0,0.0,0.0
320.61893,449.02295,126804896,1.025,0.14893617,-131.59901,76.54841,0.040446162,0.03176333,-0.012406349,0.0,0.0,0.0
318.78275,452.28687,126804912,1.025,0.14893617,-205.48026,141.5776,0.040446162,0.03176333,-0.012406349,0.0,0.0,0.0
315.1866,455.1018,126804929,1.0,0.14893617,-251.47768,214.26578,0.040446162,0.03176333,-0.012406349,0.0,0.0,0.0
305.85062,461.6964,126804946,0.925,0.12765957,-428.1576,332.94174,0.040446162,0.03176333,-0.012406349,0.0,0.0,0.0
294.82883,470.73682,126804962,0.925,0.12765957,-719.3528,501.29282,0.040446162,0.03176333,-0.012406349,0.0,0.0,0.0
286.70312,477.64844,126804979,0.9375,0.12765957,-826.965,615.554,0.040446162,0.03176333,-0.012406349,0.0,0.0,0.0
282.39612,482.32153,126804996,0.9125,0.10638297,-617.26105,527.75183,0.008356929,-0.022589326,0.006075859,0.0,0.0,0.0
278.2746,488.7533,126805013,0.875,0.10638297,-258.7632,367.2126,0.008356929,-0.022589326,0.006075859,0.0,0.0,0.0
277.8874,494.29346,126805029,0.85,0.10638297,22.02244,267.4885,0.008356929,-0.022589326,0.006075859,0.0,0.0,0.0
280.6203,498.74207,126805046,0.825,0.10638297,211.74666,259.73264,0.008356929,-0.022589326,0.006075859,0.0,0.0,0.0
288.0322,506.70984,126805063,0.825,0.10638297,428.04303,352.3638,0.008356929,-0.022589326,0.006075859,0.0,0.0,0.0
299.62604,518.27356,126805079,0.83750004,0.10638297,727.92395,544.55334,0.008356929,-0.022589326,0.006075859,0.0,0.0,0.0
310.19702,527.06995,126805096,0.8625,0.11702127,897.4554,701.25085,0.008356929,-0.022589326,0.006075859,0.0,0.0,0.0
321.4084,533.07043,126805113,0.8625,0.10638297,893.6501,626.99506,0.008356929,-0.022589326,0.006075859,0.0,0.0,0.0
334.8419,535.6438,126805130,0.8625,0.10638297,852.7697,310.91348,0.008356929,-0.022589326,0.006075859,0.0,0.0,0.0
348.67264,534.46594,126805146,0.8875,0.11702127,839.485,-80.60017,0.008356929,-0.022589326,0.006075859,0.0,0.0,0.0
361.43646,527.7318,126805163,0.90000004,0.14893617,865.4212,-416.98566,0.008356929,-0.022589326,0.006075859,0.0,0.0,0.0
370.73947,519.44824,126805180,0.90000004,0.12765957,742.69696,-686.20197,0.008356929,-0.022589326,0.006075859,0.0,0.0,0.0
377.68542,510.17834,126805196,0.8875,0.12765957,501.468,-802.084,0.008356929,-0.022589326,0.006075859,0.0,0.0,0.0
383.89606,492.823,126805213,0.85,0.10638297,283.12762,-1005.9537,0.008356929,-0.022589326,0.006075859,0.0,0.0,0.0
384.35275,478.76,126805230,0.83750004,0.12765957,47.98491,-1076.1718,0.008356929,-0.022589326,0.006075859,0.0,0.0,0.0
381.1627,466.43677,126805247,0.85,0.14893617,-207.62967,-1023.41754,0.008356929,-0.022589326,0.006075859,0.0,0.0,0.0
378.56702,460.4984,126805263,0.83750004,0.12765957,-373.33957,-718.809,0.008356929,-0.022589326,0.006075859,0.0,0.0,0.0
375.22043,454.54956,126805280,0.8875,0.11702127,-415.4917,-311.71213,0.008356929,-0.022589326,0.006075859,0.0,0.0,0.0
372.23312,449.6089,126805297,0.9125,0.11702127,-336.40695,-89.47818,0.008356929,-0.022589326,0.006075859,0.0,0.0,0.0
369.36734,446.3579,126805313,0.8875,0.11702127,-199.38931,-67.86817,0.008356929,-0.022589326,0.006075859,0.0,0.0,0.0
367.57315,445.90503,126805330,0.975,0.12765957,-155.15364,-49.013657,0.008356929,-0.022589326,0.006075859,0.0,0.0,0.0
366.2145,447.36584,126805347,0.9875,0.14893617,-83.84857,93.39928,0.008356929,-0.022589326,0.006075859,0.0,0.0,0.0
364.9982,450.74133,126805363,1.025,0.14893617,-35.62309,283.66016,0.008356929,-0.022589326,0.006075859,0.0,0.0,0.0
364.85907,455.11658,126805380,0.975,0.12765957,-0.7660043,373.62317,0.008356929,-0.022589326,0.006075859,0.0,0.0,0.0
367.1079,464.67322,126805397,0.90000004,0.12765957,67.58587,500.93753,0.008356929,-0.022589326,0.006075859,0.0,0.0,0.0
373.75607,482.07947,126805414,0.85,0.09574468,280.71957,869.0473,0.008356929,-0.022589326,0.006075859,0.0,0.0,0.0
381.45853,495.8208,126805430,0.83750004,0.10638297,540.52203,1157.5326,0.008356929,-0.022589326,0.006075859,0.0,0.0,0.0
397.39062,512.7435,126805447,0.85,0.10638297,869.23956,1235.7094,0.008356929,-0.022589326,0.006075859,0.0,0.0,0.0
416.7469,529.1516,126805464,0.85,0.11702127,1233.8839,1174.183,0.008356929,-0.022589326,0.006075859,0.0,0.0,0.0
440.25766,543.2987,126805480,0.875,0.10638297,1525.7969,962.0767,0.008356929,-0.022589326,0.006075859,0.0,0.0,0.0
462.28326,547.9485,126805497,0.85,0.12765957,1671.7292,621.56836,0.008356929,-0.022589326,0.006075859,0.0,0.0,0.0
482.54694,547.7178,126805514,0.8125,0.12765957,1504.0468,54.218456,0.008356929,-0.022589326,0.006075859,0.0,0.0,0.0
505.61365,543.0626,126805531,0.8625,0.11702127,1413.0515,-453.98605,0.008356929,-0.022589326,0.006075859,0.0,0.0,0.0
524.58716,529.61975,126805547,0.875,0.14893617,1280.6252,-901.483,-0.025314465,0.013928533,-0.01113987,0.0,0.0,0.0
539.7875,513.74475,126805564,0.8625,0.12765957,1011.7037,-1238.0609,-0.025314465,0.013928533,-0.01113987,0.0,0.0,0.0
554.14557,487.51733,126805581,0.8625,0.12765957,745.50006,-1559.3011,-0.025314465,0.013928533,-0.01113987,0.0,0.0,0.0
566.47363,456.89417,126805597,0.83750004,0.12765957,597.5345,-2085.5151,-0.025314465,0.013928533,-0.01113987,0.0,0.0,0.0
575.79913,425.4386,126805614,0.825,0.10638297,503.41693,-2263.202,-0.025314465,0.013928533,-0.01113987,0.0,0.0,0.0
582.2862,395.27246,126805631,0.825,0.12765957,396.11075,-2325.1626,-0.025314465,0.013928533,-0.01113987,0.0,0.0,0.0
590.6019,357.21558,126805648,0.83750004,0.12765957,305.14297,-2250.632,-0.025314465,0.013928533,-0.01113987,0.0,0.0,0.0
593.6084,330.90747,126805664,0.83750004,0.11702127,177.22232,-1980.595,-0.025314465,0.013928533,-0.01113987,0.0,0.0,0.0
597.1652,294.3429,126805681,0.83750004,0.11702127,136.74829,-2033.2837,-0.025314465,0.013928533,-0.01113987,0.0,0.0,0.0
598.1525,269.82898,126805698,0.825,0.11702127,22.505426,-1754.4285,-0.025314465,0.013928533,-0.01113987,0.0,0.0,0.0
597.595,245.64441,126805714,0.825,0.12765957,-74.81471,-1525.9901,-0.025314465,0.013928533,-0.01113987,0.0,0.0,0.0
595.31586,232.36096,126805731,0.8625,0.11702127,-166.36842,-1018.1908,-0.025314465,0.013928533,-0.01113987,0.0,0.0,0.0
592.47534,224.11731,126805748,0.875,0.11702127,-258.54773,-386.60745,-0.025314465,0.013928533,-0.01113987,0.0,0.0,0.0
590.1602,220.55786,126805764,0.925,0.12765957,-260.43683,39.06154,-0.025314465,0.013928533,-0.01113987,0.0,0.0,0.0
587.7363,219.33667,126805781,0.975,0.12765957,-216.70494,340.64572,-0.025314465,0.013928533,-0.01113987,0.0,0.0,0.0
585.15265,221.56946,126805798,0.9875,0.14893617,-160.39372,369.2121,-0.025314465,0.013928533,-0.01113987,0.0,0.0,0.0
581.54175,226.14478,126805815,0.9875,0.14893617,-171.88109,428.09918,-0.025314465,0.013928533,-0.01113987,0.0,0.0,0.0
577.44,234.08557,126805831,0.9375,0.12765957,-235.90768,562.92206,-0.025314465,0.013928533,-0.01113987,0.0,0.0,0.0
573.24243,249.76282,126805848,0.85,0.10638297,-284.27026,859.6809,-0.025314465,0.013928533,-0.01113987,0.0,0.0,0.0
568.57367,273.9121,126805865,0.875,0.12765957,-304.44122,1379.9634,-0.025314465,0.013928533,-0.01113987,0.0,0.0,0.0
564.954,301.28296,126805881,0.875,0.12765957,-273.11862,1827.3939,-0.025314465,0.013928533,-0.01113987,0.0,0.0,0.0
560.92194,329.71997,126805898,0.85,0.10638297,-243.39291,2126.5957,-0.025314465,0.013928533,-0.01113987,0.0,0.0,0.0
556.9827,360.01794,126805915,0.83750004,0.10638297,-230.59361,2163.4233,-0.025314465,0.013928533,-0.01113987,0.0,0.0,0.0
554.17615,388.86194,126805932,0.85,0.12765957,-194.49196,2038.7572,-0.025314465,0.013928533,-0.01113987,0.0,0.0,0.0
551.562,419.11975,126805948,0.85,0.10638297,-161.49863,1881.393,-0.025314465,0.013928533,-0.01113987,0.0,0.0,0.0
548.4484,445.349,126805965,0.85,0.12765957,-137.20302,1694.2045,-0.025314465,0.013928533,-0.01113987,0.0,0.0,0.0
546.9851,471.50452,126805982,0.875,0.10638297,-113.83525,1534.9531,-0.025314465,0.013928533,-0.01113987,0.0,0.0,0.0
546.0914,492.4436,126805998,0.8625,0.10638297,-57.473896,1330.6296,-0.025314465,0.013928533,-0.01113987,0.0,0.0,0.0
545.8002,510.36987,126806015,0.8625,0.12765957,1.3624153,1033.5414,-0.025314465,0.013928533,-0.01113987,0.0,0.0,0.0
546.72925,528.29504,126806032,0.85,0.10638297,67.087494,854.0371,-0.025314465,0.013928533,-0.01113987,0.0,0.0,0.0
547.2997,543.45605,126806049,0.825,0.08510638,99.17675,790.78705,-0.025314465,0.013928533,-0.01113987,0.0,0.0,0.0
548.33417,552.7728,126806065,0.8125,0.12765957,92.21438,621.89496,-0.025314465,0.013928533,-0.01113987,0.0,0.0,0.0
549.36194,562.85815,126806082,0.8,0.10638297,91.5562,492.70667,-0.025314465,0.013928533,-0.01113987,0.0,0.0,0.0
550.40735,569.0978,126806099,0.8125,0.09574468,73.1813,285.53394,-0.025314465,0.013928533,-0.01113987,0.0,0.0,0.0
551.2984,572.0725,126806115,0.875,0.12765957,66.610245,120.21192,-0.0042515695,-0.020857155,0.03908825,0.0,0.0,0.0
552.09607,572.0725,126806132,0.9125,0.12765957,52.975075,-49.972305,-0.0042515695,-0.020857155,0.03908825,0.0,0.0,0.0
557.1488,570.38293,126806149,1.0,0.12765957,157.55742,-233.54349,-0.0042515695,-0.020857155,0.03908825,0.0,0.0,0.0
563.3498,564.3972,126806166,0.9375,0.12765957,362.35175,-397.78955,-0.0042515695,-0.020857155,0.03908825,0.0,0.0,0.0
573.3106,538.2577,126806182,0.8125,0.10638297,589.82556,-1046.7897,-0.0042515695,-0.020857155,0.03908825,0.0,0.0,0.0
583.58215,510.36462,126806199,0.8,0.12765957,759.98126,-1904.219,-0.0042515695,-0.020857155,0.03908825,0.0,0.0,0.0
594.26764,484.8142,126806216,0.83750004,0.11702127,780.16364,-2298.239,-0.0042515695,-0.020857155,0.03908825,0.0,0.0,0.0
602.3974,462.7517,126806232,0.825,0.12765957,704.4325,-2088.0588,-0.0042515695,-0.020857155,0.03908825,0.0,0.0,0.0
610.4365,449.10327,126806249,0.83750004,0.10638297,537.76196,-1274.8489,-0.0042515695,-0.020857155,0.03908825,0.0,0.0,0.0
618.2878,437.8943,126806266,0.8625,0.12765957,413.64066,-540.97015,-0.0042515695,-0.020857155,0.03908825,0.0,0.0,0.0
625.01074,431.479,126806283,0.90000004,0.14893617,374.56085,-195.85753,-0.0042515695,-0.020857155,0.03908825,0.0,0.0,0.0
630.0817,430.8004,126806299,0.8875,0.14893617,319.44412,111.194115,-0.0042515695,-0.020857155,0.03908825,0.0,0.0,0.0
632.3892,430.8004,126806316,0.8875,0.14893617,201.06789,247.23468,-0.0042515695,-0.020857155,0.03908825,0.0,0.0,0.0
632.9231,431.33813,126806333,0.9125,0.12765957,6.715519,307.84955,-0.0042515695,-0.020857155,0.03908825,0.0,0.0,0.0
633.5746,436.29333,126806349,0.8875,0.12765957,-91.941475,366.06244,-0.0042515695,-0.020857155,0.03908825,0.0,0.0,0.0
631.79724,442.7284,126806366,0.85,0.12765957,-151.05493,429.2013,-0.0042515695,-0.020857155,0.03908825,0.0,0.0,0.0
627.8982,450.61462,126806383,0.8125,0.12765957,-226.9975,559.72833,-0.0042515695,-0.020857155,0.03908825,0.0,0.0,0.0
622.6358,462.3988,126806399,0.83750004,0.10638297,-346.28156,722.5376,-0.0042515695,-0.020857155,0.03908825,0.0,0.0,0.0
612.78546,477.8817,126806416,0.83750004,0.10638297,-552.97485,933.0088,-0.0042515695,-0.020857155,0.03908825,0.0,0.0,0.0
598.62695,494.67725,126806433,0.85,0.12765957,-818.24,1120.051,-0.0042515695,-0.020857155,0.03908825,0.0,0.0,0.0
582.2643,507.1167,126806450,0.8875,0.12765957,-1076.2477,1091.3729,-0.0042515695,-0.020857155,0.03908825,0.0,0.0,0.0
569.2234,514.1283,126806466,0.9125,0.12765957,-1136.3812,746.21405,-0.0042515695,-0.020857155,0.03908825,0.0,0.0,0.0
561.1576,517.02014,126806483,0.90000004,0.12765957,-838.955,238.7612,-0.0042515695,-0.020857155,0.03908825,0.0,0.0,0.0
558.1906,517.8738,126806500,0.90000004,0.12765957,-362.67667,-93.014565,-0.0042515695,-0.020857155,0.03908825,0.0,0.0,0.0
557.296,517.8738,126806516,0.9125,0.12765957,70.50249,-252.6737,-0.0042515695,-0.020857155,0.03908825,0.0,0.0,0.0
557.29645,517.8738,126806533,0.90000004,0.12765957,284.96487,-236.25597,-0.0042515695,-0.020857155,0.03908825,0.0,0.0,0.0
559.02545,518.9783,126806550,0.85,0.12765957,273.19345,-90.15694,-0.0042515695,-0.020857155,0.03908825,0.0,0.0,0.0
567.7297,522.36633,126806567,0.825,0.10638297,412.74625,71.41122,-0.0042515695,-0.020857155,0.03908825,0.0,0.0,0.0
583.17365,529.0283,126806583,0.825,0.11702127,822.83716,341.8405,-0.0042515695,-0.020857155,0.03908825,0.0,0.0,0.0
604.68243,534.97437,126806600,0.8125,0.09574468,1367.4604,495.28275,-0.0042515695,-0.020857155,0.03908825,0.0,0.0,0.0
628.0007,538.772,126806616,0.83750004,0.12765957,1743.0248,485.75952,-0.0042515695,-0.020857155,0.03908825,0.0,0.0,0.0
649.8899,538.6373,126806633,0.83750004,0.12765957,1821.5952,247.01894,-0.0042515695,-0.020857155,0.03908825,0.0,0.0,0.0
672.0723,535.60474,126806650,0.83750004,0.11702127,1615.7418,-103.33971,-0.0042515695,-0.020857155,0.03908825,0.0,0.0,0.0
694.5033,527.7577,126806666,0.825,0.15957446,1398.4667,-461.6303,0.012598738,0.015314266,0.031270027,0.0,0.0,0.0
717.012,516.1062,126806683,0.825,0.11702127,1272.3927,-754.3044,0.012598738,0.015314266,0.031270027,0.0,0.0,0.0
737.6069,503.74817,126806700,0.8125,0.12765957,1284.1145,-953.1492,0.012598738,0.015314266,0.031270027,0.0,0.0,0.0
756.1947,488.16333,126806716,0.8125,0.12765957,1221.7614,-1087.8838,0.012598738,0.015314266,0.031270027,0.0,0.0,0.0
768.8846,471.68445,126806733,0.8125,0.11702127,952.35767,-1158.2137,0.012598738,0.015314266,0.031270027,0.0,0.0,0.0
778.4294,459.18164,126806749,0.825,0.10638297,629.06226,-1064.1886,0.012598738,0.015314266,0.031270027,0.0,0.0,0.0
783.50256,450.7389,126806767,0.85,0.12765957,216.16429,-734.567,0.012598738,0.015314266,0.031270027,0.0,0.0,0.0
784.22253,447.28088,126806784,0.85,0.10638297,-123.6471,-205.73799,0.012598738,0.015314266,0.031270027,0.0,0.0,0.0
784.22253,445.4386,126806801,0.8875,0.11702127,-246.43579,85.638596,0.012598738,0.015314266,0.031270027,0.0,0.0,0.0
783.16785,445.01648,126806817,0.9125,0.12765957,-268.39236,190.57784,0.012598738,0.015314266,0.031270027,0.0,0.0,0.0
779.5987,446.17175,126806834,0.9375,0.12765957,-273.30597,196.07555,0.012598738,0.015314266,0.031270027,0.0,0.0,0.0
772.648,449.80164,126806851,0.925,0.12765957,-388.53143,253.54967,0.012598738,0.015314266,0.031270027,0.0,0.0,0.0
765.9252,454.97107,126806867,0.83750004,0.12765957,-518.6019,344.64478,0.012598738,0.015314266,0.031270027,0.0,0.0,0.0
755.38995,467.2672,126806884,0.83750004,0.12765957,-641.072,584.3543,0.012598738,0.015314266,0.031270027,0.0,0.0,0.0
743.68945,483.28796,126806901,0.8625,0.12765957,-786.6886,996.492,0.012598738,0.015314266,0.031270027,0.0,0.0,0.0
734.3451,496.2052,126806917,0.83750004,0.10638297,-768.9309,1140.4801,0.012598738,0.015314266,0.031270027,0.0,0.0,0.0
725.74835,517.4116,126806934,0.8125,0.10638297,-673.44794,1318.6135,0.012598738,0.015314266,0.031270027,0.0,0.0,0.0
725.24176,532.0376,126806951,0.7875,0.08510638,-309.66232,1202.1943,0.012598738,0.015314266,0.031270027,0.0,0.0,0.0
727.8668,543.53174,126806968,0.8,0.09574468,148.9029,913.2086,0.012598738,0.015314266,0.031270027,0.0,0.0,0.0
732.01953,551.78796,126806984,0.7875,0.12765957,449.97128,618.9583,0.012598738,0.015314266,0.031270027,0.0,0.0,0.0
737.115,558.59924,126807001,0.7875,0.12765957,565.4485,230.61647,0.012598738,0.015314266,0.031270027,0.0,0.0,0.0
744.176,565.80005,126807018,0.8,0.12765957,514.907,225.64265,0.012598738,0.015314266,0.031270027,0.0,0.0,0.0
752.5877,570.7604,126807034,0.83750004,0.12765957,545.059,236.10727,0.012598738,0.015314266,0.031270027,0.0,0.0,0.0
763.3993,571.18396,126807051,0.85,0.10638297,652.44244,121.63847,0.012598738,0.015314266,0.031270027,0.0,0.0,0.0
773.5153,568.99646,126807068,0.85,0.11702127,732.2612,-109.54207,0.012598738,0.015314266,0.031270027,0.0,0.0,0.0
782.3961,563.0338,126807085,0.85,0.11702127,679.5311,-411.4364,0.012598738,0.015314266,0.031270027,0.0,0.0,0.0
788.12115,552.7389,126807101,0.8,0.10638297,515.7802,-690.1691,0.012598738,0.015314266,0.031270027,0.0,0.0,0.0
795.3075,528.1582,126807118,0.8,0.14893617,356.10968,-1252.6482,0.012598738,0.015314266,0.031270027,0.0,0.0,0.0
798.2778,509.81006,126807135,0.7875,0.10638297,210.95805,-1583.546,0.012598738,0.015314266,0.031270027,0.0,0.0,0.0
798.218,497.4442,126807151,0.8125,0.09574468,21.70178,-1404.7892,0.012598738,0.015314266,0.031270027,0.0,0.0,0.0
797.8698,486.83118,126807168,0.8,0.11702127,-126.11516,-980.3368,0.012598738,0.015314266,0.031270027,0.0,0.0,0.0
796.4686,470.33887,126807185,0.8625,0.14893617,-218.39139,-606.799,0.012598738,0.015314266,0.031270027,0.0,0.0,0.0
795.51984,465.98682,126807202,0.8875,0.12765957,-213.99481,-391.54645,0.012598738,0.015314266,0.031270027,0.0,0.0,0.0
795.219,464.5636,126807218,0.90000004,0.14893617,-85.20706,-216.41736,0.012598738,0.015314266,0.031270027,0.0,0.0,0.0
795.219,464.5636,126807235,0.95,0.14893617,-24.38009,137.05307,0.0100789815,0.012251422,0.025015831,0.0,0.0,0.0
795.219,468.114,126807252,0.9375,0.14893617,29.680723,400.0728,0.0100789815,0.012251422,0.025015831,0.0,0.0,0.0
794.7191,475.10046,126807268,0.9125,0.12765957,18.410593,575.45276,0.0100789815,0.012251422,0.025015831,0.0,0.0,0.0
795.4719,485.90918,126807285,0.8125,0.10638297,8.020147,677.33026,0.0100789815,0.012251422,0.025015831,0.0,0.0,0.0
799.5233,496.20447,126807302,0.77500004,0.12765957,121.089676,863.24866,0.0100789815,0.012251422,0.025015831,0.0,0.0,0.0
806.67444,507.1482,126807319,0.8125,0.12765957,333.91916,838.6436,0.0100789815,0.012251422,0.025015831,0.0,0.0,0.0
816.54913,520.9586,126807335,0.83750004,0.09574468,627.6617,852.83093,0.0100789815,0.012251422,0.025015831,0.0,0.0,0.0
833.80084,533.65894,126807352,0.8125,0.10638297,976.274,856.2134,0.0100789815,0.012251422,0.025015831,0.0,0.0,0.0
850.0491,539.5842,126807369,0.8125,0.12765957,1213.2662,663.851,0.0100789815,0.012251422,0.025015831,0.0,0.0,0.0
867.34357,541.6019,126807385,0.8,0.11702127,1300.1062,318.15164,0.0100789815,0.012251422,0.025015831,0.0,0.0,0.0
885.4276,538.7324,126807402,0.825,0.12765957,1263.2826,-179.5231,0.0100789815,0.012251422,0.025015831,0.0,0.0,0.0
900.9208,529.8457,126807419,0.83750004,0.13829787,1065.9363,-639.1633,0.0100789815,0.012251422,0.025015831,0.0,0.0,0.0
913.8666,517.75476,126807436,0.7875,0.14893617,856.78,-926.0409,0.0100789815,0.012251422,0.025015831,0.0,0.0,0.0
926.94556,501.4817,126807452,0.8125,0.12765957,706.904,-1152.0049,0.0100789815,0.012251422,0.025015831,0.0,0.0,0.0
942.1562,475.0432,126807469,0.825,0.11702127,672.2511,-1454.7772,0.0100789815,0.012251422,0.025015831,0.0,0.0,0.0
954.10767,449.72217,126807486,0.77500004,0.12765957,735.5749,-1795.2533,0.0100789815,0.012251422,0.025015831,0.0,0.0,0.0
966.1604,419.42065,126807502,0.7625,0.12765957,738.6274,-1982.0881,0.0100789815,0.012251422,0.025015831,0.0,0.0,0.0
974.21704,393.9746,126807519,0.7875,0.12765957,589.2364,-1964.0083,0.0100789815,0.012251422,0.025015831,0.0,0.0,0.0
980.2012,367.16956,126807536,0.8125,0.14893617,364.20636,-1716.5521,0.0100789815,0.012251422,0.025015831,0.0,0.0,0.0
981.6583,341.9021,126807552,0.7875,0.11702127,110.59313,-1614.802,0.0100789815,0.012251422,0.025015831,0.0,0.0,0.0
981.0713,324.40698,126807569,0.8125,0.12765957,-102.78317,-1330.9576,0.0100789815,0.012251422,0.025015831,0.0,0.0,0.0
980.4158,307.5652,126807586,0.8,0.14893617,-240.86664,-979.81696,0.0100789815,0.012251422,0.025015831,0.0,0.0,0.0
978.37537,297.6565,126807603,0.77500004,0.12765957,-268.81018,-631.7199,0.0100789815,0.012251422,0.025015831,0.0,0.0,0.0
976.26404,292.37866,126807619,0.825,0.12765957,-239.8826,-210.10658,0.0100789815,0.012251422,0.025015831,0.0,0.0,0.0
974.44885,289.15198,126807636,0.8,0.11702127,-172.06259,-7.1859374,0.0100789815,0.012251422,0.025015831,0.0,0.0,0.0
973.42847,286.44983,126807653,0.83750004,0.11702127,-116.68212,145.28734,0.0100789815,0.012251422,0.025015831,0.0,0.0,0.0
971.58386,284.05933,126807669,0.825,0.11702127,-74.97286,69.71256,0.0100789815,0.012251422,0.025015831,0.0,0.0,0.0
969.9352,281.12866,126807686,0.85,0.11702127,-78.37644,-63.97807,0.0100789815,0.012251422,0.025015831,0.0,0.0,0.0
968.7626,277.44507,126807703,0.825,0.11702127,-87.19098,-162.67746,0.0100789815,0.012251422,0.025015831,0.0,0.0,0.0
967.7296,275.43103,126807720,0.83750004,0.11702127,-76.9597,-188.96399,0.0100789815,0.012251422,0.025015831,0.0,0.0,0.0
967.16296,273.58276,126807736,0.8625,0.11702127,-41.564022,-138.09232,0.0100789815,0.012251422,0.025015831,0.0,0.0,0.0
966.1404,271.7174,126807753,0.8625,0.12765957,-26.366497,-90.73966,0.0100789815,0.012251422,0.025015831,0.0,0.0,0.0
965.66345,269.86987,126807770,0.85,0.12765957,-30.107496,-76.06155,0.0100789815,0.012251422,0.025015831,0.0,0.0,0.0
965.66345,268.0227,126807786,0.8625,0.12765957,-12.371839,-91.49811,-0.007936813,-0.006198868,-0.02798748,0.0,0.0,0.0
965.53125,267.3158,126807803,0.8625,0.12765957,7.896529,-85.27456,-0.007936813,-0.006198868,-0.02798748,0.0,0.0,0.0
964.9138,267.3158,126807813,0.8875,0.12765957,1.5580688,-45.029907,-0.007936813,-0.006198868,-0.02798748,0.0,0.0,0.0
963.94446,267.3158,126807837,0.8875,0.12765957,-29.787834,30.204298,-0.007936813,-0.006198868,-0.02798748,0.0,0.0,0.0
962.9115,267.3158,126807853,0.90000004,0.12765957,-75.742905,51.7855,-0.007936813,-0.006198868,-0.02798748,0.0,0.0,0.0
961.8954,266.42737,126807870,0.925,0.14893617,-80.03776,-0.6740017,-0.007936813,-0.006198868,-0.02798748,0.0,0.0,0.0
960.8716,266.42737,126807887,0.925,0.12765957,-71.189606,-34.128845,-0.007936813,-0.006198868,-0.02798748,0.0,0.0,0.0
960.1653,266.42737,126807903,0.9375,0.14893617,-63.093433,-19.99783,-0.007936813,-0.006198868,-0.02798748,0.0,0.0,0.0
959.2949,266.42737,126807920,0.9125,0.14893617,-42.4616,1.2198659,-0.007936813,-0.006198868,-0.02798748,0.0,0.0,0.0
958.7357,267.1914,126807937,0.9375,0.14893617,-31.811155,27.881008,-0.007936813,-0.006198868,-0.02798748,0.0,0.0,0.0
958.1659,271.73914,126807954,0.95,0.14893617,-31.326918,142.71156,-0.007936813,-0.006198868,-0.02798748,0.0,0.0,0.0
957.66614,277.1416,126807970,0.9125,0.14893617,-29.026882,334.8847,-0.007936813,-0.006198868,-0.02798748,0.0,0.0,0.0
958.2433,281.807,126807987,0.85,0.12765957,2.1097434,431.07565,-0.007936813,-0.006198868,-0.02798748,0.0,0.0,0.0
959.4962,285.76465,126808004,0.7875,0.12765957,61.672684,368.3842,-0.007936813,-0.006198868,-0.02798748,0.0,0.0,0.0
962.5908,307.27942,126808020,0.7875,0.10638297,157.94424,723.3941,-0.007936813,-0.006198868,-0.02798748,0.0,0.0,0.0
964.541,333.09583,126808037,0.77500004,0.11702127,205.23561,1401.9805,-0.007936813,-0.006198868,-0.02798748,0.0,0.0,0.0
965.891,365.70813,126808054,0.77500004,0.11702127,165.62854,2244.2246,-0.007936813,-0.006198868,-0.02798748,0.0,0.0,0.0
966.67346,394.53577,126808071,0.7875,0.12765957,73.293495,2425.8623,-0.007936813,-0.006198868,-0.02798748,0.0,0.0,0.0
968.71875,425.38013,126808087,0.825,0.11702127,43.704136,2147.8083,-0.007936813,-0.006198868,-0.02798748,0.0,0.0,0.0
971.60986,448.1538,126808104,0.8,0.12765957,102.346756,1700.9282,-0.007936813,-0.006198868,-0.02798748,0.0,0.0,0.0
976.8533,471.18408,126808121,0.83750004,0.12765957,249.22978,1330.5249,-0.007936813,-0.006198868,-0.02798748,0.0,0.0,0.0
983.0724,488.94336,126808137,0.825,0.10638297,396.28662,1022.1047,-0.007936813,-0.006198868,-0.02798748,0.0,0.0,0.0
990.27344,497.94946,126808154,0.83750004,0.10638297,476.26892,620.46313,-0.007936813,-0.006198868,-0.02798748,0.0,0.0,0.0
1001.4949,507.09546,126808171,0.825,0.11702127,630.99243,321.41852,-0.007936813,-0.006198868,-0.02798748,0.0,0.0,0.0
1012.6178,514.5979,126808187,0.83750004,0.12765957,774.7332,197.72084,-0.007936813,-0.006198868,-0.02798748,0.0,0.0,0.0
1023.14514,519.08545,126808204,0.77500004,0.12765957,795.60126,116.53151,-0.007936813,-0.006198868,-0.02798748,0.0,0.0,0.0
1033.8802,520.7595,126808221,0.77500004,0.10638297,751.23553,64.33315,-0.007936813,-0.006198868,-0.02798748,0.0,0.0,0.0
1053.7314,520.84424,126808238,0.71250004,0.10638297,869.04156,-57.23935,-0.007936813,-0.006198868,-0.02798748,0.0,0.0,0.0
1063.1317,519.65076,126808243,0.575,0.12765957,996.57117,-156.23212,-0.007936813,-0.006198868,-0.02798748,0.0,0.0,0.0
1063.1317,519.65076,126808252,0.575,0.12765957,996.57117,-156.23212,-0.007936813,-0.006198868,-0.02798748,0.0,0.0,0.0
887.6889,413.91882,126808452,0.925,0.12765957,0.0,0.0,0.009650543,-0.0049590915,-0.006389618,0.0,0.0,0.0
887.6889,413.91882,126808472,0.9375,0.12765957,-0.03732764,-0.012539145,0.009650543,-0.0049590915,-0.006389618,0.0,0.0,0.0
887.6889,413.91882,126808488,0.9125,0.12765957,-0.013676063,-0.0054172697,0.009650543,-0.0049590915,-0.006389618,0.0,0.0,0.0
915.6681,414.45752,126808505,0.77500004,0.14893617,1589.7794,22.386442,0.009650543,-0.0049590915,-0.006389618,0.0,0.0,0.0
947.6022,418.34937,126808522,0.725,0.08510638,2486.671,172.35786,0.009650543,-0.0049590915,-0.006389618,0.0,0.0,0.0
987.4989,423.18323,126808538,0.7,0.10638297,2992.6624,318.40253,0.009650543,-0.0049590915,-0.006389618,0.0,0.0,0.0
1035.6619,427.66357,126808555,0.5375,0.09574468,3410.7114,392.31583,0.009650543,-0.0049590915,-0.006389618,0.0,0.0,0.0
1039.6394,428.1349,126808556,0.175,0.07446808,3426.5413,390.43845,0.009650543,-0.0049590915,-0.006389618,0.0,0.0,0.0
1039.6394,428.1349,126808565,0.175,0.07446808,3426.5413,390.43845,0.009650543,-0.0049590915,-0.006389618,0.0,0.0,0.0
1095.1213,443.2395,126808717,0.8,0.12765957,0.0,0.0,0.009650543,-0.0049590915,-0.006389618,0.0,0.0,0.0
1095.1213,443.2395,126808739,0.85,0.12765957,-0.012154309,-0.0032369567,0.009650543,-0.0049590915,-0.006389618,0.0,0.0,0.0
1095.1213,443.2395,126808756,0.875,0.12765957,-0.004750051,0.004304007,0.009650543,-0.0049590915,-0.006389618,0.0,0.0,0.0
1095.1213,443.2395,126808772,0.8,0.12765957,0.03950381,0.014312251,0.009650543,-0.0049590915,-0.006389618,0.0,0.0,0.0
1095.1213,443.2395,126808786,0.7375,0.12765957,-0.033950936,-0.013182179,0.009650543,-0.0049590915,-0.006389618,0.0,0.0,0.0
1079.0518,466.4602,126808806,0.7375,0.08510638,-563.0537,807.64594,0.009650543,-0.0049590915,-0.006389618,0.0,0.0,0.0
1068.8967,490.10437,126808822,0.71250004,0.09574468,-880.45386,1558.0754,0.009650543,-0.0049590915,-0.006389618,0.0,0.0,0.0
1067.6302,505.95862,126808839,0.7,0.12765957,-668.1331,1660.7214,0.009650543,-0.0049590915,-0.006389618,0.0,0.0,0.0
1071.1619,525.8082,126808856,0.725,0.08510638,-92.36836,1500.7761,0.009650543,-0.0049590915,-0.006389618,0.0,0.0,0.0
1076.5958,538.25305,126808873,0.725,0.09574468,491.7822,1057.1675,0.009650543,-0.0049590915,-0.006389618,0.0,0.0,0.0
1081.859,545.10144,126808889,0.7375,0.10638297,676.09894,506.37265,0.009650543,-0.0049590915,-0.006389618,0.0,0.0,0.0
1089.7906,551.1438,126808906,0.77500004,0.10638297,576.86536,273.41196,0.0077204257,0.028032735,0.026888847,0.0,0.0,0.0
1100.1504,556.1903,126808923,0.75,0.10638297,629.9774,30.105375,0.0077204257,0.028032735,0.026888847,0.0,0.0,0.0
1108.9333,557.85645,126808939,0.8,0.10638297,671.67456,-10.624247,0.0077204257,0.028032735,0.026888847,0.0,0.0,0.0
1116.7267,554.20264,126808956,0.7625,0.12765957,632.5594,-141.5513,0.0077204257,0.028032735,0.026888847,0.0,0.0,0.0
1125.1978,542.4182,126808973,0.77500004,0.11702127,507.60327,-570.8837,0.0077204257,0.028032735,0.026888847,0.0,0.0,0.0
1136.5919,517.2754,126808989,0.75,0.14893617,547.14484,-1356.664,0.0077204257,0.028032735,0.026888847,0.0,0.0,0.0
1141.5425,493.44824,126809006,0.7875,0.11702127,514.50696,-1917.8812,0.0077204257,0.028032735,0.026888847,0.0,0.0,0.0
1140.6051,472.5443,126809023,0.7625,0.12765957,177.1626,-1893.5059,0.0077204257,0.028032735,0.026888847,0.0,0.0,0.0
1135.8213,457.63037,126809039,0.7625,0.11702127,-271.5809,-1432.4532,0.0077204257,0.028032735,0.026888847,0.0,0.0,0.0
1129.43,448.42297,126809056,0.8,0.10638297,-630.3137,-723.77545,0.0077204257,0.028032735,0.026888847,0.0,0.0,0.0
1117.875,435.13074,126809073,0.825,0.09574468,-834.62933,-423.70187,0.0077204257,0.028032735,0.026888847,0.0,0.0,0.0
1107.4816,428.05444,126809090,0.8125,0.12765957,-885.8589,-316.76288,0.0077204257,0.028032735,0.026888847,0.0,0.0,0.0
1102.5089,426.3579,126809106,0.83750004,0.12765957,-706.682,-158.92699,0.0077204257,0.028032735,0.026888847,0.0,0.0,0.0
1099.6145,426.3579,126809123,0.85,0.12765957,-317.32834,77.9589,0.0077204257,0.028032735,0.026888847,0.0,0.0,0.0
1097.8461,427.734,126809140,0.83750004,0.12765957,12.735041,334.11728,0.0077204257,0.028032735,0.026888847,0.0,0.0,0.0
1098.4479,430.49402,126809156,0.875,0.12765957,173.13733,355.78302,0.0077204257,0.028032735,0.026888847,0.0,0.0,0.0
1100.2738,432.37256,126809173,0.8875,0.12765957,197.38316,263.32925,0.0077204257,0.028032735,0.026888847,0.0,0.0,0.0
1105.42,434.88855,126809190,0.8125,0.10638297,304.91214,203.25037,0.0077204257,0.028032735,0.026888847,0.0,0.0,0.0
1116.0956,439.47266,126809207,0.77500004,0.09574468,544.9587,221.1935,0.0077204257,0.028032735,0.026888847,0.0,0.0,0.0
1134.1912,444.1499,126809224,0.77500004,0.12765957,1005.7054,287.83694,0.0077204257,0.028032735,0.026888847,0.0,0.0,0.0
1155.4901,446.94385,126809240,0.75,0.11702127,1439.5493,288.5766,0.0077204257,0.028032735,0.026888847,0.0,0.0,0.0
1176.4711,446.79346,126809257,0.77500004,0.14893617,1643.6823,148.88281,0.0077204257,0.028032735,0.026888847,0.0,0.0,0.0
1197.4208,441.59583,126809274,0.7625,0.11702127,1581.4016,-163.20634,0.0077204257,0.028032735,0.026888847,0.0,0.0,0.0
1212.1207,433.73987,126809291,0.7875,0.11702127,1237.0115,-503.44446,0.0077204257,0.028032735,0.026888847,0.0,0.0,0.0
1221.2819,423.20154,126809307,0.75,0.11702127,761.79987,-758.50793,0.0077204257,0.028032735,0.026888847,0.0,0.0,0.0
1227.3539,413.42908,126809324,0.75,0.12765957,275.59006,-851.7909,0.0077204257,0.028032735,0.026888847,0.0,0.0,0.0
1232.0197,404.10974,126809341,0.75,0.12765957,11.181067,-735.78534,0.0077204257,0.028032735,0.026888847,0.0,0.0,0.0
1235.2368,395.27515,126809357,0.75,0.10638297,-34.737144,-622.7489,0.0077204257,0.028032735,0.026888847,0.0,0.0,0.0
1236.0754,391.2633,126809374,0.7625,0.10638297,-36.52304,-380.94492,0.0077204257,0.028032735,0.026888847,0.0,0.0,0.0
1236.0754,389.20166,126809391,0.825,0.12765957,-90.38808,-122.705215,0.0077204257,0.028032735,0.026888847,0.0,0.0,0.0
1236.0754,389.04077,126809408,0.83750004,0.12765957,-114.36603,80.075386,0.0077204257,0.028032735,0.026888847,0.0,0.0,0.0
1236.0754,389.93323,126809424,0.8875,0.14893617,-92.03996,200.7538,0.0077204257,0.028032735,0.026888847,0.0,0.0,0.0
1236.0754,392.7334,126809441,0.875,0.14893617,-37.312046,235.01506,0.0077204257,0.028032735,0.026888847,0.0,0.0,0.0
1235.5757,396.4519,126809458,0.77500004,0.12765957,-20.996578,292.37338,0.0077204257,0.028032735,0.026888847,0.0,0.0,0.0
1238.7535,415.68457,126809475,0.7625,0.11702127,55.554974,725.46173,-0.009823658,-0.009573817,-0.01048851,0.0,0.0,0.0
1247.2816,440.68896,126809491,0.7375,0.11702127,320.52747,1405.6007,-0.009823658,-0.009573817,-0.01048851,0.0,0.0,0.0
1256.6099,465.56152,126809508,0.7625,0.12765957,611.26825,1896.2238,-0.009823658,-0.009573817,-0.01048851,0.0,0.0,0.0
1264.7227,488.6786,126809524,0.77500004,0.09574468,772.5085,2080.9329,-0.009823658,-0.009573817,-0.01048851,0.0,0.0,0.0
1271.3473,510.0193,126809541,0.75,0.10638297,699.2043,1762.978,-0.009823658,-0.009573817,-0.01048851,0.0,0.0,0.0
1274.563,531.87854,126809558,0.77500004,0.08510638,401.41302,1372.9104,-0.009823658,-0.009573817,-0.01048851,0.0,0.0,0.0
1272.394,548.3876,126809574,0.77500004,0.09574468,6.7486014,1092.5155,-0.009823658,-0.009573817,-0.01048851,0.0,0.0,0.0
1262.9196,567.8915,126809591,0.7625,0.12765957,-462.9237,947.28186,-0.009823658,-0.009573817,-0.01048851,0.0,0.0,0.0
1242.024,590.69543,126809608,0.7375,0.09574468,-1030.1626,1048.1555,-0.009823658,-0.009573817,-0.01048851,0.0,0.0,0.0
1201.7502,616.4297,126809625,0.725,0.12765957,-2154.266,1397.5128,-0.009823658,-0.009573817,-0.01048851,0.0,0.0,0.0
1150.7177,640.43506,126809641,0.7375,0.10638297,-3356.5068,1676.6832,-0.009823658,-0.009573817,-0.01048851,0.0,0.0,0.0
1062.2268,670.9081,126809658,0.45000002,0.10638297,-4942.9233,1800.396,-0.009823658,-0.009573817,-0.01048851,0.0,0.0,0.0
1062.2268,670.9081,126809665,0.45000002,0.10638297,-4942.9233,1800.396,-0.009823658,-0.009573817,-0.01048851,0.0,0.0,0.0
