x,y,timestamp,pressure,fingerarea,velocityx,velocityy,accelx,accely,accelz,gyrox,gyroy,gyroz
250.89618,241.5492,98461981,1.2875,0.14893617,0.0,0.0,0.02047807,0.01650548,-0.11887455,0.0,0.0,0.0
250.89618,241.5492,98462012,1.4375,0.14893617,-0.004942261,-0.00593898,0.04838243,0.12520432,-0.12709904,0.0,0.0,0.0
250.89618,241.5492,98462028,1.475,0.14893617,0.007472576,0.006778784,0.04838243,0.12520432,-0.12709904,0.0,0.0,0.0
250.89618,241.5492,98462045,1.4375,0.14893617,0.0015952328,4.5931197E-4,0.04838243,0.12520432,-0.12709904,0.0,0.0,0.0
250.89618,241.5492,98462062,1.1125001,0.12765957,0.0076909517,0.007745408,0.04838243,0.12520432,-0.12709904,9.782707E-5,0.0,0.0
246.88895,262.9187,98462078,0.9375,0.08510638,-97.364426,519.334,0.04838243,0.12520432,-0.12709904,9.782707E-5,0.0,0.0
242.42938,282.04944,98462095,0.925,0.10638297,-265.96637,1278.0515,0.04838243,0.12520432,-0.12709904,9.782707E-5,0.0,0.0
236.5946,317.50073,98462112,0.90000004,0.08510638,-415.02765,2169.3696,0.04838243,0.12520432,-0.12709904,9.782707E-5,0.0,0.0
229.51187,344.5652,98462129,0.8875,0.10638297,-502.68143,2466.259,0.04838243,0.12520432,-0.12709904,-3.123801E-4,3.47089E-5,0.0
221.0047,376.66577,98462145,0.8875,0.08510638,-555.16986,2286.5183,0.04838243,0.12520432,-0.12709904,-3.123801E-4,3.47089E-5,0.0
211.94293,408.46667,98462162,0.90000004,0.12765957,-581.5487,2002.2499,0.04838243,0.12520432,-0.12709904,-3.123801E-4,3.47089E-5,0.0
201.70172,434.35864,98462179,0.9125,0.09574468,-648.3197,1793.3484,0.04838243,0.12520432,-0.12709904,-3.123801E-4,3.47089E-5,0.0
189.8016,459.766,98462195,0.925,0.12765957,-717.726,1553.0767,0.04838243,0.12520432,-0.12709904,0.0,0.0,0.0
178.9954,477.75647,98462212,0.925,0.08510638,-728.6199,1105.2881,0.04838243,0.12520432,-0.12709904,0.0,0.0,0.0
172.06403,487.73804,98462229,0.9375,0.10638297,-626.2578,694.7305,0.04838243,0.12520432,-0.12709904,0.0,0.0,0.0
163.18857,497.17773,98462246,0.9375,0.12765957,-477.40906,282.5792,0.04838243,0.12520432,-0.12709904,0.0,0.0,0.0
152.31323,507.30457,98462262,1.0,0.12765957,-495.6634,239.87704,0.04838243,0.12520432,-0.12709904,1.726014E-4,-2.4657342E-5,0.0
139.81993,513.70337,98462279,1.0375,0.10638297,-654.2696,231.37332,0.04838243,0.12520432,-0.12709904,1.726014E-4,-2.4657342E-5,0.0
128.4425,515.20825,98462296,1.1125001,0.11702127,-782.44556,165.80614,0.04838243,0.12520432,-0.12709904,1.726014E-4,-2.4657342E-5,0.0
119.05316,513.8699,98462312,1.1875,0.12765957,-750.123,-62.881443,0.04838243,0.12520432,-0.12709904,1.726014E-4,-2.4657342E-5,0.0
112.43413,508.9823,98462329,1.15,0.12765957,-528.9949,-388.92664,0.04838243,0.12520432,-0.12709904,3.372172E-4,-3.372172E-5,0.0
107.30466,503.412,98462346,1.1375,0.11702127,-301.08966,-568.7394,0.04838243,0.12520432,-0.12709904,3.372172E-4,-3.372172E-5,0.0
102.68042,492.9458,98462363,1.1,0.11702127,-149.95703,-661.8803,0.04838243,0.12520432,-0.12709904,3.372172E-4,-3.372172E-5,0.0
100.65024,483.26782,98462379,1.075,0.11702127,-80.46873,-755.65295,0.04838243,0.12520432,-0.12709904,3.372172E-4,-3.372172E-5,0.0
100.753876,474.2588,98462396,1.0625,0.12765957,14.867103,-725.60144,0.04838243,0.12520432,-0.12709904,7.5029975E-6,0.0,0.0
102.17384,466.4143,98462413,1.0875,0.12765957,142.9746,-614.5733,0.04838243,0.12520432,-0.12709904,7.5029975E-6,0.0,0.0
104.67325,462.2185,98462429,1.1125001,0.12765957,243.2432,-376.78958,0.04838243,0.12520432,-0.12709904,7.5029975E-6,0.0,0.0
111.0654,459.31616,98462446,1.2,0.12765957,361.74026,-138.91344,0.04838243,0.12520432,-0.12709904,7.5029975E-6,0.0,0.0
119.37572,460.10706,98462463,1.2375001,0.11702127,525.4385,47.413113,0.04838243,0.12520432,-0.12709904,-0.0,0.0,0.0
127.21556,463.81677,98462479,1.1,0.12765957,632.56256,280.56976,0.04838243,0.12520432,-0.12709904,-0.0,0.0,0.0
138.96132,470.45703,98462496,1.075,0.14893617,727.95074,469.10214,0.04838243,0.12520432,-0.12709904,-0.0,0.0,0.0
159.65958,481.87976,98462513,1.1,0.10638297,1034.5026,712.34973,0.04838243,0.12520432,-0.12709904,-0.0,0.0,0.0
181.00003,492.5874,98462530,1.0625,0.10638297,1379.1122,872.2053,0.038705945,0.14816356,-0.045679092,1.8981249E-5,0.0,0.0
204.53574,499.39856,98462546,1.0500001,0.12765957,1647.9183,767.86017,0.038705945,0.14816356,-0.045679092,1.8981249E-5,0.0,0.0
226.99423,502.76917,98462563,1.0375,0.08510638,1647.4714,403.20612,0.038705945,0.14816356,-0.045679092,1.8981249E-5,0.0,0.0
254.29013,501.77466,98462580,1.025,0.12765957,1571.063,-32.765934,0.038705945,0.14816356,-0.045679092,1.8981249E-5,0.0,0.0
282.41837,495.46045,98462596,1.0125,0.08510638,1716.0381,-412.97665,0.038705945,0.14816356,-0.045679092,3.0198984E-5,0.0,0.0
310.64035,482.52393,98462613,0.9875,0.12765957,1823.2413,-802.22736,0.038705945,0.14816356,-0.045679092,3.0198984E-5,0.0,0.0
333.74567,466.26172,98462630,1.025,0.11702127,1699.0449,-1177.9108,0.038705945,0.14816356,-0.045679092,3.0198984E-5,0.0,0.0
350.84848,452.9137,98462647,1.0125,0.12765957,1282.0576,-1268.9801,0.038705945,0.14816356,-0.045679092,3.0198984E-5,0.0,0.0
360.2217,440.75903,98462663,1.025,0.11702127,674.65247,-1094.9014,0.038705945,0.14816356,-0.045679092,-1.660858E-4,2.3726541E-5,0.0
365.4591,431.4663,98462680,1.025,0.12765957,150.89418,-706.5537,0.038705945,0.14816356,-0.045679092,-1.660858E-4,2.3726541E-5,0.0
367.92163,419.5736,98462697,1.1,0.12765957,-161.57098,-552.0967,0.038705945,0.14816356,-0.045679092,-1.660858E-4,2.3726541E-5,0.0
366.7562,416.4026,98462713,1.225,0.14893617,-317.01685,-347.82446,0.038705945,0.14816356,-0.045679092,-1.660858E-4,2.3726541E-5,0.0
362.87338,414.80737,98462730,1.3125,0.12765957,-406.3317,-100.127495,0.038705945,0.14816356,-0.045679092,-1.0610839E-5,0.0,0.0
355.38718,416.3512,98462747,1.3000001,0.12765957,-536.6222,169.51003,0.038705945,0.14816356,-0.045679092,-1.0610839E-5,0.0,0.0
347.7867,421.3401,98462764,1.2125,0.10638297,-657.31055,427.60175,0.038705945,0.14816356,-0.045679092,-1.0610839E-5,0.0,0.0
339.03806,429.10046,98462780,1.0375,0.10638297,-660.1923,550.7118,0.038705945,0.14816356,-0.045679092,-1.0610839E-5,0.0,0.0
318.88004,447.9469,98462797,0.975,0.12765957,-925.8615,939.7909,0.038705945,0.14816356,-0.045679092,3.6294656E-5,0.0,0.0
302.62735,467.04114,98462814,1.025,0.09574468,-1228.9917,1388.3431,0.038705945,0.14816356,-0.045679092,3.6294656E-5,0.0,0.0
289.50552,487.44812,98462830,1.025,0.09574468,-1224.7688,1562.7896,0.038705945,0.14816356,-0.045679092,3.6294656E-5,0.0,0.0
283.7057,501.02734,98462847,1.0,0.10638297,-808.8241,1390.7991,0.038705945,0.14816356,-0.045679092,3.6294656E-5,0.0,0.0
283.38562,512.1946,98462864,1.0,0.10638297,-102.78881,884.06793,0.038705945,0.14816356,-0.045679092,-5.0331622E-5,0.0,0.0
285.90186,519.69116,98462881,1.0125,0.09574468,401.061,402.0249,0.038705945,0.14816356,-0.045679092,-5.0331622E-5,0.0,0.0
290.14594,524.32654,98462897,1.025,0.10638297,533.14935,142.90256,0.038705945,0.14816356,-0.045679092,-5.0331622E-5,0.0,0.0
300.35858,530.787,98462914,1.0500001,0.11702127,704.90625,90.404724,0.038705945,0.14816356,-0.045679092,-5.0331622E-5,0.0,0.0
315.2964,535.2106,98462931,1.075,0.12765957,919.05005,168.55421,0.038705945,0.14816356,-0.045679092,3.613921E-5,0.0,0.0
334.14755,535.6438,98462947,1.075,0.09574468,1227.7338,86.27,0.038705945,0.14816356,-0.045679092,3.613921E-5,0.0,0.0
352.7776,527.22766,98462964,1.0625,0.12765957,1423.5692,-237.38622,0.038705945,0.14816356,-0.045679092,3.613921E-5,0.0,0.0
370.02618,516.1544,98462981,1.025,0.12765957,1340.9198,-784.3878,0.038705945,0.14816356,-0.045679092,3.613921E-5,0.0,0.0
385.54465,501.78076,98462997,1.0125,0.09574468,1110.7382,-1099.2153,0.038705945,0.14816356,-0.045679092,-0.0,0.0,0.0
398.09158,483.67822,98463014,1.0125,0.12765957,829.6964,-1290.9142,0.038705945,0.14816356,-0.045679092,-0.0,0.0,0.0
410.92026,456.4812,98463031,1.0,0.12765957,658.951,-1588.392,0.038705945,0.14816356,-0.045679092,-0.0,0.0,0.0
414.64517,438.60095,98463048,1.0125,0.09574468,386.21466,-1640.0953,0.038705945,0.14816356,-0.045679092,-0.0,0.0,0.0
414.89478,424.339,98463064,1.0625,0.11702127,22.145382,-1330.7178,-0.03303522,-0.025469303,0.059456825,-3.0384783E-5,0.0,0.0
413.35928,418.38977,98463081,1.1,0.12765957,-320.58655,-672.7289,-0.03303522,-0.025469303,0.059456825,-3.0384783E-5,0.0,0.0
411.298,416.54346,98463098,1.275,0.12765957,-422.35046,39.676086,-0.03303522,-0.025469303,0.059456825,-3.0384783E-5,0.0,0.0
409.779,415.69592,98463114,1.3875,0.12765957,-330.4303,331.92676,-0.03303522,-0.025469303,0.059456825,-3.0384783E-5,0.0,0.0
407.01157,417.8683,98463131,1.375,0.14893617,-208.07732,385.42307,-0.03303522,-0.025469303,0.059456825,6.752693E-5,0.0,0.0
404.551,423.59082,98463148,1.275,0.12765957,-176.26413,458.7273,-0.03303522,-0.025469303,0.059456825,6.752693E-5,0.0,0.0
403.8464,430.20886,98463165,1.0375,0.09574468,-125.52704,503.3445,-0.03303522,-0.025469303,0.059456825,6.752693E-5,0.0,0.0
404.08,445.08313,98463181,0.9375,0.10638297,-25.576174,781.69135,-0.03303522,-0.025469303,0.059456825,6.752693E-5,0.0,0.0
406.4312,469.46265,98463198,0.95,0.09574468,116.01283,1337.5206,-0.03303522,-0.025469303,0.059456825,-5.5339362E-5,1.38348405E-5,0.0
411.73386,488.58875,98463215,0.925,0.08510638,302.67075,1668.698,-0.03303522,-0.025469303,0.059456825,-5.5339362E-5,1.38348405E-5,0.0
419.20395,503.41345,98463231,0.95,0.12765957,472.18927,1465.3278,-0.03303522,-0.025469303,0.059456825,-5.5339362E-5,1.38348405E-5,0.0
428.14047,514.93555,98463248,0.9875,0.12765957,633.3611,943.1553,-0.03303522,-0.025469303,0.059456825,-5.5339362E-5,1.38348405E-5,0.0
444.91028,526.0935,98463265,1.0375,0.09574468,875.1033,474.128,-0.03303522,-0.025469303,0.059456825,4.2443335E-5,0.0,0.0
462.44678,528.53577,98463282,1.0500001,0.12765957,1183.1714,212.77397,-0.03303522,-0.025469303,0.059456825,4.2443335E-5,0.0,0.0
484.5819,523.1238,98463298,1.0875,0.11702127,1440.0574,-224.65439,-0.03303522,-0.025469303,0.059456825,4.2443335E-5,0.0,0.0
502.1352,511.99573,98463315,1.0125,0.10638297,1447.5823,-783.0345,-0.03303522,-0.025469303,0.059456825,4.2443335E-5,0.0,0.0
520.2974,492.12024,98463332,1.0,0.11702127,1272.4912,-1329.2323,-0.03303522,-0.025469303,0.059456825,-2.4196437E-5,0.0,0.0
539.9788,460.22888,98463348,1.025,0.12765957,1119.0463,-1937.1359,-0.03303522,-0.025469303,0.059456825,-2.4196437E-5,0.0,0.0
559.8211,417.6018,98463365,1.0,0.12765957,1166.6914,-2698.2275,-0.03303522,-0.025469303,0.059456825,-2.4196437E-5,0.0,0.0
571.9601,374.9652,98463382,0.9875,0.08510638,983.3263,-3156.2754,-0.03303522,-0.025469303,0.059456825,-2.4196437E-5,0.0,0.0
579.55005,336.50354,98463399,1.0,0.09574468,599.5557,-3072.239,-0.03303522,-0.025469303,0.059456825,4.7453127E-6,0.0,0.0
582.3749,298.8053,98463415,1.0,0.14893617,81.703835,-2565.9832,-0.03303522,-0.025469303,0.059456825,4.7453127E-6,0.0,0.0
583.28796,270.81274,98463432,1.0,0.09574468,-229.94633,-1926.2565,-0.03303522,-0.025469303,0.059456825,4.7453127E-6,0.0,0.0
582.5449,245.3789,98463449,1.0125,0.14893617,-269.91064,-1508.3517,-0.03303522,-0.025469303,0.059456825,4.7453127E-6,0.0,0.0
579.5807,231.03467,98463465,1.025,0.09574468,-322.0233,-894.6885,-0.03303522,-0.025469303,0.059456825,-3.613921E-5,0.0,0.0
576.44476,223.96228,98463482,1.0375,0.08510638,-317.36752,-323.34055,-0.03303522,-0.025469303,0.059456825,-3.613921E-5,0.0,0.0
572.81726,220.24817,98463499,1.0875,0.08510638,-325.12778,168.69205,-0.03303522,-0.025469303,0.059456825,-3.613921E-5,0.0,0.0
569.17944,219.33667,98463516,1.225,0.12765957,-295.522,341.58945,-0.03303522,-0.025469303,0.059456825,-3.613921E-5,0.0,0.0
566.04584,221.26038,98463532,1.2625,0.12765957,-241.66252,397.50107,-0.03303522,-0.025469303,0.059456825,0.0,0.0,0.0
563.56177,229.04846,98463549,1.2125,0.12765957,-184.09924,513.0727,-0.03303522,-0.025469303,0.059456825,0.0,0.0,0.0
562.63416,237.92969,98463566,0.975,0.10638297,-97.348495,665.9212,-0.03303522,-0.025469303,0.059456825,0.0,0.0,0.0
555.89105,269.29736,98463582,0.9375,0.09574468,-168.02124,1351.323,-0.03303522,-0.025469303,0.059456825,0.0,0.0,0.0
549.8702,303.32202,98463599,0.9125,0.12765957,-354.4977,2245.424,-0.09042817,-0.04437542,-0.01643467,0.0,0.0,0.0
545.6765,340.4934,98463616,0.925,0.12765957,-429.18393,2824.8813,-0.09042817,-0.04437542,-0.01643467,0.0,0.0,0.0
542.97955,378.89038,98463632,0.925,0.09574468,-332.3001,2967.502,-0.09042817,-0.04437542,-0.01643467,0.0,0.0,0.0
541.0987,419.30334,98463649,0.9375,0.12765957,-108.642555,2691.1611,-0.09042817,-0.04437542,-0.01643467,5.0331622E-5,0.0,0.0
540.0481,454.87378,98463666,0.9125,0.12765957,20.523664,2345.424,-0.09042817,-0.04437542,-0.01643467,5.0331622E-5,0.0,0.0
539.37256,485.0276,98463683,0.9125,0.09574468,40.181534,2041.6332,-0.09042817,-0.04437542,-0.01643467,5.0331622E-5,0.0,0.0
539.3023,509.3402,98463699,0.9125,0.12765957,26.520279,1588.1781,-0.09042817,-0.04437542,-0.01643467,5.0331622E-5,0.0,0.0
538.8024,526.1238,98463716,0.925,0.09574468,12.609878,1031.9766,-0.09042817,-0.04437542,-0.01643467,-1.710946E-5,0.0,0.0
538.8024,534.282,98463733,0.925,0.09574468,15.455508,427.1217,-0.09042817,-0.04437542,-0.01643467,-1.710946E-5,0.0,0.0
538.8024,538.6732,98463749,1.0375,0.11702127,11.2780695,-36.695034,-0.09042817,-0.04437542,-0.01643467,-1.710946E-5,0.0,0.0
538.8024,541.21924,98463766,1.275,0.12765957,8.515269,-239.33192,-0.09042817,-0.04437542,-0.01643467,-1.710946E-5,0.0,0.0
538.8024,539.776,98463783,1.3625001,0.14893617,7.9014726,-367.60297,-0.09042817,-0.04437542,-0.01643467,-9.1892536E-5,1.8378507E-5,0.0
541.87396,517.4872,98463800,1.0500001,0.12765957,78.08882,-837.6276,-0.09042817,-0.04437542,-0.01643467,-9.1892536E-5,1.8378507E-5,0.0
550.3932,485.55164,98463816,1.0,0.08510638,340.88754,-1878.8943,-0.09042817,-0.04437542,-0.01643467,-9.1892536E-5,1.8378507E-5,0.0
562.9039,451.21545,98463833,0.975,0.10638297,732.04285,-2752.4768,-0.09042817,-0.04437542,-0.01643467,-9.1892536E-5,1.8378507E-5,0.0
576.43774,421.56592,98463850,0.975,0.11702127,1007.8872,-2710.9976,-0.09042817,-0.04437542,-0.01643467,6.710883E-5,0.0,0.0
587.0042,401.5675,98463866,0.975,0.11702127,1024.6588,-2022.683,-0.09042817,-0.04437542,-0.01643467,6.710883E-5,0.0,0.0
603.1652,382.73376,98463883,0.96250004,0.08510638,917.1124,-1074.4275,-0.09042817,-0.04437542,-0.01643467,6.710883E-5,0.0,0.0
619.62775,370.76624,98463900,0.975,0.12765957,959.4008,-572.20404,-0.09042817,-0.04437542,-0.01643467,6.710883E-5,0.0,0.0
630.8314,367.71667,98463917,1.0125,0.12765957,925.8691,-152.68861,-0.09042817,-0.04437542,-0.01643467,-1.4656782E-4,2.442797E-5,0.0
635.97424,371.45154,98463933,1.1,0.14893617,608.5172,344.82794,-0.09042817,-0.04437542,-0.01643467,-1.4656782E-4,2.442797E-5,0.0
638.5549,377.27673,98463950,1.1125001,0.12765957,166.7681,658.6704,-0.09042817,-0.04437542,-0.01643467,-1.4656782E-4,2.442797E-5,0.0
639.8961,384.60938,98463967,1.125,0.12765957,-183.34908,881.4111,-0.09042817,-0.04437542,-0.01643467,-1.4656782E-4,2.442797E-5,0.0
638.9533,392.224,98463983,1.0500001,0.12765957,-257.22604,767.17584,-0.09042817,-0.04437542,-0.01643467,-8.55473E-5,1.710946E-5,0.0
635.4652,402.73914,98464000,1.0125,0.12765957,-283.40796,699.75507,-0.09042817,-0.04437542,-0.01643467,-8.55473E-5,1.710946E-5,0.0
630.2975,413.87476,98464017,0.9875,0.10638297,-370.13693,730.2925,-0.09042817,-0.04437542,-0.01643467,-8.55473E-5,1.710946E-5,0.0
623.1944,422.68604,98464034,0.975,0.09574468,-506.79825,701.15796,-0.09042817,-0.04437542,-0.01643467,-8.55473E-5,1.710946E-5,0.0
613.31866,431.94507,98464050,1.0,0.10638297,-640.7035,623.2471,-0.09042817,-0.04437542,-0.01643467,2.880795E-4,-3.2008833E-5,0.0
603.5646,438.9253,98464067,1.0,0.12765957,-714.9673,459.15936,-0.09042817,-0.04437542,-0.01643467,2.880795E-4,-3.2008833E-5,0.0
593.1512,443.74304,98464084,1.075,0.12765957,-737.40173,301.23383,-0.09042817,-0.04437542,-0.01643467,2.880795E-4,-3.2008833E-5,0.0
586.1658,446.68127,98464100,1.0875,0.12765957,-618.42334,162.45258,-0.09042817,-0.04437542,-0.01643467,2.880795E-4,-3.2008833E-5,0.0
582.33813,446.79346,98464117,1.1125001,0.12765957,-373.583,-10.758987,0.055657446,0.068499565,0.0028524399,0.0,0.0,0.0
580.7609,446.79346,98464134,1.1,0.12765957,-85.203766,-129.7567,0.055657446,0.068499565,0.0028524399,0.0,0.0,0.0
580.28894,446.79346,98464150,1.0125,0.12765957,101.17573,-135.28416,0.055657446,0.068499565,0.0028524399,0.0,0.0,0.0
580.90424,446.79346,98464167,0.9375,0.12765957,176.28061,-92.94426,0.055657446,0.068499565,0.0028524399,0.0,0.0,0.0
584.4116,450.01343,98464184,0.8875,0.14893617,234.73933,50.96547,0.055657446,0.068499565,0.0028524399,-9.1892536E-5,1.8378507E-5,0.0
589.8908,458.20337,98464201,0.925,0.10638297,344.19797,320.15616,0.055657446,0.068499565,0.0028524399,-9.1892536E-5,1.8378507E-5,0.0
604.6478,472.30066,98464217,0.9875,0.09574468,657.35364,719.3978,0.055657446,0.068499565,0.0028524399,-9.1892536E-5,1.8378507E-5,0.0
627.24286,482.48523,98464234,1.025,0.10638297,1282.2671,1001.06744,0.055657446,0.068499565,0.0028524399,-9.1892536E-5,1.8378507E-5,0.0
654.3934,485.53992,98464251,1.0125,0.12765957,1827.0476,713.5204,0.055657446,0.068499565,0.0028524399,0.0,0.0,0.0
681.35095,482.27173,98464267,1.025,0.12765957,2071.4216,70.786285,0.055657446,0.068499565,0.0028524399,0.0,0.0,0.0
707.2955,470.60266,98464284,0.9875,0.12765957,1988.2999,-696.19214,0.055657446,0.068499565,0.0028524399,0.0,0.0,0.0
726.6108,459.3098,98464301,1.0,0.11702127,1535.8591,-1120.3342,0.055657446,0.068499565,0.0028524399,0.0,0.0,0.0
743.1022,446.43054,98464318,0.9875,0.12765957,1061.8298,-1155.9221,0.055657446,0.068499565,0.0028524399,0.0,0.0,0.0
753.8361,433.32275,98464334,0.96250004,0.12765957,626.26483,-1040.7773,0.055657446,0.068499565,0.0028524399,0.0,0.0,0.0
762.7806,413.47217,98464351,0.975,0.12765957,335.63568,-1049.1951,0.055657446,0.068499565,0.0028524399,0.0,0.0,0.0
764.3208,401.22668,98464368,1.025,0.11702127,76.721725,-1051.7052,0.055657446,0.068499565,0.0028524399,0.0,0.0,0.0
761.9779,393.9242,98464384,1.0500001,0.09574468,-235.1295,-812.8681,0.055657446,0.068499565,0.0028524399,-1.8981249E-5,0.0,0.0
759.3083,390.31738,98464401,1.1375,0.11702127,-438.04984,-350.58463,0.055657446,0.068499565,0.0028524399,-1.8981249E-5,0.0,0.0
755.6878,389.04077,98464418,1.225,0.12765957,-484.30148,65.693436,0.055657446,0.068499565,0.0028524399,-1.8981249E-5,0.0,0.0
750.72577,390.37695,98464435,1.2375001,0.14893617,-425.3588,318.04205,0.055657446,0.068499565,0.0028524399,-1.8981249E-5,0.0,0.0
747.6416,393.29724,98464451,1.1625,0.12765957,-307.56042,322.44574,0.055657446,0.068499565,0.0028524399,5.8696245E-5,0.0,0.0
743.6588,398.95105,98464468,1.0125,0.12765957,-246.49777,383.8011,0.055657446,0.068499565,0.0028524399,5.8696245E-5,0.0,0.0
736.5139,415.3634,98464485,0.9125,0.09574468,-307.45496,731.7013,0.055657446,0.068499565,0.0028524399,5.8696245E-5,0.0,0.0
730.08026,436.54883,98464501,0.90000004,0.09574468,-421.66132,1321.2382,0.055657446,0.068499565,0.0028524399,5.8696245E-5,0.0,0.0
727.78314,456.55603,98464518,0.8875,0.11702127,-386.24207,1640.5413,0.055657446,0.068499565,0.0028524399,3.355443E-6,0.0,0.0
728.24884,475.33997,98464535,0.8875,0.08510638,-102.69443,1548.0614,0.055657446,0.068499565,0.0028524399,3.355443E-6,0.0,0.0
730.0447,486.62256,98464552,0.8875,0.08510638,177.99744,1109.5658,0.055657446,0.068499565,0.0028524399,3.355443E-6,0.0,0.0
733.06995,494.47192,98464568,0.96250004,0.12765957,325.48178,531.09216,0.055657446,0.068499565,0.0028524399,3.355443E-6,0.0,0.0
736.81805,497.95374,98464585,0.975,0.12765957,338.07425,135.22112,0.055657446,0.068499565,0.0028524399,0.0,0.0,0.0
744.96204,500.10364,98464602,1.075,0.12765957,428.42325,-123.25793,0.055657446,0.068499565,0.0028524399,0.0,0.0,0.0
757.84576,498.8578,98464618,1.0625,0.12765957,685.70215,-235.59512,0.055657446,0.068499565,0.0028524399,0.0,0.0,0.0
766.37854,486.93384,98464635,0.95,0.09574468,833.76965,-548.7742,0.055657446,0.068499565,0.0028524399,0.0,0.0,0.0
777.04694,462.56702,98464652,0.95,0.10638297,827.9037,-1205.7424,0.076525986,0.07079959,0.03428173,-5.533931E-5,0.0,0.0
781.4706,441.96228,98464668,0.96250004,0.08510638,504.49054,-1799.47,0.076525986,0.07079959,0.03428173,-5.533931E-5,0.0,0.0
781.0303,418.07703,98464685,0.9875,0.12765957,77.08374,-1938.0856,0.076525986,0.07079959,0.03428173,-5.533931E-5,0.0,0.0
778.5891,400.5426,98464702,1.0,0.10638297,-258.1919,-1586.1255,0.076525986,0.07079959,0.03428173,-5.533931E-5,0.0,0.0
775.46686,388.12207,98464719,1.0125,0.08510638,-456.49463,-974.7535,0.076525986,0.07079959,0.03428173,2.0132621E-4,0.0,0.0
773.2688,381.15808,98464735,1.0500001,0.08510638,-423.16354,-463.16943,0.076525986,0.07079959,0.03428173,2.0132621E-4,0.0,0.0
771.70544,378.34106,98464752,1.15,0.11702127,-212.23468,-24.082174,0.076525986,0.07079959,0.03428173,2.0132621E-4,0.0,0.0
770.6683,378.37878,98464769,1.2625,0.12765957,-85.46637,240.78865,0.076525986,0.07079959,0.03428173,2.0132621E-4,0.0,0.0
770.2271,381.4065,98464785,1.325,0.14893617,-11.421043,376.23285,0.076525986,0.07079959,0.03428173,-2.3726541E-5,0.0,0.0
770.2271,386.19092,98464802,1.1875,0.12765957,28.6228,473.74713,0.076525986,0.07079959,0.03428173,-2.3726541E-5,0.0,0.0
771.2245,394.65015,98464819,0.9375,0.10638297,56.999535,539.4024,0.076525986,0.07079959,0.03428173,-2.3726541E-5,0.0,0.0
774.8462,421.57788,98464836,0.90000004,0.08510638,155.90948,1113.7585,0.076525986,0.07079959,0.03428173,-2.3726541E-5,0.0,0.0
780.28204,444.7964,98464852,0.9375,0.10638297,325.43692,1801.3599,0.076525986,0.07079959,0.03428173,7.5029975E-6,0.0,0.0
786.9567,466.6621,98464869,0.95,0.09574468,470.2454,1953.5298,0.076525986,0.07079959,0.03428173,7.5029975E-6,0.0,0.0
792.397,481.4674,98464886,0.95,0.08510638,500.39252,1530.1333,0.076525986,0.07079959,0.03428173,7.5029975E-6,0.0,0.0
796.4489,486.844,98464902,0.9875,0.11702127,369.62402,575.64,0.076525986,0.07079959,0.03428173,7.5029975E-6,0.0,0.0
804.131,491.72156,98464919,1.0500001,0.12765957,318.01862,-13.226713,0.076525986,0.07079959,0.03428173,9.549742E-5,0.0,0.0
817.615,492.18872,98464936,1.075,0.12765957,544.2339,-246.94388,0.076525986,0.07079959,0.03428173,9.549742E-5,0.0,0.0
831.26135,481.3933,98464953,0.95,0.10638297,897.5081,-605.4486,0.076525986,0.07079959,0.03428173,9.549742E-5,0.0,0.0
848.5184,458.12268,98464969,0.95,0.11702127,1158.0735,-1234.0597,0.076525986,0.07079959,0.03428173,9.549742E-5,0.0,0.0
873.3927,405.4077,98464986,0.95,0.14893617,1411.0157,-2549.2383,0.076525986,0.07079959,0.03428173,-3.243509E-4,4.0543862E-5,0.0
882.8147,370.16272,98465003,0.96250004,0.10638297,1228.2062,-3365.089,0.076525986,0.07079959,0.03428173,-3.243509E-4,4.0543862E-5,0.0
891.0917,325.5807,98465019,0.95,0.08510638,814.86035,-3558.6223,0.076525986,0.07079959,0.03428173,-3.243509E-4,4.0543862E-5,0.0
897.5072,279.72253,98465036,0.925,0.08510638,392.9735,-3392.5222,0.076525986,0.07079959,0.03428173,-3.243509E-4,4.0543862E-5,0.0
899.42834,238.61914,98465053,0.96250004,0.12765957,-74.861496,-2722.6821,0.076525986,0.07079959,0.03428173,-1.5005995E-5,0.0,0.0
899.9162,208.55371,98465070,0.9875,0.11702127,-179.5786,-2114.101,0.076525986,0.07079959,0.03428173,-1.5005995E-5,0.0,0.0
896.7252,184.32556,98465086,0.9875,0.10638297,-295.8571,-1455.5076,0.076525986,0.07079959,0.03428173,-1.5005995E-5,0.0,0.0
893.504,171.87744,98465103,1.0,0.08510638,-388.49033,-663.0413,0.076525986,0.07079959,0.03428173,-1.5005995E-5,0.0,0.0
891.8307,166.28088,98465120,1.025,0.08510638,-312.80252,-95.4231,0.076525986,0.07079959,0.03428173,5.8696245E-5,0.0,0.0
890.801,165.13794,98465136,1.1375,0.10638297,-173.3537,362.3889,0.076525986,0.07079959,0.03428173,5.8696245E-5,0.0,0.0
889.7011,167.75781,98465153,1.25,0.12765957,-51.252956,619.29584,0.076525986,0.07079959,0.03428173,5.8696245E-5,0.0,0.0
889.68823,173.29443,98465170,1.1625,0.12765957,22.581398,620.73956,0.076525986,0.07079959,0.03428173,5.8696245E-5,0.0,0.0
890.829,187.84106,98465187,0.925,0.10638297,57.848934,827.2187,0.013220787,-0.07936025,0.011425972,0.0,0.0,0.0
891.8032,224.19775,98465203,0.9375,0.10638297,96.452484,1734.8652,0.013220787,-0.07936025,0.011425972,0.0,0.0,0.0
896.42017,272.06152,98465220,0.9125,0.08510638,212.1935,2901.8376,0.013220787,-0.07936025,0.011425972,0.0,0.0,0.0
900.2418,314.22705,98465237,0.925,0.10638297,298.84045,3485.9272,0.013220787,-0.07936025,0.011425972,0.0,0.0,0.0
906.97565,356.8401,98465253,0.9375,0.12765957,403.71164,3333.333,0.013220787,-0.07936025,0.011425972,3.372172E-4,-3.372172E-5,0.0
914.88245,392.38806,98465270,0.9375,0.12765957,518.10443,2584.0857,0.013220787,-0.07936025,0.011425972,3.372172E-4,-3.372172E-5,0.0
923.3896,424.844,98465287,0.95,0.09574468,590.77606,2052.1726,0.013220787,-0.07936025,0.011425972,3.372172E-4,-3.372172E-5,0.0
931.0794,445.20654,98465303,0.9375,0.12765957,582.24536,1371.0684,0.013220787,-0.07936025,0.011425972,3.372172E-4,-3.372172E-5,0.0
937.80817,461.33093,98465320,0.9125,0.10638297,481.7154,705.74896,0.013220787,-0.07936025,0.011425972,0.0,0.0,0.0
943.40656,472.2079,98465337,0.875,0.08510638,372.0214,349.3095,0.013220787,-0.07936025,0.011425972,0.0,0.0,0.0
948.40173,476.84424,98465354,0.8,0.08510638,269.35577,32.26396,0.013220787,-0.07936025,0.011425972,0.0,0.0,0.0
950.6684,477.8911,98465362,0.275,0.11702127,234.28145,-130.27255,0.013220787,-0.07936025,0.011425972,0.0,0.0,0.0
950.6684,477.8911,98465370,0.275,0.11702127,234.28145,-130.27255,0.013220787,-0.07936025,0.011425972,0.0,0.0,0.0
820.2108,328.62256,98465547,1.1875,0.12765957,0.0,0.0,0.013220787,-0.07936025,0.011425972,0.0,0.0,0.0
820.2108,328.62256,98465571,1.25,0.12765957,0.014530457,0.008555536,0.013220787,-0.07936025,0.011425972,0.0,0.0,0.0
820.2108,328.62256,98465588,1.0375,0.09574468,0.06728027,0.029044567,0.013220787,-0.07936025,0.011425972,-1.5852452E-4,2.6420752E-5,0.0
860.12665,342.63562,98465604,0.975,0.14893617,2216.6704,777.679,0.013220787,-0.07936025,0.011425972,-1.5852452E-4,2.6420752E-5,0.0
889.2647,353.974,98465621,0.9125,0.10638297,2615.934,963.9597,0.013220787,-0.07936025,0.011425972,-1.5852452E-4,2.6420752E-5,0.0
930.4819,368.05652,98465638,0.875,0.09574468,2972.5254,1081.56,0.013220787,-0.07936025,0.011425972,-1.5852452E-4,2.6420752E-5,0.0
951.1682,372.15918,98465645,0.6625,0.12765957,3185.6958,1094.522,0.013220787,-0.07936025,0.011425972,-1.5852452E-4,2.6420752E-5,0.0
951.1682,372.15918,98465650,0.6625,0.12765957,3185.6958,1094.522,0.013220787,-0.07936025,0.011425972,-1.5852452E-4,2.6420752E-5,0.0
1028.1432,400.5913,98465820,1.1375,0.12765957,0.0,0.0,-0.02142337,-0.063488245,0.009140968,-3.613921E-5,0.0,0.0
1028.1432,400.5913,98465838,1.1625,0.14893617,0.38747287,0.14095177,-0.02142337,-0.063488245,0.009140968,-3.613921E-5,0.0,0.0
1028.1432,400.5913,98465855,1.075,0.14893617,0.03331409,0.008814854,-0.02142337,-0.063488245,0.009140968,2.9895417E-4,-3.321713E-5,0.0
1028.1432,400.5913,98465872,0.90000004,0.12765957,0.06548351,0.023712447,-0.02142337,-0.063488245,0.009140968,2.9895417E-4,-3.321713E-5,0.0
1016.9325,420.5669,98465888,0.8,0.08510638,-438.88513,765.07837,-0.02142337,-0.063488245,0.009140968,2.9895417E-4,-3.321713E-5,0.0
1009.2339,439.0387,98465905,0.8,0.09574468,-731.0822,1441.0573,-0.02142337,-0.063488245,0.009140968,2.9895417E-4,-3.321713E-5,0.0
1008.49097,455.24475,98465922,0.7875,0.10638297,-577.642,1622.7202,-0.02142337,-0.063488245,0.009140968,1.0610839E-5,0.0,0.0
1011.56116,470.21045,98465938,0.8125,0.08510638,-115.95205,1426.3617,-0.02142337,-0.063488245,0.009140968,1.0610839E-5,0.0,0.0
1015.45984,477.55798,98465955,0.83750004,0.08510638,435.49426,749.86707,-0.02142337,-0.063488245,0.009140968,1.0610839E-5,0.0,0.0
1021.86804,483.86426,98465972,0.875,0.09574468,663.68945,199.60176,-0.02142337,-0.063488245,0.009140968,1.0610839E-5,0.0,0.0
1031.3167,488.4375,98465989,0.95,0.10638297,632.7847,116.37745,-0.02142337,-0.063488245,0.009140968,-7.592496E-5,0.0,0.0
1043.652,490.3302,98466005,1.0125,0.10638297,777.79004,-39.571587,-0.02142337,-0.063488245,0.009140968,-7.592496E-5,0.0,0.0
1052.3204,484.39038,98466022,0.975,0.10638297,792.80414,-239.06358,-0.02142337,-0.063488245,0.009140968,-7.592496E-5,0.0,0.0
1059.0199,470.53394,98466039,0.9375,0.12765957,630.10406,-692.69916,-0.02142337,-0.063488245,0.009140968,-7.592496E-5,0.0,0.0
1063.9127,452.5548,98466055,0.95,0.10638297,361.57745,-1242.8048,-0.02142337,-0.063488245,0.009140968,0.0,0.0,0.0
1061.8092,429.44385,98466072,0.96250004,0.10638297,6.818396,-1670.3041,-0.02142337,-0.063488245,0.009140968,0.0,0.0,0.0
1055.9076,409.08594,98466089,0.9875,0.12765957,-356.45804,-1759.5033,-0.02142337,-0.063488245,0.009140968,0.0,0.0,0.0
1049.2084,395.00732,98466106,1.0,0.08510638,-644.56665,-1343.3208,-0.02142337,-0.063488245,0.009140968,0.0,0.0,0.0
1044.0114,386.7284,98466122,1.0125,0.09574468,-663.43414,-707.2518,-0.02142337,-0.063488245,0.009140968,5.5339362E-5,0.0,0.0
1038.8174,380.8783,98466139,1.0500001,0.11702127,-470.27496,-165.68224,-0.02142337,-0.063488245,0.009140968,5.5339362E-5,0.0,0.0
1035.0234,379.2672,98466156,1.075,0.11702127,-277.5121,118.539795,-0.02142337,-0.063488245,0.009140968,5.5339362E-5,0.0,0.0
1032.2534,379.2672,98466172,1.125,0.12765957,-159.69835,237.30608,-0.02142337,-0.063488245,0.009140968,5.5339362E-5,0.0,0.0
1030.6569,382.76953,98466189,1.15,0.12765957,-88.95618,316.509,-0.02142337,-0.063488245,0.009140968,5.3687072E-5,0.0,0.0
1030.6423,385.52832,98466206,1.1,0.12765957,14.405713,374.03198,-0.02142337,-0.063488245,0.009140968,5.3687072E-5,0.0,0.0
1031.2103,386.49622,98466223,0.9875,0.12765957,89.03841,275.00543,-0.02142337,-0.063488245,0.009140968,5.3687072E-5,0.0,0.0
1034.5863,389.4364,98466239,0.9125,0.12765957,188.48213,181.32481,-0.02142337,-0.063488245,0.009140968,5.3687072E-5,0.0,0.0
1043.081,397.573,98466256,0.925,0.10638297,403.54517,285.66907,0.06286132,-0.05079055,0.071312904,-0.0,0.0,0.0
1059.5447,409.08435,98466273,0.96250004,0.12765957,816.0621,573.18805,0.06286132,-0.05079055,0.071312904,-0.0,0.0,0.0
1077.2465,411.66382,98466289,0.9375,0.12765957,1276.565,652.30835,0.06286132,-0.05079055,0.071312904,-0.0,0.0,0.0
1095.6696,409.81458,98466306,0.96250004,0.11702127,1474.6853,236.97566,0.06286132,-0.05079055,0.071312904,-0.0,0.0,0.0
1111.1677,402.8186,98466323,0.95,0.11702127,1316.4971,-387.62674,0.06286132,-0.05079055,0.071312904,-4.7453127E-6,0.0,0.0
1121.5406,393.9557,98466339,0.9125,0.12765957,889.0602,-829.2502,0.06286132,-0.05079055,0.071312904,-4.7453127E-6,0.0,0.0
1127.825,383.32922,98466356,0.925,0.11702127,404.0274,-911.16595,0.06286132,-0.05079055,0.071312904,-4.7453127E-6,0.0,0.0
1133.4595,357.62598,98466373,0.9375,0.14893617,123.43121,-1271.9916,0.06286132,-0.05079055,0.071312904,-4.7453127E-6,0.0,0.0
1132.6721,341.50916,98466390,0.9375,0.11702127,-88.96541,-1487.6692,0.06286132,-0.05079055,0.071312904,-1.8981249E-5,0.0,0.0
1128.0465,328.46313,98466406,0.9875,0.09574468,-346.4558,-1266.876,0.06286132,-0.05079055,0.071312904,-1.8981249E-5,0.0,0.0
1123.4451,320.3291,98466423,1.0125,0.10638297,-509.62042,-786.69617,0.06286132,-0.05079055,0.071312904,-1.8981249E-5,0.0,0.0
1119.2302,314.78418,98466440,1.0625,0.12765957,-533.8623,-223.9306,0.06286132,-0.05079055,0.071312904,-1.8981249E-5,0.0,0.0
1115.3147,311.3855,98466456,1.125,0.12765957,-403.82556,48.040028,0.06286132,-0.05079055,0.071312904,1.5724091E-4,0.0,0.0
1112.7339,310.85254,98466473,1.1875,0.12765957,-223.79144,101.52813,0.06286132,-0.05079055,0.071312904,1.5724091E-4,0.0,0.0
1112.1158,312.49768,98466490,1.275,0.12765957,-77.86686,200.73438,0.06286132,-0.05079055,0.071312904,1.5724091E-4,0.0,0.0
1113.1229,316.64783,98466507,1.3000001,0.14893617,56.36235,307.36365,0.06286132,-0.05079055,0.071312904,1.5724091E-4,0.0,0.0
1115.2014,321.3014,98466523,1.15,0.12765957,187.11914,424.7664,0.06286132,-0.05079055,0.071312904,-1.710946E-5,0.0,0.0
1119.4594,331.91235,98466540,0.875,0.10638297,273.21274,556.3782,0.06286132,-0.05079055,0.071312904,-1.710946E-5,0.0,0.0
1129.3741,359.3695,98466557,0.90000004,0.12765957,499.7307,1182.3394,0.06286132,-0.05079055,0.071312904,-1.710946E-5,0.0,0.0
1139.3054,384.6344,98466573,0.8625,0.09574468,726.25885,1884.3893,0.06286132,-0.05079055,0.071312904,-1.710946E-5,0.0,0.0
1146.4142,414.42688,98466590,0.8625,0.10638297,759.773,2254.6284,0.06286132,-0.05079055,0.071312904,4.2707805E-5,0.0,0.0
1149.0983,438.69043,98466607,0.875,0.08510638,494.27484,2131.338,0.06286132,-0.05079055,0.071312904,4.2707805E-5,0.0,0.0
1146.9521,464.55457,98466624,0.8875,0.11702127,-15.377898,1672.7856,0.06286132,-0.05079055,0.071312904,4.2707805E-5,0.0,0.0
1142.2134,484.61743,98466640,0.8875,0.09574468,-408.97827,1326.6248,0.06286132,-0.05079055,0.071312904,4.2707805E-5,0.0,0.0
1134.5765,495.44788,98466657,0.8875,0.12765957,-644.80865,895.0876,0.06286132,-0.05079055,0.071312904,2.3091657E-4,-2.8864572E-5,0.0
1121.3989,512.82776,98466674,0.9125,0.09574468,-842.832,609.0946,0.06286132,-0.05079055,0.071312904,2.3091657E-4,-2.8864572E-5,0.0
1106.2555,526.73083,98466690,0.9125,0.10638297,-1051.6733,609.1258,0.06286132,-0.05079055,0.071312904,2.3091657E-4,-2.8864572E-5,0.0
1094.2712,535.5552,98466707,0.9375,0.11702127,-1050.8435,607.91455,0.06286132,-0.05079055,0.071312904,2.3091657E-4,-2.8864572E-5,0.0
1083.6274,539.6909,98466724,0.925,0.11702127,-870.51575,399.06668,0.06286132,-0.05079055,0.071312904,0.0,0.0,0.0
1072.3496,541.5056,98466741,0.825,0.09574468,-617.8982,-16.68539,0.06286132,-0.05079055,0.071312904,0.0,0.0,0.0
1069.1298,541.8633,98466743,0.71250004,0.08510638,-637.1708,-49.49666,0.06286132,-0.05079055,0.071312904,0.0,0.0,0.0
1069.1298,541.8633,98466751,0.71250004,0.08510638,-637.1708,-49.49666,0.06286132,-0.05079055,0.071312904,0.0,0.0,0.0
