x,y,timestamp,pressure,fingerarea,velocityx,velocityy,accelx,accely,accelz,gyrox,gyroy,gyroz
198.91312,224.66772,98499918,1.4,0.14893617,0.0,0.0,0.017938673,0.13800716,-0.02277565,-3.0198984E-5,0.0,0.0
198.91312,224.66772,98499944,1.475,0.14893617,-0.0031899929,-0.002484557,0.017938673,0.13800716,-0.02277565,-3.0198984E-5,0.0,0.0
198.91312,224.66772,98499960,1.375,0.12765957,-0.0053918855,-0.004519301,0.017938673,0.13800716,-0.02277565,-1.342177E-5,0.0,0.0
198.91312,224.66772,98499977,1.1,0.12765957,-0.008578679,-0.009511114,0.017938673,0.13800716,-0.02277565,-1.342177E-5,0.0,0.0
199.41293,251.54504,98499994,1.0375,0.11702127,20.402494,1000.0479,0.017938673,0.13800716,-0.02277565,-1.342177E-5,0.0,0.0
199.91278,274.22253,98500011,1.0375,0.11702127,34.75445,1690.2402,0.017938673,0.13800716,-0.02277565,-1.342177E-5,0.0,0.0
198.15317,303.88904,98500027,1.0125,0.12765957,-13.460569,2261.848,0.017938673,0.13800716,-0.02277565,0.0,0.0,0.0
195.23401,330.47205,98500044,1.025,0.09574468,-124.641556,2340.3567,0.017938673,0.13800716,-0.02277565,0.0,0.0,0.0
188.70056,363.08984,98500061,1.0125,0.12765957,-316.63818,2061.5557,0.017938673,0.13800716,-0.02277565,0.0,0.0,0.0
180.38304,387.35205,98500077,0.9875,0.10638297,-547.2904,1736.2129,0.017938673,0.13800716,-0.02277565,0.0,0.0,0.0
168.59637,414.67334,98500094,0.9875,0.08510638,-754.4221,1660.1201,0.017938673,0.13800716,-0.02277565,0.0,0.0,0.0
158.71661,433.83826,98500111,1.0,0.11702127,-812.84753,1306.3976,0.017938673,0.13800716,-0.02277565,0.0,0.0,0.0
151.01738,442.67712,98500128,1.0500001,0.12765957,-687.2435,747.90826,0.017938673,0.13800716,-0.02277565,0.0,0.0,0.0
138.0162,454.71606,98500144,1.1125001,0.10638297,-653.1353,359.52887,0.017938673,0.13800716,-0.02277565,0.0,0.0,0.0
125.00775,460.84058,98500161,1.1750001,0.11702127,-721.35876,159.68494,-0.017649055,0.054405928,-0.06622028,7.5029975E-6,0.0,0.0
113.77109,461.4696,98500178,1.225,0.12765957,-824.8923,8.747297,-0.017649055,0.054405928,-0.06622028,7.5029975E-6,0.0,0.0
105.654495,458.2157,98500194,1.25,0.14893617,-693.3688,-237.80132,-0.017649055,0.054405928,-0.06622028,7.5029975E-6,0.0,0.0
98.99321,453.0553,98500211,1.225,0.12765957,-413.74112,-566.5245,-0.017649055,0.054405928,-0.06622028,7.5029975E-6,0.0,0.0
93.4951,446.6349,98500228,1.2,0.12765957,-235.15652,-647.6759,-0.017649055,0.054405928,-0.06622028,1.5916236E-4,-3.183247E-5,0.0
89.32941,439.64246,98500245,1.2125,0.10638297,-145.68228,-584.62573,-0.017649055,0.054405928,-0.06622028,1.5916236E-4,-3.183247E-5,0.0
87.00227,432.85852,98500261,1.2125,0.10638297,-107.97573,-529.1911,-0.017649055,0.054405928,-0.06622028,1.5916236E-4,-3.183247E-5,0.0
86.949554,430.818,98500278,1.2375001,0.12765957,2.154288,-358.58524,-0.017649055,0.054405928,-0.06622028,1.5916236E-4,-3.183247E-5,0.0
87.98999,429.912,98500295,1.3625001,0.14893617,123.607704,-94.427025,-0.017649055,0.054405928,-0.06622028,2.1776749E-4,0.0,0.0
90.09361,430.92932,98500311,1.4250001,0.14893617,210.32779,116.89553,-0.017649055,0.054405928,-0.06622028,2.1776749E-4,0.0,0.0
92.158066,430.8004,98500328,1.375,0.12765957,233.15765,194.29305,-0.017649055,0.054405928,-0.06622028,2.1776749E-4,0.0,0.0
97.696075,433.0216,98500345,1.1625,0.10638297,277.44754,178.22672,-0.017649055,0.054405928,-0.06622028,2.1776749E-4,0.0,0.0
113.78546,443.14746,98500362,1.1625,0.10638297,606.2777,358.53174,-0.017649055,0.054405928,-0.06622028,-2.5078375E-4,3.5826248E-5,0.0
133.53502,450.2185,98500378,1.15,0.12765957,1245.7649,620.03644,-0.017649055,0.054405928,-0.06622028,-2.5078375E-4,3.5826248E-5,0.0
160.0183,454.38623,98500395,1.125,0.12765957,1804.7433,620.03613,-0.017649055,0.054405928,-0.06622028,-2.5078375E-4,3.5826248E-5,0.0
189.3873,454.23633,98500412,1.1,0.12765957,2114.4043,277.47452,-0.017649055,0.054405928,-0.06622028,-2.5078375E-4,3.5826248E-5,0.0
222.33444,449.61865,98500428,1.1125001,0.11702127,2215.071,-262.78815,-0.017649055,0.054405928,-0.06622028,1.5005995E-5,0.0,0.0
253.66473,437.66235,98500445,1.075,0.14893617,2184.3635,-728.2845,-0.017649055,0.054405928,-0.06622028,1.5005995E-5,0.0,0.0
280.20566,420.4945,98500462,1.075,0.11702127,1972.0114,-1140.5164,-0.017649055,0.054405928,-0.06622028,1.5005995E-5,0.0,0.0
299.46335,405.35803,98500479,1.0625,0.12765957,1483.5096,-1370.3248,-0.017649055,0.054405928,-0.06622028,1.5005995E-5,0.0,0.0
311.51334,395.12512,98500495,1.1,0.12765957,787.93225,-1111.5413,-0.017649055,0.054405928,-0.06622028,0.0,0.0,0.0
316.54767,388.73364,98500512,1.1375,0.11702127,186.17523,-631.738,-0.017649055,0.054405928,-0.06622028,0.0,0.0,0.0
317.4663,384.1089,98500529,1.2375001,0.12765957,-256.65518,-182.77643,-0.017649055,0.054405928,-0.06622028,0.0,0.0,0.0
316.73334,381.68152,98500545,1.3625001,0.12765957,-442.6261,37.678043,-0.017649055,0.054405928,-0.06622028,0.0,0.0,0.0
314.91043,381.93274,98500562,1.4125,0.14893617,-434.36578,121.88447,-0.017649055,0.054405928,-0.06622028,-3.0011981E-5,0.0,0.0
307.66727,385.73804,98500579,1.3625001,0.12765957,-475.3723,244.25996,-0.017649055,0.054405928,-0.06622028,-3.0011981E-5,0.0,0.0
298.90512,390.8069,98500595,1.1875,0.10638297,-596.4401,418.51993,-0.017649055,0.054405928,-0.06622028,-3.0011981E-5,0.0,0.0
286.50818,399.8479,98500612,1.025,0.11702127,-799.827,567.47314,-0.017649055,0.054405928,-0.06622028,-3.0011981E-5,0.0,0.0
267.4229,420.7776,98500629,1.0125,0.11702127,-1125.9579,1008.4139,-0.017649055,0.054405928,-0.06622028,0.0,0.0,0.0
253.73505,439.31982,98500646,1.025,0.12765957,-1229.0819,1442.445,-0.017649055,0.054405928,-0.06622028,0.0,0.0,0.0
242.44327,463.11267,98500662,1.025,0.10638297,-1043.8993,1709.487,-0.017649055,0.054405928,-0.06622028,0.0,0.0,0.0
239.95547,477.98743,98500679,1.0125,0.08510638,-499.1222,1475.7517,-0.017649055,0.054405928,-0.06622028,0.0,0.0,0.0
241.40277,486.78857,98500696,1.0125,0.10638297,160.1564,828.4202,0.049880743,0.059524775,0.02702427,0.0,0.0,0.0
244.9743,491.3153,98500712,1.0625,0.12765957,494.2867,263.79803,0.049880743,0.059524775,0.02702427,0.0,0.0,0.0
256.43805,498.89734,98500729,1.0875,0.12765957,763.15125,31.392023,0.049880743,0.059524775,0.02702427,0.0,0.0,0.0
274.77783,504.1046,98500746,1.1,0.10638297,1125.5846,40.905018,0.049880743,0.059524775,0.02702427,0.0,0.0,0.0
295.44363,504.54614,98500763,1.125,0.12765957,1463.1804,69.47958,0.049880743,0.059524775,0.02702427,0.0,0.0,0.0
313.67227,496.1969,98500779,1.1125001,0.12765957,1599.138,-228.69682,0.049880743,0.059524775,0.02702427,0.0,0.0,0.0
327.22714,483.39294,98500796,1.075,0.10638297,1158.4305,-905.65,0.049880743,0.059524775,0.02702427,0.0,0.0,0.0
335.72513,470.14954,98500813,1.0625,0.12765957,688.99036,-1175.492,0.049880743,0.059524775,0.02702427,-1.2410597E-4,2.0684327E-5,0.0
343.94766,450.0569,98500829,1.0625,0.10638297,296.88235,-1347.3989,0.049880743,0.059524775,0.02702427,0.0,0.0,0.0
347.21768,430.12256,98500846,1.0500001,0.10638297,67.876366,-1411.6112,0.049880743,0.059524775,0.02702427,0.0,0.0,0.0
346.5874,409.47742,98500863,1.0875,0.12765957,-111.0623,-1447.7161,0.049880743,0.059524775,0.02702427,0.0,0.0,0.0
343.55145,395.14062,98500880,1.0875,0.08510638,-303.98187,-1270.2704,0.049880743,0.059524775,0.02702427,0.0,0.0,0.0
340.42786,388.26025,98500896,1.125,0.08510638,-430.30927,-746.7051,0.049880743,0.059524775,0.02702427,0.0,0.0,0.0
338.84155,385.44067,98500913,1.2625,0.10638297,-346.15216,-111.17134,0.049880743,0.059524775,0.02702427,0.0,0.0,0.0
337.80725,385.48682,98500930,1.3875,0.12765957,-168.23946,272.7734,0.049880743,0.059524775,0.02702427,0.0,0.0,0.0
336.7784,388.4713,98500946,1.4,0.12765957,-43.09821,443.3322,0.049880743,0.059524775,0.02702427,5.0331622E-5,0.0,0.0
336.36835,392.286,98500963,1.2875,0.12765957,6.9951115,459.2942,0.049880743,0.059524775,0.02702427,5.0331622E-5,0.0,0.0
337.05322,399.57043,98500980,1.0375,0.10638297,36.220463,499.25543,0.049880743,0.059524775,0.02702427,5.0331622E-5,0.0,0.0
341.46573,422.55054,98500997,1.0375,0.08510638,157.08125,974.3471,0.049880743,0.059524775,0.02702427,5.0331622E-5,0.0,0.0
346.85327,437.8877,98501013,1.0500001,0.10638297,364.14777,1430.1266,0.049880743,0.059524775,0.02702427,-1.19813165E-4,2.3962633E-5,0.0
353.49893,449.70093,98501030,1.075,0.12765957,481.53995,1256.9402,0.049880743,0.059524775,0.02702427,-1.19813165E-4,2.3962633E-5,0.0
365.22107,464.89124,98501047,1.0625,0.11702127,652.69183,954.0183,0.049880743,0.059524775,0.02702427,-1.19813165E-4,2.3962633E-5,0.0
379.54953,475.93347,98501063,1.1,0.10638297,873.95953,630.3097,0.049880743,0.059524775,0.02702427,-1.19813165E-4,2.3962633E-5,0.0
397.92935,479.6681,98501080,1.1,0.10638297,1146.2715,412.81796,0.049880743,0.059524775,0.02702427,1.07426495E-4,0.0,0.0
419.0512,472.943,98501097,1.075,0.14893617,1405.1151,-51.013405,0.049880743,0.059524775,0.02702427,1.07426495E-4,0.0,0.0
437.88214,459.19617,98501113,1.0500001,0.10638297,1425.6323,-937.3135,0.049880743,0.059524775,0.02702427,1.07426495E-4,0.0,0.0
456.51044,438.7776,98501130,1.0375,0.11702127,1316.3556,-1521.1127,0.049880743,0.059524775,0.02702427,1.07426495E-4,0.0,0.0
473.1524,409.63342,98501147,1.0375,0.11702127,1106.108,-1982.4403,0.049880743,0.059524775,0.02702427,-0.0,0.0,0.0
494.11267,362.26978,98501164,1.025,0.12765957,1087.6763,-2761.8457,0.049880743,0.059524775,0.02702427,-0.0,0.0,0.0
507.3133,320.91956,98501180,1.0125,0.10638297,963.3932,-3143.0547,0.049880743,0.059524775,0.02702427,-0.0,0.0,0.0
515.95776,280.79688,98501197,1.0375,0.08510638,698.25684,-3192.709,0.049880743,0.059524775,0.02702427,-0.0,0.0,0.0
521.50543,242.87402,98501214,1.0500001,0.12765957,272.3682,-2626.7234,-0.12009537,-0.06438041,0.005619049,0.0,0.0,0.0
523.55304,215.03467,98501230,1.0500001,0.11702127,-79.69088,-1826.5613,-0.12009537,-0.06438041,0.005619049,0.0,0.0,0.0
523.4891,188.47852,98501247,1.0500001,0.12765957,-170.17093,-1531.3835,-0.12009537,-0.06438041,0.005619049,0.0,0.0,0.0
520.732,174.89124,98501264,1.0625,0.09574468,-294.31012,-885.0727,-0.12009537,-0.06438041,0.005619049,0.0,0.0,0.0
518.0177,167.28552,98501281,1.0625,0.08510638,-341.5843,-341.02682,-0.12009537,-0.06438041,0.005619049,2.0410349E-5,0.0,0.0
514.045,164.35364,98501297,1.125,0.10638297,-342.84396,168.66853,-0.12009537,-0.06438041,0.005619049,2.0410349E-5,0.0,0.0
508.8579,165.1217,98501314,1.1750001,0.10638297,-360.87653,481.24515,-0.12009537,-0.06438041,0.005619049,2.0410349E-5,0.0,0.0
505.75183,167.87622,98501331,1.2625,0.12765957,-307.99435,461.35028,-0.12009537,-0.06438041,0.005619049,2.0410349E-5,0.0,0.0
502.049,173.6062,98501347,1.2,0.12765957,-253.29535,514.05505,-0.12009537,-0.06438041,0.005619049,0.0,0.0,0.0
500.07758,179.30957,98501364,1.0,0.11702127,-170.1094,524.86505,-0.12009537,-0.06438041,0.005619049,0.0,0.0,0.0
494.45837,206.44849,98501381,0.96250004,0.10638297,-184.33714,1052.6814,-0.12009537,-0.06438041,0.005619049,0.0,0.0,0.0
489.16626,236.61853,98501398,0.975,0.14893617,-279.70227,1810.658,-0.12009537,-0.06438041,0.005619049,0.0,0.0,0.0
485.69855,273.93872,98501414,0.975,0.11702127,-333.6751,2683.6704,-0.12009537,-0.06438041,0.005619049,6.1871215E-5,0.0,0.0
482.82068,313.86584,98501431,0.96250004,0.11702127,-255.43408,2973.765,-0.12009537,-0.06438041,0.005619049,6.1871215E-5,0.0,0.0
482.32086,352.60645,98501448,0.95,0.12765957,-66.66672,2728.6042,-0.12009537,-0.06438041,0.005619049,6.1871215E-5,0.0,0.0
482.66553,390.29517,98501464,0.9375,0.11702127,74.88524,2538.4626,-0.12009537,-0.06438041,0.005619049,6.1871215E-5,0.0,0.0
484.06757,425.20667,98501481,0.975,0.09574468,151.10593,2223.7878,-0.12009537,-0.06438041,0.005619049,1.342177E-5,0.0,0.0
486.69305,452.1045,98501498,0.95,0.12765957,204.97993,1851.2959,-0.12009537,-0.06438041,0.005619049,1.342177E-5,0.0,0.0
488.29065,474.67285,98501515,0.975,0.10638297,211.56693,1345.4305,-0.12009537,-0.06438041,0.005619049,1.342177E-5,0.0,0.0
489.8355,487.84668,98501531,0.96250004,0.10638297,155.81377,787.011,-0.12009537,-0.06438041,0.005619049,1.342177E-5,0.0,0.0
489.81842,493.17676,98501548,1.0,0.10638297,59.33561,253.95255,-0.12009537,-0.06438041,0.005619049,-3.0011981E-5,0.0,0.0
489.81842,497.43823,98501564,1.075,0.12765957,-24.697075,-172.92175,-0.12009537,-0.06438041,0.005619049,-3.0011981E-5,0.0,0.0
488.67395,499.47266,98501581,1.2875,0.12765957,-82.99903,-300.4177,-0.12009537,-0.06438041,0.005619049,-3.0011981E-5,0.0,0.0
488.15607,498.63635,98501598,1.4125,0.14893617,-93.11439,-276.46805,-0.12009537,-0.06438041,0.005619049,-3.0011981E-5,0.0,0.0
485.70862,482.0702,98501615,1.1875,0.12765957,-121.082535,-572.3007,-0.12009537,-0.06438041,0.005619049,-1.08728695E-4,2.1745738E-5,0.0
484.3202,459.43738,98501632,1.025,0.12765957,-146.85733,-1388.611,-0.12009537,-0.06438041,0.005619049,-1.08728695E-4,2.1745738E-5,0.0
486.46332,435.74524,98501648,1.0125,0.09574468,-30.331625,-2002.772,-0.12009537,-0.06438041,0.005619049,-1.08728695E-4,2.1745738E-5,0.0
492.7798,406.94458,98501665,1.0,0.12765957,242.58098,-2184.6538,-0.12009537,-0.06438041,0.005619049,-1.08728695E-4,2.1745738E-5,0.0
499.1997,389.46497,98501682,1.0,0.08510638,535.3626,-1747.5648,-0.12009537,-0.06438041,0.005619049,0.0,-0.0,0.0
508.40692,374.36414,98501698,1.0125,0.10638297,671.91235,-1094.6478,-0.12009537,-0.06438041,0.005619049,0.0,-0.0,0.0
520.6534,362.02625,98501715,1.0,0.14893617,759.00964,-644.8135,-0.12009537,-0.06438041,0.005619049,0.0,-0.0,0.0
531.771,358.83167,98501732,1.025,0.14893617,827.1385,-187.42381,-0.12009537,-0.06438041,0.005619049,0.0,-0.0,0.0
540.1087,362.5901,98501748,1.075,0.12765957,733.2026,267.68103,-7.6293945E-5,0.012495756,0.052495003,-1.6773844E-4,2.3962633E-5,0.0
546.20605,368.14954,98501765,1.075,0.10638297,519.46655,606.5308,-7.6293945E-5,0.012495756,0.052495003,-1.6773844E-4,2.3962633E-5,0.0
553.37866,380.5061,98501782,1.0875,0.10638297,317.5359,966.8263,-7.6293945E-5,0.012495756,0.052495003,-1.6773844E-4,2.3962633E-5,0.0
557.11224,391.61267,98501799,1.0875,0.10638297,202.17041,1055.9111,-7.6293945E-5,0.012495756,0.052495003,-1.6773844E-4,2.3962633E-5,0.0
558.2961,405.19922,98501815,1.0375,0.10638297,93.10312,1017.1783,-7.6293945E-5,0.012495756,0.052495003,-7.5029975E-6,0.0,0.0
555.61816,419.5171,98501832,1.0375,0.09574468,-123.41152,993.0356,-7.6293945E-5,0.012495756,0.052495003,-7.5029975E-6,0.0,0.0
549.3841,431.94006,98501849,1.0,0.10638297,-423.87668,900.0958,-7.6293945E-5,0.012495756,0.052495003,-7.5029975E-6,0.0,0.0
541.45447,440.4381,98501865,0.9875,0.12765957,-630.1566,678.26514,-7.6293945E-5,0.012495756,0.052495003,-7.5029975E-6,0.0,0.0
528.1014,452.15332,98501882,1.0375,0.12765957,-830.07947,554.8529,-7.6293945E-5,0.012495756,0.052495003,2.1781932E-4,-3.1117048E-5,0.0
516.1308,459.41687,98501899,1.0875,0.11702127,-955.62366,439.04318,-7.6293945E-5,0.012495756,0.052495003,2.1781932E-4,-3.1117048E-5,0.0
506.39032,464.30713,98501916,1.1375,0.11702127,-876.2118,331.40488,-7.6293945E-5,0.012495756,0.052495003,2.1781932E-4,-3.1117048E-5,0.0
501.38696,465.45203,98501932,1.1875,0.12765957,-592.8241,132.19145,-7.6293945E-5,0.012495756,0.052495003,2.1781932E-4,-3.1117048E-5,0.0
499.2992,465.45203,98501949,1.1625,0.12765957,-155.55247,-117.11684,-7.6293945E-5,0.012495756,0.052495003,0.0,0.0,0.0
498.8155,464.453,98501966,1.1125001,0.11702127,119.43495,-227.98164,-7.6293945E-5,0.012495756,0.052495003,0.0,0.0,0.0
498.8155,463.67505,98501982,1.0875,0.10638297,202.06168,-203.28604,-7.6293945E-5,0.012495756,0.052495003,0.0,0.0,0.0
499.59583,462.7865,98501999,1.0375,0.10638297,185.22263,-148.91736,-7.6293945E-5,0.012495756,0.052495003,0.0,0.0,0.0
505.17126,463.10876,98502016,0.95,0.10638297,235.94543,-54.687447,-7.6293945E-5,0.012495756,0.052495003,-1.6773844E-4,2.3962633E-5,0.0
526.27264,464.95044,98502033,0.975,0.12765957,741.53937,55.608994,-7.6293945E-5,0.012495756,0.052495003,-1.6773844E-4,2.3962633E-5,0.0
558.84705,464.5266,98502049,1.025,0.10638297,1850.6819,113.66357,-7.6293945E-5,0.012495756,0.052495003,-1.6773844E-4,2.3962633E-5,0.0
595.16864,459.76892,98502066,1.0125,0.12765957,2692.8289,-77.647255,-7.6293945E-5,0.012495756,0.052495003,-1.6773844E-4,2.3962633E-5,0.0
626.76447,451.239,98502083,1.0,0.10638297,2813.2722,-421.37338,-7.6293945E-5,0.012495756,0.052495003,3.6294656E-5,0.0,0.0
656.17773,438.03918,98502099,1.0,0.10638297,2325.1963,-811.8586,-7.6293945E-5,0.012495756,0.052495003,3.6294656E-5,0.0,0.0
678.4287,423.28333,98502116,0.975,0.12765957,1592.9144,-1079.8195,-7.6293945E-5,0.012495756,0.052495003,3.6294656E-5,0.0,0.0
694.28125,409.0382,98502133,0.9875,0.14893617,1019.768,-1155.7009,-7.6293945E-5,0.012495756,0.052495003,3.6294656E-5,0.0,0.0
703.7435,399.70813,98502150,0.9875,0.12765957,475.57217,-959.0087,-7.6293945E-5,0.012495756,0.052495003,0.0,0.0,0.0
706.3401,392.32178,98502166,1.0625,0.11702127,-11.556727,-544.66376,-7.6293945E-5,0.012495756,0.052495003,0.0,0.0,0.0
706.1654,387.85876,98502183,1.1375,0.11702127,-325.9656,-226.72803,-7.6293945E-5,0.012495756,0.052495003,0.0,0.0,0.0
704.49664,386.1515,98502200,1.2125,0.12765957,-459.18365,-1.8776221,-7.6293945E-5,0.012495756,0.052495003,0.0,0.0,0.0
700.4449,385.77283,98502216,1.2125,0.12765957,-473.7732,100.94036,-7.6293945E-5,0.012495756,0.052495003,-0.0,0.0,0.0
694.2515,388.81873,98502233,1.1625,0.12765957,-483.97,223.66835,-7.6293945E-5,0.012495756,0.052495003,-0.0,0.0,0.0
685.91815,392.93005,98502250,1.025,0.10638297,-565.398,359.7717,-7.6293945E-5,0.012495756,0.052495003,-0.0,0.0,0.0
670.13824,405.64734,98502267,0.95,0.10638297,-820.2021,604.73254,-7.6293945E-5,0.012495756,0.052495003,-0.0,0.0,0.0
655.52356,423.34705,98502283,0.96250004,0.11702127,-1088.7562,1071.5265,-0.12006104,-0.1260035,-0.038004875,1.0610839E-5,0.0,0.0
644.1044,441.5027,98502300,0.95,0.12765957,-1055.7886,1352.4227,-0.12006104,-0.1260035,-0.038004875,1.0610839E-5,0.0,0.0
638.5928,461.9541,98502317,0.9375,0.12765957,-706.3188,1529.518,-0.12006104,-0.1260035,-0.038004875,1.0610839E-5,0.0,0.0
638.7086,477.1289,98502333,0.925,0.09574468,-116.5857,1323.7034,-0.12006104,-0.1260035,-0.038004875,1.0610839E-5,0.0,0.0
641.2217,488.3844,98502350,0.9375,0.09574468,360.7907,915.1613,-0.12006104,-0.1260035,-0.038004875,3.355443E-6,0.0,0.0
644.87067,494.8944,98502367,0.96250004,0.12765957,501.23193,470.10138,-0.12006104,-0.1260035,-0.038004875,3.355443E-6,0.0,0.0
653.2637,500.39893,98502384,1.025,0.10638297,611.7458,128.20825,-0.12006104,-0.1260035,-0.038004875,3.355443E-6,0.0,0.0
666.8414,504.97827,98502400,1.0375,0.10638297,784.8151,35.53521,-0.12006104,-0.1260035,-0.038004875,3.355443E-6,0.0,0.0
682.91785,503.36206,98502417,1.0125,0.12765957,1048.8467,-89.1056,-0.12006104,-0.1260035,-0.038004875,0.0,0.0,0.0
697.48035,494.50073,98502434,1.0375,0.12765957,1204.0737,-390.5632,-0.12006104,-0.1260035,-0.038004875,0.0,0.0,0.0
705.3826,480.19836,98502450,1.0,0.12765957,899.70807,-867.22833,-0.12006104,-0.1260035,-0.038004875,0.0,0.0,0.0
711.0667,458.81592,98502467,1.0125,0.12765957,442.79196,-1464.9664,-0.12006104,-0.1260035,-0.038004875,0.0,0.0,0.0
711.11755,441.76538,98502484,1.025,0.09574468,-27.333138,-1589.5739,-0.12006104,-0.1260035,-0.038004875,-4.2443335E-5,0.0,0.0
707.86774,426.78552,98502500,1.025,0.11702127,-370.71777,-1324.3119,-0.12006104,-0.1260035,-0.038004875,-4.2443335E-5,0.0,0.0
705.03894,413.06104,98502517,1.0375,0.14893617,-466.13467,-909.038,-0.12006104,-0.1260035,-0.038004875,-4.2443335E-5,0.0,0.0
703.416,405.47937,98502534,1.075,0.12765957,-394.92593,-528.8261,-0.12006104,-0.1260035,-0.038004875,-4.2443335E-5,0.0,0.0
702.28094,402.42456,98502551,1.1375,0.12765957,-199.38246,-231.00409,-0.12006104,-0.1260035,-0.038004875,1.5709741E-4,0.0,0.0
702.24927,402.3683,98502567,1.25,0.14893617,-21.38979,115.35691,-0.12006104,-0.1260035,-0.038004875,1.5709741E-4,0.0,0.0
702.24927,403.34045,98502584,1.35,0.14893617,50.956078,310.1931,-0.12006104,-0.1260035,-0.038004875,1.5709741E-4,0.0,0.0
702.24927,407.14233,98502601,1.3000001,0.12765957,48.748005,393.30157,-0.12006104,-0.1260035,-0.038004875,1.5709741E-4,0.0,0.0
703.7882,415.3568,98502617,1.075,0.11702127,70.74612,491.33127,-0.12006104,-0.1260035,-0.038004875,-4.7453127E-6,0.0,0.0
709.95734,430.01245,98502634,1.0125,0.10638297,220.86435,782.21466,-0.12006104,-0.1260035,-0.038004875,-4.7453127E-6,0.0,0.0
718.32587,441.3495,98502651,1.0125,0.10638297,452.4506,972.7214,-0.12006104,-0.1260035,-0.038004875,-4.7453127E-6,0.0,0.0
730.56647,456.20923,98502668,1.025,0.12765957,798.6316,1076.2437,-0.12006104,-0.1260035,-0.038004875,-4.7453127E-6,0.0,0.0
743.2933,468.08594,98502684,0.9875,0.11702127,968.8272,966.58044,-0.12006104,-0.1260035,-0.038004875,9.678568E-5,0.0,0.0
757.31525,475.1941,98502701,1.0375,0.12765957,998.4411,651.2729,-0.12006104,-0.1260035,-0.038004875,9.678568E-5,0.0,0.0
771.7328,476.3672,98502718,1.0375,0.11702127,966.49866,220.97527,-0.12006104,-0.1260035,-0.038004875,9.678568E-5,0.0,0.0
787.11523,469.188,98502734,1.0375,0.11702127,933.3671,-354.98798,-0.12006104,-0.1260035,-0.038004875,9.678568E-5,0.0,0.0
798.96735,457.34485,98502751,1.0,0.12765957,873.777,-874.7607,-0.12006104,-0.1260035,-0.038004875,0.0,0.0,0.0
812.1522,432.69897,98502768,0.975,0.09574468,770.14233,-1425.5754,-0.12006104,-0.1260035,-0.038004875,0.0,0.0,0.0
821.9706,398.7196,98502785,0.975,0.08510638,662.4265,-2199.2412,-0.12006104,-0.1260035,-0.038004875,0.0,0.0,0.0
829.7835,357.8435,98502801,0.975,0.12765957,499.08542,-2771.3518,-0.12006104,-0.1260035,-0.038004875,0.0,0.0,0.0
832.827,322.8169,98502818,0.975,0.08510638,261.15134,-2906.4785,0.05595115,0.12319708,-0.014403343,1.8981249E-5,0.0,0.0
833.36597,286.20728,98502835,0.975,0.08510638,-13.179101,-2723.6362,0.05595115,0.12319708,-0.014403343,1.8981249E-5,0.0,0.0
832.7068,251.07031,98502851,0.975,0.12765957,-223.13359,-2308.735,0.05595115,0.12319708,-0.014403343,1.8981249E-5,0.0,0.0
832.4645,223.5105,98502868,0.9875,0.08510638,-219.88306,-1875.409,0.05595115,0.12319708,-0.014403343,1.8981249E-5,0.0,0.0
831.9291,199.19336,98502885,1.0125,0.12765957,-144.30289,-1428.9547,0.05595115,0.12319708,-0.014403343,8.5941196E-5,0.0,0.0
831.2073,183.0653,98502902,1.0125,0.10638297,-77.96426,-969.1288,0.05595115,0.12319708,-0.014403343,8.5941196E-5,0.0,0.0
830.3674,175.76343,98502918,1.025,0.08510638,-51.288467,-413.2133,0.05595115,0.12319708,-0.014403343,8.5941196E-5,0.0,0.0
830.2076,174.02295,98502935,1.1,0.10638297,-36.707504,129.01688,0.05595115,0.12319708,-0.014403343,8.5941196E-5,0.0,0.0
830.2076,174.74097,98502952,1.2375001,0.12765957,-11.312253,434.41974,0.05595115,0.12319708,-0.014403343,4.2707805E-5,0.0,0.0
830.2076,178.34436,98502968,1.3000001,0.14893617,13.319686,600.9983,0.05595115,0.12319708,-0.014403343,4.2707805E-5,0.0,0.0
830.2076,189.46277,98502985,1.0125,0.12765957,17.941904,690.3466,0.05595115,0.12319708,-0.014403343,4.2707805E-5,0.0,0.0
829.77136,219.48145,98503002,0.975,0.09574468,-6.29742,1396.8673,0.05595115,0.12319708,-0.014403343,4.2707805E-5,0.0,0.0
831.81116,258.39185,98503019,0.96250004,0.09574468,46.537834,2362.355,0.05595115,0.12319708,-0.014403343,-1.224621E-4,2.0410349E-5,0.0
833.27264,291.15027,98503035,0.9375,0.10638297,104.278725,2865.8132,0.05595115,0.12319708,-0.014403343,-1.224621E-4,2.0410349E-5,0.0
837.7562,336.04834,98503052,0.975,0.10638297,214.19702,3140.966,0.05595115,0.12319708,-0.014403343,-1.224621E-4,2.0410349E-5,0.0
843.76996,374.1621,98503069,0.975,0.08510638,356.66824,2848.3457,0.05595115,0.12319708,-0.014403343,-1.224621E-4,2.0410349E-5,0.0
851.3378,406.47046,98503085,0.975,0.12765957,479.2979,2249.3208,0.05595115,0.12319708,-0.014403343,1.2079586E-4,0.0,0.0
858.98865,430.557,98503102,0.96250004,0.09574468,576.60016,1691.0667,0.05595115,0.12319708,-0.014403343,1.2079586E-4,0.0,0.0
866.35535,446.7367,98503119,0.95,0.12765957,548.07056,941.69434,0.05595115,0.12319708,-0.014403343,1.2079586E-4,0.0,0.0
873.0187,458.3329,98503135,0.96250004,0.12765957,484.2193,462.20834,0.05595115,0.12319708,-0.014403343,1.2079586E-4,0.0,0.0
878.53143,465.55823,98503152,0.95,0.09574468,362.85858,67.21703,0.05595115,0.12319708,-0.014403343,-3.6294656E-5,0.0,0.0
885.37946,470.59937,98503169,0.9375,0.09574468,318.70868,-52.929676,0.05595115,0.12319708,-0.014403343,-3.6294656E-5,0.0,0.0
889.7108,471.67163,98503186,0.8,0.09574468,307.16595,-82.64668,0.05595115,0.12319708,-0.014403343,-3.6294656E-5,0.0,0.0
892.18744,470.78308,98503194,0.6375,0.12765957,287.85907,-159.57071,0.05595115,0.12319708,-0.014403343,-3.6294656E-5,0.0,0.0
892.18744,470.78308,98503202,0.6375,0.12765957,287.85907,-159.57071,0.05595115,0.12319708,-0.014403343,-3.6294656E-5,0.0,0.0
759.7305,326.84558,98503378,1.2375001,0.12765957,0.0,0.0,0.044760913,-0.021442175,0.020477295,-9.034802E-5,0.0,0.0
759.7305,326.84558,98503403,1.225,0.12765957,0.07941727,0.036998894,0.044760913,-0.021442175,0.020477295,-9.034802E-5,0.0,0.0
784.71075,328.8191,98503420,1.0,0.12765957,1959.4481,154.81801,0.044760913,-0.021442175,0.020477295,-4.2443335E-5,0.0,0.0
815.7095,337.38,98503436,1.0125,0.11702127,2678.672,535.08813,0.044760913,-0.021442175,0.020477295,-4.2443335E-5,0.0,0.0
846.4594,344.97034,98503453,0.95,0.12765957,2711.8303,656.82227,0.044760913,-0.021442175,0.020477295,-4.2443335E-5,0.0,0.0
879.8153,352.52124,98503470,0.8875,0.11702127,2719.887,675.1296,0.044760913,-0.021442175,0.020477295,-4.2443335E-5,0.0,0.0
912.0788,362.6516,98503486,0.83750004,0.12765957,2241.1284,662.6554,0.044760913,-0.021442175,0.020477295,1.224621E-4,-2.0410349E-5,0.0
926.17633,366.82825,98503499,0.32500002,0.10638297,1936.2018,623.4447,0.044760913,-0.021442175,0.020477295,1.224621E-4,-2.0410349E-5,0.0
926.17633,366.82825,98503506,0.32500002,0.10638297,1936.2018,623.4447,0.044760913,-0.021442175,0.020477295,1.224621E-4,-2.0410349E-5,0.0
970.162,341.06165,98503643,1.1875,0.12765957,0.0,0.0,0.044760913,-0.021442175,0.020477295,-9.1892536E-5,1.8378507E-5,0.0
970.162,341.06165,98503670,1.25,0.14893617,0.11226461,0.04219586,0.044760913,-0.021442175,0.020477295,-9.1892536E-5,1.8378507E-5,0.0
970.162,341.06165,98503687,1.0625,0.12765957,0.09602725,0.03447773,0.044760913,-0.021442175,0.020477295,2.02052E-4,0.0,0.0
962.9512,351.1328,98503704,0.9375,0.10638297,-240.18246,335.4083,0.044760913,-0.021442175,0.020477295,2.02052E-4,0.0,0.0
945.1982,381.28516,98503720,0.9125,0.09574468,-995.0997,1582.6315,0.044760913,-0.021442175,0.020477295,2.02052E-4,0.0,0.0
935.34576,409.45447,98503737,0.875,0.12765957,-1143.7736,2169.5857,0.044760913,-0.021442175,0.020477295,2.02052E-4,0.0,0.0
932.1744,429.98364,98503754,0.85,0.08510638,-888.03894,2348.5935,0.044760913,-0.021442175,0.020477295,1.342177E-5,0.0,0.0
932.5906,448.56262,98503771,0.8625,0.12765957,-176.13159,1670.0938,0.044760913,-0.021442175,0.020477295,1.342177E-5,0.0,0.0
936.01166,465.7666,98503787,0.8625,0.09574468,468.6189,929.8445,0.044760913,-0.021442175,0.020477295,1.342177E-5,0.0,0.0
941.6609,476.10022,98503804,0.90000004,0.08510638,606.7498,633.9402,0.044760913,-0.021442175,0.020477295,1.342177E-5,0.0,0.0
951.0376,484.37305,98503821,0.95,0.10638297,661.70447,385.30048,0.044760913,-0.021442175,0.020477295,-1.4529473E-4,2.9058947E-5,0.0
963.0679,489.73352,98503837,1.0,0.11702127,799.79285,196.89192,0.044760913,-0.021442175,0.020477295,-1.4529473E-4,2.9058947E-5,0.0
976.7444,491.43518,98503854,1.0500001,0.12765957,944.42944,-61.076984,0.044760913,-0.021442175,0.020477295,-1.4529473E-4,2.9058947E-5,0.0
986.68384,487.94995,98503871,1.0625,0.11702127,901.3647,-246.26973,0.044760913,-0.021442175,0.020477295,-1.4529473E-4,2.9058947E-5,0.0
992.8933,477.72656,98503887,0.9875,0.10638297,647.50525,-552.7097,0.0038087666,0.062845945,0.032381058,0.0,0.0,0.0
998.36316,459.88818,98503904,0.95,0.12765957,296.56653,-1110.2218,0.0038087666,0.062845945,0.032381058,0.0,0.0,0.0
1000.1522,438.5077,98503921,0.95,0.08510638,61.444576,-1526.7992,0.0038087666,0.062845945,0.032381058,0.0,0.0,0.0
998.18945,413.0371,98503938,0.975,0.12765957,-148.76599,-1829.8993,0.0038087666,0.062845945,0.032381058,0.0,0.0,0.0
992.51025,390.93945,98503954,1.0,0.08510638,-391.4192,-1806.4122,0.0038087666,0.062845945,0.032381058,0.0,0.0,0.0
986.24084,371.2235,98503971,1.0,0.11702127,-591.2303,-1499.2377,0.0038087666,0.062845945,0.032381058,0.0,0.0,0.0
980.4785,355.29858,98503988,1.0375,0.14893617,-595.4328,-1123.7816,0.0038087666,0.062845945,0.032381058,0.0,0.0,0.0
976.22107,348.24194,98504004,1.075,0.12765957,-463.30524,-605.96655,0.0038087666,0.062845945,0.032381058,0.0,0.0,0.0
973.099,344.5421,98504021,1.15,0.12765957,-245.4928,-100.932884,0.0038087666,0.062845945,0.032381058,1.709958E-4,0.0,0.0
969.9846,343.72717,98504038,1.225,0.14893617,-129.61537,204.83977,0.0038087666,0.062845945,0.032381058,1.709958E-4,0.0,0.0
967.96924,344.78748,98504055,1.2625,0.14893617,-81.21241,360.8566,0.0038087666,0.062845945,0.032381058,1.709958E-4,0.0,0.0
967.66284,349.562,98504071,1.25,0.14893617,-28.400927,431.30365,0.0038087666,0.062845945,0.032381058,1.709958E-4,0.0,0.0
968.31323,354.03564,98504088,1.1750001,0.12765957,43.879906,439.27936,0.0038087666,0.062845945,0.032381058,2.6977377E-4,-3.372172E-5,0.0
969.8362,356.96472,98504105,1.0125,0.11702127,129.02037,402.91156,0.0038087666,0.062845945,0.032381058,2.6977377E-4,-3.372172E-5,0.0
978.9065,366.63123,98504121,0.95,0.10638297,349.79935,397.96106,0.0038087666,0.062845945,0.032381058,2.6977377E-4,-3.372172E-5,0.0
998.14575,381.21753,98504138,0.975,0.09574468,916.35693,722.70996,0.0038087666,0.062845945,0.032381058,2.6977377E-4,-3.372172E-5,0.0
1025.338,392.95483,98504155,0.975,0.12765957,1651.8528,995.0281,0.0038087666,0.062845945,0.032381058,-1.3103409E-4,0.0,0.0
1051.3226,396.8291,98504172,0.96250004,0.10638297,2135.2495,811.0727,0.0038087666,0.062845945,0.032381058,-1.3103409E-4,0.0,0.0
1083.091,394.79407,98504188,0.9375,0.14893617,2239.8816,175.65765,0.0038087666,0.062845945,0.032381058,-1.3103409E-4,0.0,0.0
1105.8899,385.8396,98504205,0.95,0.10638297,1942.5479,-577.7922,0.0038087666,0.062845945,0.032381058,-1.3103409E-4,0.0,0.0
1124.2467,372.94287,98504222,0.925,0.12765957,1390.8073,-1048.483,0.0038087666,0.062845945,0.032381058,-1.8981249E-5,0.0,0.0
1133.4396,361.8822,98504238,0.95,0.14893617,738.04456,-1134.9736,0.0038087666,0.062845945,0.032381058,-1.8981249E-5,0.0,0.0
1139.0856,347.7826,98504255,0.975,0.11702127,153.56065,-1058.5503,0.0038087666,0.062845945,0.032381058,-1.8981249E-5,0.0,0.0
1139.6068,337.2506,98504272,1.0,0.09574468,-260.08298,-883.7356,0.0038087666,0.062845945,0.032381058,-1.8981249E-5,0.0,0.0
1137.2937,330.45105,98504289,1.0375,0.09574468,-427.32272,-602.0667,0.0038087666,0.062845945,0.032381058,-1.38348405E-5,0.0,0.0
1134.998,326.484,98504305,1.1,0.11702127,-463.30206,-316.21368,0.0038087666,0.062845945,0.032381058,-1.38348405E-5,0.0,0.0
1131.8691,325.0686,98504322,1.1875,0.12765957,-369.06766,18.697834,0.0038087666,0.062845945,0.032381058,-1.38348405E-5,0.0,0.0
1129.5405,325.5746,98504339,1.25,0.12765957,-277.65305,190.17625,0.0038087666,0.062845945,0.032381058,-1.38348405E-5,0.0,0.0
1127.2992,329.39563,98504355,1.2875,0.14893617,-175.53278,286.8619,0.0038087666,0.062845945,0.032381058,6.1871215E-5,0.0,0.0
1126.6111,333.38428,98504372,1.25,0.12765957,-92.87385,386.80075,0.0038087666,0.062845945,0.032381058,6.1871215E-5,0.0,0.0
1127.111,337.15417,98504389,1.075,0.12765957,20.899569,395.2744,0.0038087666,0.062845945,0.032381058,6.1871215E-5,0.0,0.0
1130.2452,351.8158,98504406,0.8875,0.14893617,140.34433,544.3243,0.0038087666,0.062845945,0.032381058,6.1871215E-5,0.0,0.0
1135.5463,378.95923,98504422,0.875,0.09574468,312.5608,1208.562,-0.04495299,-0.16572332,-0.0060949326,0.0,0.0,0.0
1141.8973,406.58655,98504439,0.8875,0.11702127,458.57144,1901.6387,-0.04495299,-0.16572332,-0.0060949326,0.0,0.0,0.0
1145.8225,430.7002,98504456,0.8875,0.08510638,461.08514,2198.5352,-0.04495299,-0.16572332,-0.0060949326,0.0,0.0,0.0
1147.7122,450.8711,98504472,0.9125,0.12765957,299.5144,1845.2853,-0.04495299,-0.16572332,-0.0060949326,0.0,0.0,0.0
1146.9414,471.90198,98504489,0.9375,0.09574468,29.915401,1329.8961,-0.04495299,-0.16572332,-0.0060949326,0.0,0.0,0.0
1142.1593,485.24097,98504506,0.95,0.09574468,-257.55112,914.7042,-0.04495299,-0.16572332,-0.0060949326,0.0,0.0,0.0
1135.7306,495.10803,98504522,0.96250004,0.12765957,-506.39838,514.9808,-0.04495299,-0.16572332,-0.0060949326,0.0,0.0,0.0
1126.6456,503.38745,98504539,1.0375,0.12765957,-638.2976,315.5258,-0.04495299,-0.16572332,-0.0060949326,0.0,0.0,0.0
1114.7682,511.364,98504556,1.0875,0.12765957,-784.343,195.27385,-0.04495299,-0.16572332,-0.0060949326,1.8561364E-4,0.0,0.0
1104.3468,515.824,98504573,1.1,0.12765957,-845.2584,209.11557,-0.04495299,-0.16572332,-0.0060949326,1.8561364E-4,0.0,0.0
1097.3188,516.0968,98504589,1.0625,0.14893617,-694.4565,57.345158,-0.04495299,-0.16572332,-0.0060949326,1.8561364E-4,0.0,0.0
1092.04,514.46814,98504606,1.0125,0.14893617,-411.58115,-162.36536,-0.04495299,-0.16572332,-0.0060949326,1.8561364E-4,0.0,0.0
1088.7198,512.59985,98504623,0.8625,0.14893617,-141.2542,-337.47086,-0.04495299,-0.16572332,-0.0060949326,5.3687072E-5,0.0,0.0
1074.1282,516.0968,98504631,0.4875,0.10638297,-267.45966,-275.36954,-0.04495299,-0.16572332,-0.0060949326,5.3687072E-5,0.0,0.0
1074.1282,516.0968,98504639,0.4875,0.10638297,-267.45966,-275.36954,-0.04495299,-0.16572332,-0.0060949326,5.3687072E-5,0.0,0.0
