x,y,timestamp,pressure,fingerarea,velocityx,velocityy,accelx,accely,accelz,gyrox,gyroy,gyroz
246.89749,194.45862,14013032,1.2625,0.12765957,0.0,0.0,0.0013478398,-0.0055265427,-0.10257816,0.0,0.0,0.0
246.89749,194.45862,14013049,1.3000001,0.12765957,-2.7227545,-2.1182947,0.0013478398,-0.0055265427,-0.10257816,1.0376131E-5,0.0,0.0
246.89749,194.45862,14013065,1.1875,0.12765957,-0.029518899,-0.02394884,0.0013478398,-0.0055265427,-0.10257816,1.0376131E-5,0.0,0.0
246.89749,194.45862,14013082,0.8875,0.08510638,-0.008928506,-0.0063102483,0.0013478398,-0.0055265427,-0.10257816,1.0376131E-5,0.0,0.0
240.71951,234.83191,14013099,0.8875,0.10638297,-287.58334,1861.953,0.0013478398,-0.0055265427,-0.10257816,1.0376131E-5,0.0,0.0
233.7717,270.64124,14013116,0.90000004,0.08510638,-448.59866,2698.9036,0.0013478398,-0.0055265427,-0.10257816,-1.4235935E-5,1.4235935E-5,0.0
221.26105,307.68445,14013132,0.8875,0.08510638,-751.4264,3188.0974,0.0013478398,-0.0055265427,-0.10257816,-1.4235935E-5,1.4235935E-5,0.0
206.34412,346.23218,14013149,0.90000004,0.12765957,-1013.2321,3092.9941,0.0013478398,-0.0055265427,-0.10257816,-1.4235935E-5,1.4235935E-5,0.0
191.33087,377.09265,14013166,0.925,0.08510638,-1158.8706,2403.078,0.0013478398,-0.0055265427,-0.10257816,-1.4235935E-5,1.4235935E-5,0.0
172.32152,405.47424,14013182,0.95,0.10638297,-1214.9753,1829.6726,0.0013478398,-0.0055265427,-0.10257816,1.6601803E-4,-4.1504507E-5,0.0
150.35744,432.5714,14013199,0.96250004,0.09574468,-1316.0345,1448.5791,0.0013478398,-0.0055265427,-0.10257816,1.6601803E-4,-4.1504507E-5,0.0
128.0501,453.5609,14013216,0.9875,0.10638297,-1450.5347,1163.8817,0.0013478398,-0.0055265427,-0.10257816,1.6601803E-4,-4.1504507E-5,0.0
112.3909,462.5868,14013233,1.0375,0.12765957,-1378.7349,783.3442,0.0013478398,-0.0055265427,-0.10257816,1.6601803E-4,-4.1504507E-5,0.0
100.93112,463.67505,14013249,1.2125,0.12765957,-923.56116,91.18328,0.0013478398,-0.0055265427,-0.10257816,2.9742497E-4,0.0,0.0
93.21124,460.8695,14013266,1.3125,0.12765957,-416.88962,-571.91644,0.0013478398,-0.0055265427,-0.10257816,2.9742497E-4,0.0,0.0
89.2045,457.16614,14013283,1.35,0.12765957,-77.01867,-762.8769,0.0013478398,-0.0055265427,-0.10257816,2.9742497E-4,0.0,0.0
86.18996,444.28882,14013299,1.3125,0.12765957,74.643776,-893.1314,0.0013478398,-0.0055265427,-0.10257816,2.9742497E-4,0.0,0.0
87.7607,431.52917,14013316,1.25,0.12765957,173.78445,-982.9071,0.0013478398,-0.0055265427,-0.10257816,-3.5192108E-5,-1.0557633E-4,0.0
92.512665,417.91138,14013333,1.15,0.14893617,352.3312,-1066.4,0.0013478398,-0.0055265427,-0.10257816,-3.5192108E-5,-1.0557633E-4,0.0
99.48729,407.94592,14013350,1.15,0.12765957,520.26263,-939.95624,0.0013478398,-0.0055265427,-0.10257816,-3.5192108E-5,-1.0557633E-4,0.0
108.169846,400.16064,14013366,1.1625,0.10638297,678.8322,-624.21436,0.0013478398,-0.0055265427,-0.10257816,-3.5192108E-5,-1.0557633E-4,0.0
116.529724,396.50684,14013383,1.1750001,0.10638297,698.8168,-284.32706,0.0013478398,-0.0055265427,-0.10257816,-5.9553164E-5,1.9851053E-5,0.0
123.155075,396.75916,14013400,1.1750001,0.11702127,586.61786,50.573345,0.0013478398,-0.0055265427,-0.10257816,-5.9553164E-5,1.9851053E-5,0.0
130.06784,400.9016,14013416,1.1375,0.11702127,422.69818,360.22614,0.0013478398,-0.0055265427,-0.10257816,-5.9553164E-5,1.9851053E-5,0.0
140.00563,411.93262,14013433,1.1,0.12765957,413.3687,661.37415,0.0013478398,-0.0055265427,-0.10257816,-5.9553164E-5,1.9851053E-5,0.0
154.858,427.48438,14013450,1.1125001,0.12765957,667.28076,1004.62805,0.13707823,-0.052421093,-0.034062386,4.9575925E-4,3.5411376E-5,0.0
170.6978,441.69104,14013467,1.075,0.10638297,1003.0665,1205.2383,0.13707823,-0.052421093,-0.034062386,4.9575925E-4,3.5411376E-5,0.0
187.95694,454.03943,14013483,1.075,0.12765957,1171.7179,1100.2816,0.13707823,-0.052421093,-0.034062386,4.9575925E-4,3.5411376E-5,0.0
207.73734,460.60815,14013500,1.0875,0.12765957,1306.111,758.819,0.13707823,-0.052421093,-0.034062386,4.9575925E-4,3.5411376E-5,0.0
231.37134,461.00952,14013517,1.1125001,0.11702127,1450.5458,205.41177,0.13707823,-0.052421093,-0.034062386,4.988203E-4,0.0,0.0
265.29605,457.77686,14013533,1.1125001,0.12765957,1820.8652,-271.40378,0.13707823,-0.052421093,-0.034062386,4.988203E-4,0.0,0.0
294.67358,447.46228,14013550,1.125,0.11702127,2114.1462,-685.77045,0.13707823,-0.052421093,-0.034062386,4.988203E-4,0.0,0.0
324.18472,430.67297,14013567,1.125,0.11702127,2110.7324,-1134.8207,0.13707823,-0.052421093,-0.034062386,4.988203E-4,0.0,0.0
349.85153,411.82678,14013584,1.125,0.12765957,1836.1326,-1427.865,0.13707823,-0.052421093,-0.034062386,-2.1004022E-4,2.3337803E-5,0.0
371.4877,396.0326,14013600,1.125,0.12765957,1396.1973,-1443.9355,0.13707823,-0.052421093,-0.034062386,-2.1004022E-4,2.3337803E-5,0.0
383.8424,383.72217,14013617,1.1125001,0.10638297,859.7621,-1111.7349,0.13707823,-0.052421093,-0.034062386,-2.1004022E-4,2.3337803E-5,0.0
390.35513,374.81702,14013634,1.125,0.10638297,319.39813,-642.34467,0.13707823,-0.052421093,-0.034062386,-2.1004022E-4,2.3337803E-5,0.0
391.8503,370.66992,14013650,1.1750001,0.11702127,-142.98033,-228.80748,0.13707823,-0.052421093,-0.034062386,-4.988203E-4,0.0,0.0
391.37088,368.64148,14013667,1.3000001,0.11702127,-425.42346,30.762344,0.13707823,-0.052421093,-0.034062386,-4.988203E-4,0.0,0.0
387.2643,370.44434,14013684,1.275,0.12765957,-480.9336,220.09988,0.13707823,-0.052421093,-0.034062386,-4.988203E-4,0.0,0.0
377.18945,378.91638,14013700,1.075,0.12765957,-641.57513,500.58313,0.13707823,-0.052421093,-0.034062386,-4.988203E-4,0.0,0.0
359.18774,392.0697,14013717,0.96250004,0.10638297,-1020.4109,844.6802,0.13707823,-0.052421093,-0.034062386,1.4419368E-4,-6.179729E-5,0.0
334.57156,412.85034,14013734,1.0125,0.10638297,-1551.171,1298.0631,0.13707823,-0.052421093,-0.034062386,1.4419368E-4,-6.179729E-5,0.0
318.342,432.23755,14013751,1.0125,0.11702127,-1674.2931,1564.6958,0.13707823,-0.052421093,-0.034062386,1.4419368E-4,-6.179729E-5,0.0
307.3191,448.30896,14013767,1.0125,0.12765957,-1271.6683,1459.0211,0.13707823,-0.052421093,-0.034062386,1.4419368E-4,-6.179729E-5,0.0
296.76523,473.51978,14013784,0.975,0.08510638,-585.49866,1389.5497,0.13707823,-0.052421093,-0.034062386,2.7375095E-4,-6.843774E-5,0.0
293.8822,489.50757,14013801,0.95,0.09574468,-96.12677,1194.763,0.13707823,-0.052421093,-0.034062386,2.7375095E-4,-6.843774E-5,0.0
296.13718,502.56226,14013817,0.90000004,0.10638297,209.38489,952.82605,0.13707823,-0.052421093,-0.034062386,2.7375095E-4,-6.843774E-5,0.0
301.1125,510.24658,14013834,0.85,0.12765957,490.2471,522.3614,0.13707823,-0.052421093,-0.034062386,2.7375095E-4,-6.843774E-5,0.0
316.3588,518.8965,14013851,0.875,0.11702127,886.96796,194.00931,0.13707823,-0.052421093,-0.034062386,-1.6438245E-5,8.219123E-6,0.0
335.39023,519.7377,14013868,0.925,0.08510638,1294.1495,85.38263,0.13707823,-0.052421093,-0.034062386,-1.6438245E-5,8.219123E-6,0.0
358.09958,511.7511,14013884,0.975,0.12765957,1645.3756,-301.4514,0.13707823,-0.052421093,-0.034062386,-1.6438245E-5,8.219123E-6,0.0
380.8861,499.73584,14013901,1.075,0.10638297,1774.9186,-829.3061,0.13707823,-0.052421093,-0.034062386,-1.6438245E-5,8.219123E-6,0.0
396.33035,481.97632,14013918,1.1,0.11702127,1454.6338,-1295.8429,0.13707823,-0.052421093,-0.034062386,-1.0376131E-5,0.0,0.0
406.32382,465.49084,14013934,1.1,0.12765957,864.0203,-1449.2379,0.13707823,-0.052421093,-0.034062386,-1.0376131E-5,0.0,0.0
418.91168,439.95862,14013951,1.0500001,0.11702127,492.8209,-1535.0634,0.13707823,-0.052421093,-0.034062386,-1.0376131E-5,0.0,0.0
425.4903,416.64722,14013968,1.0375,0.14893617,272.428,-1668.3037,0.13707823,-0.052421093,-0.034062386,-1.0376131E-5,0.0,0.0
428.5616,399.6859,14013985,1.0500001,0.11702127,204.20518,-1477.4281,-0.07433736,0.05406308,-0.027249336,-5.4208816E-5,-2.7104408E-5,0.0
428.83826,387.6422,14014001,1.0875,0.11702127,-28.142246,-1030.7185,-0.07433736,0.05406308,-0.027249336,-5.4208816E-5,-2.7104408E-5,0.0
428.559,380.44348,14014018,1.1125001,0.12765957,-234.41002,-399.64523,-0.07433736,0.05406308,-0.027249336,-5.4208816E-5,-2.7104408E-5,0.0
427.4962,376.8816,14014035,1.15,0.12765957,-276.7342,40.42748,-0.07433736,0.05406308,-0.027249336,-5.4208816E-5,-2.7104408E-5,0.0
426.47635,376.60168,14014051,1.2,0.12765957,-179.26077,210.59244,-0.07433736,0.05406308,-0.027249336,-6.150627E-5,-1.5376567E-5,0.0
423.6766,382.0735,14014068,1.275,0.12765957,-153.44507,402.24344,-0.07433736,0.05406308,-0.027249336,-6.150627E-5,-1.5376567E-5,0.0
419.54117,392.95044,14014085,1.2,0.12765957,-227.74738,695.6476,-0.07433736,0.05406308,-0.027249336,-6.150627E-5,-1.5376567E-5,0.0
414.87418,407.58777,14014102,0.9375,0.12765957,-318.82047,1024.3422,-0.07433736,0.05406308,-0.027249336,-6.150627E-5,-1.5376567E-5,0.0
410.22455,436.307,14014118,0.875,0.09574468,-367.73694,1601.1128,-0.07433736,0.05406308,-0.027249336,8.177919E-5,2.0444797E-5,0.0
407.77206,461.80835,14014135,0.90000004,0.09574468,-289.98856,1975.9102,-0.07433736,0.05406308,-0.027249336,8.177919E-5,2.0444797E-5,0.0
409.2896,479.47266,14014152,0.8625,0.08510638,-60.17964,1812.086,-0.07433736,0.05406308,-0.027249336,8.177919E-5,2.0444797E-5,0.0
414.05368,492.98645,14014168,0.83750004,0.10638297,241.50926,1258.5365,-0.07433736,0.05406308,-0.027249336,8.177919E-5,2.0444797E-5,0.0
421.92007,500.92078,14014185,0.8625,0.12765957,516.9193,517.28546,-0.07433736,0.05406308,-0.027249336,6.0932216E-4,1.0155369E-4,0.0
437.0006,508.9037,14014202,0.9125,0.10638297,891.4704,142.74376,-0.07433736,0.05406308,-0.027249336,6.0932216E-4,1.0155369E-4,0.0
453.19446,510.281,14014219,0.9375,0.10638297,1166.0809,26.607904,-0.07433736,0.05406308,-0.027249336,6.0932216E-4,1.0155369E-4,0.0
477.49854,504.7965,14014235,0.95,0.12765957,1468.2183,-265.74942,-0.07433736,0.05406308,-0.027249336,6.0932216E-4,1.0155369E-4,0.0
500.6916,490.16223,14014252,1.025,0.08510638,1714.615,-822.79626,-0.07433736,0.05406308,-0.027249336,-1.5174785E-4,2.5291309E-5,0.0
519.99725,471.01782,14014269,1.0375,0.12765957,1597.4521,-1431.8995,-0.07433736,0.05406308,-0.027249336,-1.5174785E-4,2.5291309E-5,0.0
534.8475,451.76355,14014285,1.0625,0.12765957,1234.474,-1647.2037,-0.07433736,0.05406308,-0.027249336,-1.5174785E-4,2.5291309E-5,0.0
552.64264,415.0155,14014302,1.025,0.12765957,835.0329,-1912.9934,-0.07433736,0.05406308,-0.027249336,-1.5174785E-4,2.5291309E-5,0.0
566.9056,382.56848,14014319,1.0125,0.12765957,714.7821,-2284.645,-0.07433736,0.05406308,-0.027249336,-6.019788E-4,5.4725344E-5,0.0
581.18896,342.7572,14014336,1.0,0.11702127,812.4264,-2710.8384,-0.07433736,0.05406308,-0.027249336,-6.019788E-4,5.4725344E-5,0.0
595.9005,297.25232,14014352,1.0,0.12765957,853.32574,-2957.4211,-0.07433736,0.05406308,-0.027249336,-6.019788E-4,5.4725344E-5,0.0
602.69617,269.87915,14014369,1.0125,0.12765957,626.5681,-2504.749,-0.07433736,0.05406308,-0.027249336,-6.019788E-4,5.4725344E-5,0.0
607.4132,236.67444,14014386,1.0,0.10638297,294.39133,-2004.7063,-0.07433736,0.05406308,-0.027249336,-2.5943396E-4,-1.1118598E-4,0.0
609.1795,220.75867,14014402,1.0,0.10638297,16.240921,-1331.7344,-0.07433736,0.05406308,-0.027249336,-2.5943396E-4,-1.1118598E-4,0.0
610.2792,202.67786,14014419,0.96250004,0.12765957,-141.18506,-784.5772,-0.07433736,0.05406308,-0.027249336,-2.5943396E-4,-1.1118598E-4,0.0
610.0002,192.97083,14014436,1.0,0.10638297,-150.72322,-426.38864,-0.07433736,0.05406308,-0.027249336,-2.5943396E-4,-1.1118598E-4,0.0
608.4949,189.50977,14014453,1.0875,0.12765957,-173.69974,-11.92613,-0.07433736,0.05406308,-0.027249336,-5.0331633E-5,0.0,0.0
606.2823,188.23901,14014469,1.15,0.12765957,-183.10107,174.90627,-0.07433736,0.05406308,-0.027249336,-5.0331633E-5,0.0,0.0
602.2722,190.46887,14014486,1.225,0.12765957,-257.4375,414.7966,-0.07433736,0.05406308,-0.027249336,-5.0331633E-5,0.0,0.0
594.96277,202.90564,14014503,1.2125,0.12765957,-372.6415,652.5452,-0.07433736,0.05406308,-0.027249336,-5.0331633E-5,0.0,0.0
587.92566,218.11829,14014519,1.1125001,0.12765957,-527.06946,1046.2498,0.12453008,-0.26074934,0.16219997,-1.0066328E-5,-2.0132657E-5,0.0
578.6787,233.74951,14014536,0.9375,0.12765957,-621.0365,1301.1312,0.12453008,-0.26074934,0.16219997,-1.0066328E-5,-2.0132657E-5,0.0
564.53925,265.48645,14014553,0.925,0.08510638,-792.6012,1756.0598,0.12453008,-0.26074934,0.16219997,-1.0066328E-5,-2.0132657E-5,0.0
552.18585,297.98877,14014569,0.925,0.10638297,-894.4953,2147.1333,0.12453008,-0.26074934,0.16219997,-1.0066328E-5,-2.0132657E-5,0.0
543.7119,335.03955,14014586,0.90000004,0.12765957,-795.67426,2456.353,0.12453008,-0.26074934,0.16219997,8.0017996E-4,3.6371814E-4,0.0
537.55286,377.0459,14014603,0.9125,0.09574468,-549.30383,2741.5073,0.12453008,-0.26074934,0.16219997,8.0017996E-4,3.6371814E-4,0.0
535.68164,413.65784,14014620,0.90000004,0.11702127,-176.27591,2728.5398,0.12453008,-0.26074934,0.16219997,8.0017996E-4,3.6371814E-4,0.0
535.79004,449.67676,14014636,0.8875,0.12765957,113.643105,2506.7754,0.12453008,-0.26074934,0.16219997,8.0017996E-4,3.6371814E-4,0.0
536.07837,483.53467,14014653,0.90000004,0.09574468,210.90567,2203.3809,0.12453008,-0.26074934,0.16219997,6.291453E-5,0.0,0.0
536.89417,510.84875,14014670,0.8625,0.12765957,203.32501,1718.8372,0.12453008,-0.26074934,0.16219997,6.291453E-5,0.0,0.0
537.5807,528.93176,14014686,0.8625,0.09574468,136.42203,1118.1471,0.12453008,-0.26074934,0.16219997,6.291453E-5,0.0,0.0
539.1909,540.183,14014703,0.875,0.09574468,101.96337,578.8177,0.12453008,-0.26074934,0.16219997,6.291453E-5,0.0,0.0
540.2305,544.40186,14014720,0.925,0.11702127,85.66209,38.567657,0.12453008,-0.26074934,0.16219997,-1.3286852E-4,-3.321713E-5,0.0
540.30194,545.41736,14014737,1.1125001,0.12765957,67.24665,-338.9248,0.12453008,-0.26074934,0.16219997,-1.3286852E-4,-3.321713E-5,0.0
543.9128,540.8157,14014753,1.2875,0.12765957,101.9691,-524.75275,0.12453008,-0.26074934,0.16219997,-1.3286852E-4,-3.321713E-5,0.0
553.97015,519.7977,14014770,1.1875,0.10638297,378.6084,-1039.6168,0.12453008,-0.26074934,0.16219997,-1.3286852E-4,-3.321713E-5,0.0
557.6102,501.79834,14014787,1.075,0.09574468,509.45587,-1500.2806,0.12453008,-0.26074934,0.16219997,-3.183252E-5,0.0,0.0
563.8515,480.35315,14014803,1.0125,0.10638297,513.2447,-1738.3613,0.12453008,-0.26074934,0.16219997,-3.183252E-5,0.0,0.0
570.50867,457.9348,14014820,0.96250004,0.12765957,446.5911,-1765.8196,0.12453008,-0.26074934,0.16219997,-3.183252E-5,0.0,0.0
582.68207,438.48743,14014837,0.9875,0.12765957,476.21176,-1439.4423,0.12453008,-0.26074934,0.16219997,-3.183252E-5,0.0,0.0
600.72723,410.87646,14014854,1.0125,0.10638297,975.1864,-1510.9807,0.12453008,-0.26074934,0.16219997,0.0,-2.4393908E-4,0.0
616.17957,393.75354,14014870,1.0125,0.09574468,1254.5541,-1447.2456,0.12453008,-0.26074934,0.16219997,0.0,-2.4393908E-4,0.0
626.3667,384.51587,14014887,1.0375,0.12765957,1065.6548,-896.5643,0.12453008,-0.26074934,0.16219997,0.0,-2.4393908E-4,0.0
633.14343,380.37903,14014904,1.0625,0.12765957,616.5698,-266.59256,0.12453008,-0.26074934,0.16219997,0.0,-2.4393908E-4,0.0
636.0534,380.15576,14014920,1.1125001,0.12765957,76.68445,388.60947,0.12453008,-0.26074934,0.16219997,-4.1095496E-4,2.876685E-4,0.0
637.644,381.70825,14014937,1.2375001,0.14893617,-130.24649,455.17444,0.12453008,-0.26074934,0.16219997,-4.1095496E-4,2.876685E-4,0.0
638.2701,387.19568,14014954,1.325,0.14893617,-180.71439,510.54694,0.12453008,-0.26074934,0.16219997,-4.1095496E-4,2.876685E-4,0.0
635.1594,394.5702,14014971,1.1625,0.12765957,-214.7232,578.2349,0.12453008,-0.26074934,0.16219997,-4.1095496E-4,2.876685E-4,0.0
628.2292,404.83618,14014987,0.9125,0.09574468,-382.8659,698.98553,0.12453008,-0.26074934,0.16219997,8.361697E-5,1.6723394E-4,0.0
607.45526,426.99084,14015004,0.90000004,0.11702127,-910.9666,1091.1501,0.12453008,-0.26074934,0.16219997,8.361697E-5,1.6723394E-4,0.0
587.4225,444.89575,14015021,0.95,0.12765957,-1461.9421,1392.9647,0.12453008,-0.26074934,0.16219997,8.361697E-5,1.6723394E-4,0.0
569.1733,461.11548,14015037,0.96250004,0.09574468,-1658.1096,1428.3351,0.12453008,-0.26074934,0.16219997,8.361697E-5,1.6723394E-4,0.0
562.20306,469.28162,14015054,0.96250004,0.08510638,-1097.6013,932.5921,0.07562405,0.24740052,-0.40624046,0.0017233217,-4.6999683E-4,0.0
558.53326,474.36743,14015071,0.96250004,0.08510638,-266.17566,268.07443,0.07562405,0.24740052,-0.40624046,0.0017233217,-4.6999683E-4,0.0
557.5888,478.4109,14015088,0.96250004,0.08510638,236.79552,-36.633675,0.07562405,0.24740052,-0.40624046,0.0017233217,-4.6999683E-4,0.0
559.93207,480.24976,14015104,0.9125,0.08510638,407.9863,-110.63242,0.07562405,0.24740052,-0.40624046,0.0017233217,-4.6999683E-4,0.0
573.84674,483.276,14015121,0.90000004,0.08510638,654.408,-45.48087,0.07562405,0.24740052,-0.40624046,-5.132839E-5,-1.2832097E-5,0.0
605.95447,484.30127,14015138,0.925,0.09574468,1539.1918,29.21834,0.07562405,0.24740052,-0.40624046,-5.132839E-5,-1.2832097E-5,0.0
648.01105,475.00916,14015154,0.925,0.12765957,2583.0437,-212.49275,0.07562405,0.24740052,-0.40624046,-5.132839E-5,-1.2832097E-5,0.0
682.99426,463.77063,14015171,0.95,0.11702127,3251.7917,-656.48724,0.07562405,0.24740052,-0.40624046,-5.132839E-5,-1.2832097E-5,0.0
717.55865,451.80994,14015188,0.96250004,0.08510638,2948.2317,-1020.5411,0.07562405,0.24740052,-0.40624046,6.843784E-5,5.132838E-5,0.0
744.09534,439.64868,14015205,0.975,0.12765957,2111.2512,-1067.2885,0.07562405,0.24740052,-0.40624046,6.843784E-5,5.132838E-5,0.0
765.03735,424.6306,14015221,0.95,0.10638297,1305.1448,-968.6204,0.07562405,0.24740052,-0.40624046,6.843784E-5,5.132838E-5,0.0
778.04645,412.15295,14015238,0.975,0.11702127,681.88116,-865.8602,0.07562405,0.24740052,-0.40624046,6.843784E-5,5.132838E-5,0.0
784.2955,404.90417,14015255,1.0125,0.10638297,239.9575,-671.68585,0.07562405,0.24740052,-0.40624046,0.0,-3.5589844E-6,0.0
785.9513,399.84998,14015271,1.0125,0.10638297,-125.02147,-357.23874,0.07562405,0.24740052,-0.40624046,0.0,-3.5589844E-6,0.0
785.4546,395.67334,14015288,1.0625,0.10638297,-381.1306,-104.70767,0.07562405,0.24740052,-0.40624046,0.0,-3.5589844E-6,0.0
781.089,395.26025,14015305,1.1,0.10638297,-473.078,47.470882,0.07562405,0.24740052,-0.40624046,-7.8620455E-5,-1.5724091E-4,0.0
770.41473,398.86975,14015321,1.0125,0.12765957,-654.38696,206.24786,0.07562405,0.24740052,-0.40624046,-7.8620455E-5,-1.5724091E-4,0.0
746.2443,410.07336,14015338,0.875,0.12765957,-1193.7078,580.4666,0.07562405,0.24740052,-0.40624046,-7.8620455E-5,-1.5724091E-4,0.0
719.49744,428.87805,14015355,0.90000004,0.09574468,-1842.9143,1083.2871,0.07562405,0.24740052,-0.40624046,-7.8620455E-5,-1.5724091E-4,0.0
698.03986,447.74548,14015372,0.9125,0.12765957,-2065.7815,1486.9307,0.07562405,0.24740052,-0.40624046,1.5558084E-4,-4.4451666E-5,0.0
682.6881,465.542,14015388,0.925,0.08510638,-1565.0437,1537.8518,0.07562405,0.24740052,-0.40624046,1.5558084E-4,-4.4451666E-5,0.0
669.3682,490.22485,14015405,0.8875,0.09574468,-922.05804,1564.4811,0.07562405,0.24740052,-0.40624046,1.5558084E-4,-4.4451666E-5,0.0
666.58344,504.0304,14015422,0.8875,0.10638297,-209.91463,1227.5905,0.07562405,0.24740052,-0.40624046,1.5558084E-4,-4.4451666E-5,0.0
668.02655,511.71167,14015438,0.875,0.10638297,249.50624,741.37964,0.07562405,0.24740052,-0.40624046,1.2227739E-4,1.2227739E-4,0.0
670.3224,514.0979,14015455,0.8875,0.09574468,502.80106,175.43355,0.07562405,0.24740052,-0.40624046,1.2227739E-4,1.2227739E-4,0.0
680.83075,517.33716,14015472,0.8875,0.12765957,744.01715,-185.59335,0.07562405,0.24740052,-0.40624046,1.2227739E-4,1.2227739E-4,0.0
699.0322,514.82214,14015489,0.95,0.12765957,1045.8964,-236.42816,0.07562405,0.24740052,-0.40624046,1.2227739E-4,1.2227739E-4,0.0
719.2406,508.32373,14015505,0.96250004,0.08510638,1472.1892,-426.84253,0.07562405,0.24740052,-0.40624046,3.6986035E-5,1.8493018E-5,0.0
738.9612,496.56824,14015522,1.0,0.12765957,1633.8629,-718.83856,0.07562405,0.24740052,-0.40624046,3.6986035E-5,1.8493018E-5,0.0
753.8488,481.29004,14015539,1.025,0.14893617,1362.8458,-1088.3014,0.07562405,0.24740052,-0.40624046,3.6986035E-5,1.8493018E-5,0.0
763.1531,466.2638,14015555,1.025,0.10638297,792.57635,-1217.606,0.07562405,0.24740052,-0.40624046,3.6986035E-5,1.8493018E-5,0.0
768.81555,454.78003,14015572,1.0,0.09574468,291.93857,-1058.641,-0.32350075,0.09392023,-0.09299278,-3.446137E-4,5.7435616E-5,0.0
776.10583,437.31677,14015589,0.975,0.09574468,89.41442,-989.3183,-0.32350075,0.09392023,-0.09299278,-3.446137E-4,5.7435616E-5,0.0
780.2622,425.33313,14015606,1.0,0.11702127,90.25297,-848.1797,-0.32350075,0.09392023,-0.09299278,-3.446137E-4,5.7435616E-5,0.0
781.77374,418.98132,14015622,1.025,0.11702127,73.0242,-591.3333,-0.32350075,0.09392023,-0.09299278,-3.446137E-4,5.7435616E-5,0.0
781.7234,416.52417,14015639,1.1125001,0.10638297,-36.518604,-228.40254,-0.32350075,0.09392023,-0.09299278,-0.0011942376,-5.573109E-4,0.0
780.6259,415.69592,14015656,1.2125,0.12765957,-162.6602,122.44882,-0.32350075,0.09392023,-0.09299278,-0.0011942376,-5.573109E-4,0.0
778.8378,416.92773,14015672,1.2625,0.12765957,-224.07109,305.75366,-0.32350075,0.09392023,-0.09299278,-0.0011942376,-5.573109E-4,0.0
773.11487,431.19604,14015689,1.1375,0.12765957,-315.0765,637.2833,-0.32350075,0.09392023,-0.09299278,-0.0011942376,-5.573109E-4,0.0
770.7485,440.9226,14015706,0.9125,0.12765957,-326.2914,926.44135,-0.32350075,0.09392023,-0.09299278,2.8803559E-5,8.641068E-5,0.0
769.7273,454.46936,14015723,0.8125,0.12765957,-218.12616,1053.8085,-0.32350075,0.09392023,-0.09299278,2.8803559E-5,8.641068E-5,0.0
770.88257,468.05884,14015739,0.825,0.08510638,6.995661,1031.2054,-0.32350075,0.09392023,-0.09299278,2.8803559E-5,8.641068E-5,0.0
774.1904,478.47876,14015756,0.8625,0.08510638,237.24475,813.39404,-0.32350075,0.09392023,-0.09299278,2.8803559E-5,8.641068E-5,0.0
777.155,483.35107,14015773,0.925,0.08510638,305.72253,512.2515,-0.32350075,0.09392023,-0.09299278,7.4789225E-4,2.3371632E-4,0.0
784.7534,488.34473,14015789,0.95,0.09574468,418.5231,229.90512,-0.32350075,0.09392023,-0.09299278,7.4789225E-4,2.3371632E-4,0.0
794.049,488.5531,14015806,0.975,0.12765957,582.3248,-68.71925,-0.32350075,0.09392023,-0.09299278,7.4789225E-4,2.3371632E-4,0.0
808.993,481.2904,14015823,0.9875,0.12765957,848.6262,-366.97766,-0.32350075,0.09392023,-0.09299278,7.4789225E-4,2.3371632E-4,0.0
826.6711,467.31287,14015840,1.0,0.11702127,1143.2281,-809.091,-0.32350075,0.09392023,-0.09299278,-5.6943678E-5,5.6943678E-5,0.0
840.00867,453.36377,14015856,0.9375,0.10638297,1174.8811,-1155.2383,-0.32350075,0.09392023,-0.09299278,-5.6943678E-5,5.6943678E-5,0.0
849.5011,436.48718,14015873,0.9125,0.12765957,916.67834,-1320.0624,-0.32350075,0.09392023,-0.09299278,-5.6943678E-5,5.6943678E-5,0.0
868.86273,394.6234,14015890,0.90000004,0.09574468,877.825,-2007.2588,-0.32350075,0.09392023,-0.09299278,-5.6943678E-5,5.6943678E-5,0.0
885.04095,351.3573,14015906,0.90000004,0.10638297,919.7656,-2740.0344,-0.32350075,0.09392023,-0.09299278,0.0,-1.9759435E-4,0.0
896.14233,316.82227,14015923,0.90000004,0.09574468,943.5909,-2980.1846,-0.32350075,0.09392023,-0.09299278,0.0,-1.9759435E-4,0.0
904.435,284.41272,14015940,0.90000004,0.08510638,676.6061,-2584.8147,-0.32350075,0.09392023,-0.09299278,0.0,-1.9759435E-4,0.0
910.56946,250.80164,14015957,0.90000004,0.12765957,259.90134,-1882.9774,-0.32350075,0.09392023,-0.09299278,0.0,-1.9759435E-4,0.0
915.024,226.69348,14015973,0.9125,0.09574468,98.658646,-1579.2216,-0.32350075,0.09392023,-0.09299278,-4.9149944E-4,4.0958286E-5,0.0
920.01654,201.5409,14015990,0.90000004,0.12765957,86.35655,-1274.765,-0.32350075,0.09392023,-0.09299278,-4.9149944E-4,4.0958286E-5,0.0
923.45624,182.93579,14016007,0.925,0.11702127,132.14977,-1067.2849,-0.32350075,0.09392023,-0.09299278,-4.9149944E-4,4.0958286E-5,0.0
924.66046,174.9989,14016023,0.925,0.09574468,108.51408,-694.42957,-0.32350075,0.09392023,-0.09299278,-4.9149944E-4,4.0958286E-5,0.0
925.1767,172.20361,14016040,1.0375,0.11702127,9.138853,-64.14485,-0.32350075,0.09392023,-0.09299278,-3.8551007E-4,1.5420403E-4,0.0
925.1767,172.24597,14016057,1.1750001,0.12765957,-69.33685,317.7513,-0.32350075,0.09392023,-0.09299278,-3.8551007E-4,1.5420403E-4,0.0
924.58167,175.24976,14016073,1.3125,0.14893617,-107.537605,573.8661,-0.32350075,0.09392023,-0.09299278,-3.8551007E-4,1.5420403E-4,0.0
922.76166,185.12451,14016090,1.2,0.12765957,-119.57304,651.47253,-0.32350075,0.09392023,-0.09299278,-3.8551007E-4,1.5420403E-4,0.0
920.4951,201.91699,14016107,0.90000004,0.09574468,-163.5305,970.3934,0.07719934,-0.052863598,-0.18639374,3.3763477E-5,-6.7526955E-5,0.0
918.6788,235.29663,14016124,0.7875,0.12765957,-180.36113,1757.2012,0.07719934,-0.052863598,-0.18639374,3.3763477E-5,-6.7526955E-5,0.0
916.67944,278.64,14016140,0.8,0.09574468,-160.51825,2757.0142,0.07719934,-0.052863598,-0.18639374,3.3763477E-5,-6.7526955E-5,0.0
916.1796,321.14978,14016157,0.8125,0.09574468,-83.25613,3316.1704,0.07719934,-0.052863598,-0.18639374,3.3763477E-5,-6.7526955E-5,0.0
916.3519,363.03235,14016174,0.825,0.11702127,7.1678457,3275.9773,0.07719934,-0.052863598,-0.18639374,-3.7475847E-4,-1.2491949E-4,0.0
918.20325,399.91895,14016190,0.825,0.12765957,80.522125,2754.2744,0.07719934,-0.052863598,-0.18639374,-3.7475847E-4,-1.2491949E-4,0.0
921.8584,427.03723,14016207,0.83750004,0.09574468,217.42393,1955.9269,0.07719934,-0.052863598,-0.18639374,-3.7475847E-4,-1.2491949E-4,0.0
926.9411,444.39,14016224,0.83750004,0.10638297,339.3468,1184.3344,0.07719934,-0.052863598,-0.18639374,-3.7475847E-4,-1.2491949E-4,0.0
931.67474,454.79028,14016241,0.8625,0.10638297,401.75623,439.64215,0.07719934,-0.052863598,-0.18639374,1.6787664E-4,1.0072599E-4,0.0
936.3519,460.3119,14016257,0.85,0.09574468,379.92578,-72.98697,0.07719934,-0.052863598,-0.18639374,1.6787664E-4,1.0072599E-4,0.0
943.6871,466.7339,14016274,0.7875,0.09574468,389.76926,-171.8557,0.07719934,-0.052863598,-0.18639374,1.6787664E-4,1.0072599E-4,0.0
949.1689,469.89453,14016281,0.675,0.10638297,444.2202,-154.15762,0.07719934,-0.052863598,-0.18639374,1.6787664E-4,1.0072599E-4,0.0
949.1689,469.89453,14016288,0.675,0.10638297,444.2202,-154.15762,0.07719934,-0.052863598,-0.18639374,1.6787664E-4,1.0072599E-4,0.0
852.70026,317.96057,14016450,1.3625001,0.14893617,0.0,0.0,0.07719934,-0.052863598,-0.18639374,0.0012225378,1.6300505E-4,0.0
852.70026,317.96057,14016475,1.45,0.14893617,0.06779311,0.024686731,0.07719934,-0.052863598,-0.18639374,0.0012225378,1.6300505E-4,0.0
852.70026,317.96057,14016491,1.375,0.14893617,0.015457658,0.005403483,0.07719934,-0.052863598,-0.18639374,0.0012225378,1.6300505E-4,0.0
852.70026,317.96057,14016508,1.025,0.11702127,0.03311362,0.012007099,0.07719934,-0.052863598,-0.18639374,-1.5665572E-4,2.819803E-4,0.0
893.0889,317.40662,14016525,0.875,0.10638297,1622.2557,-40.60081,0.07719934,-0.052863598,-0.18639374,-1.5665572E-4,2.819803E-4,0.0
941.4073,319.20642,14016541,0.8,0.08510638,2969.2886,38.72924,0.07719934,-0.052863598,-0.18639374,-1.5665572E-4,2.819803E-4,0.0
990.6554,319.73755,14016554,0.625,0.09574468,4189.7573,91.4038,0.07719934,-0.052863598,-0.18639374,-1.5665572E-4,2.819803E-4,0.0
990.6554,319.73755,14016561,0.625,0.09574468,4189.7573,91.4038,0.07719934,-0.052863598,-0.18639374,-1.5665572E-4,2.819803E-4,0.0
1074.628,345.50415,14016691,0.95,0.12765957,0.0,0.0,0.5017594,-0.2662909,-0.301116,5.808851E-4,0.0,0.0
1074.628,345.50415,14016709,1.1125001,0.12765957,-0.9607897,-0.3161756,0.5017594,-0.2662909,-0.301116,-2.3754693E-4,5.278821E-5,0.0
1074.628,345.50415,14016725,1.1,0.11702127,0.011418462,0.0039387974,0.5017594,-0.2662909,-0.301116,-2.3754693E-4,5.278821E-5,0.0
1074.628,345.50415,14016742,1.0125,0.10638297,-0.012305374,-0.0025378447,0.5017594,-0.2662909,-0.301116,-2.3754693E-4,5.278821E-5,0.0
1055.4883,357.5138,14016759,0.825,0.09574468,-805.30896,500.4263,0.5017594,-0.2662909,-0.301116,-2.3754693E-4,5.278821E-5,0.0
1035.5042,375.16345,14016775,0.8,0.11702127,-1413.0198,1041.5001,0.5017594,-0.2662909,-0.301116,3.890855E-4,3.890855E-4,0.0
1018.24036,394.46863,14016792,0.8125,0.10638297,-1746.4437,1555.4556,0.5017594,-0.2662909,-0.301116,3.890855E-4,3.890855E-4,0.0
1005.7894,416.28796,14016809,0.825,0.08510638,-1419.0944,1671.3406,0.5017594,-0.2662909,-0.301116,3.890855E-4,3.890855E-4,0.0
997.85364,435.66748,14016826,0.8125,0.08510638,-699.67706,1558.5319,0.5017594,-0.2662909,-0.301116,3.890855E-4,3.890855E-4,0.0
995.2733,451.10278,14016842,0.7875,0.10638297,-46.973644,1167.1174,0.5017594,-0.2662909,-0.301116,2.6657895E-4,2.2849624E-4,0.0
996.95325,464.74133,14016859,0.77500004,0.09574468,259.08908,877.9115,0.5017594,-0.2662909,-0.301116,2.6657895E-4,2.2849624E-4,0.0
1000.5635,473.33044,14016876,0.7625,0.08510638,460.38068,556.96277,0.5017594,-0.2662909,-0.301116,2.6657895E-4,2.2849624E-4,0.0
1008.8611,480.72375,14016892,0.85,0.09574468,631.9512,258.13974,0.5017594,-0.2662909,-0.301116,2.6657895E-4,2.2849624E-4,0.0
1024.5868,485.19617,14016909,0.8875,0.11702127,907.7911,169.3094,0.5017594,-0.2662909,-0.301116,0.0,0.0,0.0
1043.7146,481.14197,14016926,0.90000004,0.10638297,1204.001,-126.43218,0.5017594,-0.2662909,-0.301116,3.532184E-5,0.0,0.0
1059.3624,469.90918,14016942,0.95,0.11702127,1334.9885,-565.44885,0.5017594,-0.2662909,-0.301116,3.532184E-5,0.0,0.0
1068.6493,458.30957,14016959,0.975,0.12765957,1151.7511,-993.8023,0.5017594,-0.2662909,-0.301116,3.532184E-5,0.0,0.0
1075.2408,443.00037,14016976,0.975,0.09574468,663.8324,-1270.4559,0.5017594,-0.2662909,-0.301116,-1.4779058E-4,6.6505757E-4,0.0
1075.8746,430.3197,14016993,0.925,0.11702127,58.849724,-1149.8586,0.5017594,-0.2662909,-0.301116,-1.4779058E-4,6.6505757E-4,0.0
1072.46,415.61536,14017009,0.95,0.12765957,-397.417,-934.72943,0.5017594,-0.2662909,-0.301116,-1.4779058E-4,6.6505757E-4,0.0
1067.8274,405.963,14017026,1.0,0.10638297,-595.714,-751.1446,0.5017594,-0.2662909,-0.301116,-1.4779058E-4,6.6505757E-4,0.0
1061.2333,398.90393,14017043,1.025,0.10638297,-623.48303,-479.16827,0.5017594,-0.2662909,-0.301116,-4.915655E-4,-0.001193802,0.0
1051.927,392.23376,14017059,1.0,0.09574468,-662.6959,-274.16205,0.5017594,-0.2662909,-0.301116,-4.915655E-4,-0.001193802,0.0
1044.923,390.0138,14017076,1.0125,0.12765957,-631.51794,-100.495384,0.5017594,-0.2662909,-0.301116,-4.915655E-4,-0.001193802,0.0
1040.6697,389.92932,14017093,1.0375,0.12765957,-488.64545,65.267876,0.5017594,-0.2662909,-0.301116,-4.915655E-4,-0.001193802,0.0
1039.1122,389.92932,14017110,1.125,0.14893617,-195.0717,138.89119,0.5017594,-0.2662909,-0.301116,-2.1671802E-4,-3.6119673E-5,0.0
1038.0752,391.8214,14017126,1.1750001,0.12765957,40.734097,225.2034,0.5017594,-0.2662909,-0.301116,-2.1671802E-4,-3.6119673E-5,0.0
1038.7468,392.59485,14017143,1.1625,0.12765957,149.96307,192.0693,0.5017594,-0.2662909,-0.301116,-2.1671802E-4,-3.6119673E-5,0.0
1045.8115,394.63257,14017160,0.95,0.10638297,319.12283,146.13947,0.5017594,-0.2662909,-0.301116,-2.1671802E-4,-3.6119673E-5,0.0
1067.1416,393.1438,14017176,0.8625,0.12765957,882.15454,53.636055,-0.3905924,0.29096723,0.37510777,8.783561E-4,5.8557076E-4,0.0
1104.8386,384.87537,14017193,0.875,0.08510638,2100.17,-285.3235,-0.3905924,0.29096723,0.37510777,8.783561E-4,5.8557076E-4,0.0
1142.4807,370.2047,14017210,0.875,0.12765957,2888.474,-775.8229,-0.3905924,0.29096723,0.37510777,8.783561E-4,5.8557076E-4,0.0
1168.3458,356.3152,14017227,0.875,0.11702127,2720.3994,-1143.9229,-0.3905924,0.29096723,0.37510777,8.783561E-4,5.8557076E-4,0.0
1193.2133,343.36975,14017243,0.90000004,0.12765957,1945.7386,-1190.9089,-0.3905924,0.29096723,0.37510777,5.469487E-4,1.17203286E-4,0.0
1205.9752,334.1609,14017260,0.90000004,0.10638297,969.94995,-869.11816,-0.3905924,0.29096723,0.37510777,5.469487E-4,1.17203286E-4,0.0
1211.8281,327.29907,14017277,0.95,0.10638297,268.352,-486.97864,-0.3905924,0.29096723,0.37510777,5.469487E-4,1.17203286E-4,0.0
1213.9923,321.7555,14017293,0.96250004,0.10638297,-258.6884,-217.61911,-0.3905924,0.29096723,0.37510777,5.469487E-4,1.17203286E-4,0.0
1213.5859,317.0835,14017310,1.0,0.10638297,-467.9637,-134.77107,-0.3905924,0.29096723,0.37510777,-5.782226E-4,0.0,0.0
1211.233,315.38354,14017327,1.0500001,0.12765957,-492.89066,-76.066795,-0.3905924,0.29096723,0.37510777,-5.782226E-4,0.0,0.0
1206.1987,316.3208,14017344,1.1125001,0.12765957,-434.0504,56.524727,-0.3905924,0.29096723,0.37510777,-5.782226E-4,0.0,0.0
1200.4093,320.13904,14017360,1.0875,0.12765957,-472.461,248.8121,-0.3905924,0.29096723,0.37510777,-5.782226E-4,0.0,0.0
1196.6202,323.84595,14017377,1.0500001,0.12765957,-445.94366,387.9326,-0.3905924,0.29096723,0.37510777,-2.8136204E-4,-1.4068102E-4,0.0
1193.716,330.50635,14017394,1.0125,0.12765957,-319.76425,481.15613,-0.3905924,0.29096723,0.37510777,-2.8136204E-4,-1.4068102E-4,0.0
1194.3202,335.1858,14017410,0.96250004,0.12765957,-42.889046,433.48706,-0.3905924,0.29096723,0.37510777,-2.8136204E-4,-1.4068102E-4,0.0
1196.6731,341.69434,14017427,0.83750004,0.12765957,149.2037,408.1455,-0.3905924,0.29096723,0.37510777,-2.8136204E-4,-1.4068102E-4,0.0
1202.6989,355.12524,14017444,0.8,0.10638297,380.32162,589.67896,-0.3905924,0.29096723,0.37510777,-1.0820965E-4,0.0,0.0
1210.891,372.17554,14017461,0.8,0.08510638,574.7724,949.60223,-0.3905924,0.29096723,0.37510777,-1.0820965E-4,0.0,0.0
1217.4059,388.12842,14017477,0.8,0.09574468,632.79456,1244.7054,-0.3905924,0.29096723,0.37510777,-1.0820965E-4,0.0,0.0
1221.9331,408.43164,14017494,0.7875,0.09574468,521.4878,1389.6549,-0.3905924,0.29096723,0.37510777,-1.0820965E-4,0.0,0.0
1222.0801,426.64246,14017511,0.7625,0.08510638,199.08054,1298.4159,-0.3905924,0.29096723,0.37510777,0.0015405623,-7.3360105E-5,0.0
1216.5234,446.9619,14017527,0.7625,0.10638297,-244.36179,1226.3898,-0.3905924,0.29096723,0.37510777,0.0015405623,-7.3360105E-5,0.0
1205.0693,465.2307,14017544,0.7625,0.09574468,-701.9744,1214.7501,-0.3905924,0.29096723,0.37510777,0.0015405623,-7.3360105E-5,0.0
1178.2064,489.55066,14017561,0.7,0.08510638,-1395.3628,1316.582,-0.3905924,0.29096723,0.37510777,0.0015405623,-7.3360105E-5,0.0
1152.6027,507.21167,14017567,0.375,0.14893617,-1898.5581,1474.5343,-0.3905924,0.29096723,0.37510777,0.0015405623,-7.3360105E-5,0.0
1152.6027,507.21167,14017575,0.375,0.14893617,-1898.5581,1474.5343,-0.3905924,0.29096723,0.37510777,0.0015405623,-7.3360105E-5,0.0
