x,y,timestamp,pressure,fingerarea,velocityx,velocityy,accelx,accely,accelz,gyrox,gyroy,gyroz
212.40872,192.68152,126746024,0.9125,0.12765957,0.0,0.0,-0.020279564,0.03511867,0.054777145,0.0,0.0,0.0
212.40872,192.68152,126746042,0.925,0.12765957,0.18281092,0.1688505,-0.020279564,0.03511867,0.054777145,0.0,0.0,0.0
212.40872,192.68152,126746059,0.925,0.12765957,-3.5477526E-6,9.991829E-4,-0.020279564,0.03511867,0.054777145,0.0,0.0,0.0
212.40872,192.68152,126746076,0.875,0.12765957,-3.2693433E-4,7.660609E-4,-0.020279564,0.03511867,0.054777145,0.0,0.0,0.0
212.40872,192.68152,126746092,0.77500004,0.10638297,0.0059681544,0.0062687974,-0.020279564,0.03511867,0.054777145,0.0,0.0,0.0
211.33002,212.7904,126746109,0.7375,0.09574468,-28.794699,631.83496,-0.020279564,0.03511867,0.054777145,0.0,0.0,0.0
210.58432,225.73389,126746126,0.725,0.10638297,-66.138695,1189.9132,-0.020279564,0.03511867,0.054777145,0.0,0.0,0.0
211.14215,242.49414,126746142,0.725,0.12765957,-48.40301,1389.8162,-0.020279564,0.03511867,0.054777145,0.0,0.0,0.0
211.00027,262.70764,126746159,0.7375,0.09574468,5.2844834,1442.3209,-0.020279564,0.03511867,0.054777145,0.0,0.0,0.0
209.96301,282.26306,126746176,0.725,0.11702127,4.4847445,1306.7965,-0.020279564,0.03511867,0.054777145,0.0,0.0,0.0
209.4097,303.42896,126746193,0.725,0.11702127,-30.354738,1295.9445,-0.020279564,0.03511867,0.054777145,0.0,0.0,0.0
208.38394,327.35535,126746209,0.7375,0.11702127,-75.097694,1478.4956,-0.020279564,0.03511867,0.054777145,0.0,0.0,0.0
205.14532,351.36328,126746226,0.725,0.09574468,-141.58115,1501.4852,-0.020279564,0.03511867,0.054777145,0.0,0.0,0.0
200.5057,378.95142,126746243,0.725,0.08510638,-242.65633,1634.2487,-0.020279564,0.03511867,0.054777145,0.0,0.0,0.0
196.1807,401.31384,126746259,0.75,0.12765957,-334.0023,1590.4613,-0.020279564,0.03511867,0.054777145,0.0,0.0,0.0
190.9956,424.06238,126746276,0.7375,0.08510638,-382.10654,1442.598,-0.020279564,0.03511867,0.054777145,0.0,0.0,0.0
183.64334,443.6477,126746293,0.7375,0.10638297,-404.2046,1218.9373,-0.020279564,0.03511867,0.054777145,0.0,0.0,0.0
174.80704,463.9281,126746310,0.7375,0.09574468,-515.7555,1095.492,-2.2365153E-4,-0.01990506,-0.020177841,0.0,0.0,0.0
165.9677,482.25574,126746326,0.71250004,0.08510638,-620.89417,1083.3364,-2.2365153E-4,-0.01990506,-0.020177841,0.0,0.0,0.0
157.6707,497.00427,126746343,0.725,0.11702127,-615.6504,930.9953,-2.2365153E-4,-0.01990506,-0.020177841,0.0,0.0,0.0
149.05232,507.79138,126746360,0.71250004,0.12765957,-548.2761,700.025,-2.2365153E-4,-0.01990506,-0.020177841,0.0,0.0,0.0
134.9789,522.27625,126746376,0.7,0.08510638,-641.85596,574.5796,-2.2365153E-4,-0.01990506,-0.020177841,0.0,0.0,0.0
119.43463,535.26636,126746393,0.725,0.08510638,-899.6703,630.2909,-2.2365153E-4,-0.01990506,-0.020177841,0.0,0.0,0.0
108.40753,541.88403,126746410,0.75,0.11702127,-954.73004,557.7229,-2.2365153E-4,-0.01990506,-0.020177841,0.0,0.0,0.0
98.48863,545.50757,126746427,0.77500004,0.10638297,-789.8399,307.27667,-2.2365153E-4,-0.01990506,-0.020177841,0.0,0.0,0.0
89.71875,544.3667,126746443,0.825,0.09574468,-533.2172,-79.4115,-2.2365153E-4,-0.01990506,-0.020177841,0.0,0.0,0.0
84.7993,539.3922,126746460,0.90000004,0.10638297,-277.74774,-443.70636,-2.2365153E-4,-0.01990506,-0.020177841,0.0,0.0,0.0
81.88924,530.09265,126746477,0.96250004,0.12765957,-119.77253,-674.2847,-2.2365153E-4,-0.01990506,-0.020177841,0.0,0.0,0.0
82.35095,520.895,126746493,0.95,0.12765957,40.838425,-826.0647,-2.2365153E-4,-0.01990506,-0.020177841,0.0,0.0,0.0
84.929825,512.1438,126746510,0.9125,0.12765957,244.7153,-777.3025,-2.2365153E-4,-0.01990506,-0.020177841,0.0,0.0,0.0
88.0464,505.26196,126746527,0.8625,0.11702127,338.64313,-607.6996,-2.2365153E-4,-0.01990506,-0.020177841,0.0,0.0,0.0
96.55325,494.24805,126746543,0.825,0.10638297,477.69955,-513.33344,-2.2365153E-4,-0.01990506,-0.020177841,0.0,0.0,0.0
109.73859,479.52112,126746560,0.825,0.10638297,757.05115,-696.8943,-2.2365153E-4,-0.01990506,-0.020177841,0.0,0.0,0.0
125.93448,467.34167,126746577,0.83750004,0.10638297,1067.1516,-905.54333,-2.2365153E-4,-0.01990506,-0.020177841,0.0,0.0,0.0
141.65698,460.39648,126746594,0.825,0.12765957,1245.3193,-787.3731,-2.2365153E-4,-0.01990506,-0.020177841,0.0,0.0,0.0
156.7193,457.47864,126746610,0.825,0.12765957,1186.8113,-386.33957,-2.2365153E-4,-0.01990506,-0.020177841,0.0,0.0,0.0
171.88567,456.56702,126746627,0.85,0.09574468,994.39594,71.063896,-2.2365153E-4,-0.01990506,-0.020177841,0.0,0.0,0.0
184.21819,458.47327,126746644,0.8125,0.10638297,837.85205,292.5202,-2.2365153E-4,-0.01990506,-0.020177841,0.0,0.0,0.0
193.41263,463.37744,126746660,0.83750004,0.12765957,628.5465,410.30658,-2.2365153E-4,-0.01990506,-0.020177841,0.0,0.0,0.0
203.23956,474.13318,126746677,0.8625,0.12765957,488.07492,615.006,-2.2365153E-4,-0.01990506,-0.020177841,0.0,0.0,0.0
213.9271,488.49683,126746694,0.85,0.10638297,454.54773,912.7175,-2.2365153E-4,-0.01990506,-0.020177841,0.0,0.0,0.0
221.92328,499.8285,126746711,0.83750004,0.10638297,491.11853,1040.5414,-2.2365153E-4,-0.01990506,-0.020177841,0.0,0.0,0.0
230.43607,511.2616,126746727,0.825,0.10638297,509.5621,922.34644,-2.2365153E-4,-0.01990506,-0.020177841,0.0,0.0,0.0
240.19308,523.8485,126746744,0.825,0.10638297,503.27545,767.94666,-2.2365153E-4,-0.01990506,-0.020177841,0.0,0.0,0.0
249.6734,534.86206,126746761,0.83750004,0.11702127,529.0386,664.3596,-2.2365153E-4,-0.01990506,-0.020177841,0.0,0.0,0.0
261.6647,544.6238,126746777,0.83750004,0.12765957,651.8947,635.6145,-2.2365153E-4,-0.01990506,-0.020177841,0.0,0.0,0.0
275.01398,551.21313,126746794,0.85,0.10638297,796.3897,487.37494,-2.2365153E-4,-0.01990506,-0.020177841,0.0,0.0,0.0
290.37918,554.2427,126746811,0.8625,0.10638297,927.8391,230.11536,-2.2365153E-4,-0.01990506,-0.020177841,0.0,0.0,0.0
303.9806,553.4,126746828,0.83750004,0.12765957,965.58405,-68.216805,-2.2365153E-4,-0.01990506,-0.020177841,0.0,0.0,0.0
322.76324,549.5962,126746844,0.825,0.10638297,1056.0309,-324.18036,-2.2365153E-4,-0.01990506,-0.020177841,0.0,0.0,0.0
340.70822,541.1184,126746861,0.83750004,0.11702127,1142.1991,-579.50055,-2.2365153E-4,-0.01990506,-0.020177841,0.0,0.0,0.0
355.15173,530.21924,126746878,0.8625,0.14893617,1082.0645,-803.76404,-1.7891824E-4,-0.015924037,-0.032141685,0.0,0.0,0.0
368.3909,519.9225,126746894,0.8625,0.12765957,916.8882,-887.78955,-1.7891824E-4,-0.015924037,-0.032141685,0.0,0.0,0.0
378.7008,511.97314,126746911,0.875,0.10638297,666.7959,-777.683,-1.7891824E-4,-0.015924037,-0.032141685,0.0,0.0,0.0
388.3052,502.81848,126746928,0.8875,0.10638297,451.91513,-537.72363,-1.7891824E-4,-0.015924037,-0.032141685,0.0,0.0,0.0
399.89185,488.151,126746945,0.875,0.11702127,493.34442,-612.7964,-1.7891824E-4,-0.015924037,-0.032141685,0.0,0.0,0.0
411.9292,471.48047,126746961,0.85,0.14893617,627.2197,-944.6832,-1.7891824E-4,-0.015924037,-0.032141685,0.0,0.0,0.0
422.62286,456.713,126746978,0.8625,0.12765957,714.3065,-1137.9508,-1.7891824E-4,-0.015924037,-0.032141685,0.0,0.0,0.0
432.90305,440.45654,126746995,0.85,0.10638297,675.68616,-1116.7853,-1.7891824E-4,-0.015924037,-0.032141685,0.0,0.0,0.0
441.8998,425.35254,126747011,0.8625,0.11702127,574.1757,-994.9219,-1.7891824E-4,-0.015924037,-0.032141685,0.0,0.0,0.0
448.74817,414.0426,126747028,0.85,0.11702127,429.2925,-808.12866,-1.7891824E-4,-0.015924037,-0.032141685,0.0,0.0,0.0
456.04236,405.70618,126747045,0.85,0.10638297,363.83188,-583.1478,-1.7891824E-4,-0.015924037,-0.032141685,0.0,0.0,0.0
461.6756,399.33167,126747062,0.83750004,0.12765957,306.80508,-328.3084,-1.7891824E-4,-0.015924037,-0.032141685,0.0,0.0,0.0
468.56073,392.0348,126747078,0.83750004,0.12765957,305.92435,-211.22868,-1.7891824E-4,-0.015924037,-0.032141685,0.0,0.0,0.0
475.31195,386.51074,126747095,0.83750004,0.12765957,361.95273,-223.51529,-1.7891824E-4,-0.015924037,-0.032141685,0.0,0.0,0.0
483.24384,382.18896,126747112,0.8125,0.12765957,425.61884,-235.08553,-1.7891824E-4,-0.015924037,-0.032141685,0.0,0.0,0.0
490.66296,378.8689,126747128,0.8,0.10638297,486.4889,-192.14197,-1.7891824E-4,-0.015924037,-0.032141685,0.0,0.0,0.0
497.6286,377.03003,126747145,0.825,0.08510638,465.90173,-82.28119,-1.7891824E-4,-0.015924037,-0.032141685,0.0,0.0,0.0
503.55432,376.60168,126747162,0.83750004,0.09574468,408.00458,5.737434,-1.7891824E-4,-0.015924037,-0.032141685,0.0,0.0,0.0
506.86255,376.60168,126747178,0.83750004,0.11702127,269.9331,69.63914,-1.7891824E-4,-0.015924037,-0.032141685,0.0,0.0,0.0
509.08374,376.60168,126747195,0.875,0.11702127,108.40828,84.03331,-1.7891824E-4,-0.015924037,-0.032141685,0.0,0.0,0.0
509.8119,376.60168,126747212,0.9125,0.11702127,-13.995465,60.604073,-1.7891824E-4,-0.015924037,-0.032141685,0.0,0.0,0.0
509.8119,378.31567,126747229,0.925,0.11702127,-92.723854,65.76396,-1.7891824E-4,-0.015924037,-0.032141685,0.0,0.0,0.0
508.8023,381.07947,126747245,0.9875,0.12765957,-114.270584,136.57344,-1.7891824E-4,-0.015924037,-0.032141685,0.0,0.0,0.0
506.16077,383.79993,126747262,0.96250004,0.12765957,-172.54207,215.45079,-1.7891824E-4,-0.015924037,-0.032141685,0.0,0.0,0.0
500.52502,388.4098,126747279,0.9375,0.12765957,-302.30072,283.9257,-1.7891824E-4,-0.015924037,-0.032141685,0.0,0.0,0.0
491.8869,393.89685,126747295,0.8625,0.12765957,-477.32794,339.7401,-1.7891824E-4,-0.015924037,-0.032141685,0.0,0.0,0.0
483.59277,397.58276,126747312,0.8125,0.12765957,-644.8582,339.6633,-1.7891824E-4,-0.015924037,-0.032141685,0.0,0.0,0.0
471.29767,401.30847,126747329,0.8,0.10638297,-770.4026,291.41525,-1.7891824E-4,-0.015924037,-0.032141685,0.0,0.0,0.0
456.86298,405.0238,126747346,0.825,0.10638297,-923.92786,219.18668,-1.7891824E-4,-0.015924037,-0.032141685,0.0,0.0,0.0
444.925,410.13818,126747362,0.8125,0.12765957,-944.09283,219.90799,-1.7891824E-4,-0.015924037,-0.032141685,0.0,0.0,0.0
433.42847,419.16846,126747379,0.7875,0.11702127,-810.178,399.1083,-1.7891824E-4,-0.015924037,-0.032141685,0.0,0.0,0.0
420.19122,432.47583,126747396,0.7875,0.10638297,-738.50854,701.77295,-1.7891824E-4,-0.015924037,-0.032141685,0.0,0.0,0.0
407.8196,446.46985,126747412,0.77500004,0.10638297,-707.2285,984.0335,-1.7891824E-4,-0.015924037,-0.032141685,0.0,0.0,0.0
395.67993,468.10168,126747429,0.77500004,0.09574468,-736.10516,1210.8225,-1.4314055E-4,0.0032607615,-0.009714127,0.0,0.0,0.0
387.92377,486.61572,126747446,0.7625,0.08510638,-642.9854,1418.435,-1.4314055E-4,0.0032607615,-0.009714127,0.0,0.0,0.0
384.789,499.5542,126747463,0.7625,0.12765957,-314.03305,1210.0903,-1.4314055E-4,0.0032607615,-0.009714127,0.0,0.0,0.0
384.35275,511.55603,126747479,0.7625,0.12765957,16.321356,876.6285,-1.4314055E-4,0.0032607615,-0.009714127,0.0,0.0,0.0
387.795,519.7471,126747496,0.7875,0.08510638,302.19757,479.6027,-1.4314055E-4,0.0032607615,-0.009714127,0.0,0.0,0.0
393.2808,525.0386,126747513,0.77500004,0.08510638,504.51404,158.52557,-1.4314055E-4,0.0032607615,-0.009714127,0.0,0.0,0.0
403.40512,532.5315,126747529,0.8,0.08510638,666.10645,197.38846,-1.4314055E-4,0.0032607615,-0.009714127,0.0,0.0,0.0
415.2763,538.6238,126747546,0.77500004,0.11702127,846.648,279.22345,-1.4314055E-4,0.0032607615,-0.009714127,0.0,0.0,0.0
428.8443,541.8633,126747563,0.8,0.10638297,980.8389,273.33704,-1.4314055E-4,0.0032607615,-0.009714127,0.0,0.0,0.0
447.05658,540.7711,126747580,0.8,0.08510638,1124.6648,59.93847,-1.4314055E-4,0.0032607615,-0.009714127,0.0,0.0,0.0
464.54358,534.5237,126747596,0.77500004,0.12765957,1204.886,-327.99915,-1.4314055E-4,0.0032607615,-0.009714127,0.0,0.0,0.0
483.98364,523.54016,126747613,0.8,0.12765957,1281.4868,-733.9549,-1.4314055E-4,0.0032607615,-0.009714127,0.0,0.0,0.0
496.03607,514.9359,126747630,0.85,0.11702127,1097.2675,-897.5328,-1.4314055E-4,0.0032607615,-0.009714127,0.0,0.0,0.0
503.6358,506.57642,126747646,0.8625,0.10638297,665.5271,-801.2236,-1.4314055E-4,0.0032607615,-0.009714127,0.0,0.0,0.0
508.36743,494.62598,126747663,0.875,0.11702127,192.87192,-686.5582,-1.4314055E-4,0.0032607615,-0.009714127,0.0,0.0,0.0
512.50543,477.0276,126747680,0.8625,0.11702127,-21.534693,-860.9535,-1.4314055E-4,0.0032607615,-0.009714127,0.0,0.0,0.0
514.9865,462.57825,126747697,0.825,0.10638297,-50.027184,-1064.1559,-1.4314055E-4,0.0032607615,-0.009714127,0.0,0.0,0.0
517.64056,452.92053,126747713,0.85,0.10638297,22.022038,-970.26605,-1.4314055E-4,0.0032607615,-0.009714127,0.0,0.0,0.0
520.88043,442.43335,126747730,0.83750004,0.12765957,90.691505,-702.86884,-1.4314055E-4,0.0032607615,-0.009714127,0.0,0.0,0.0
523.71313,429.88635,126747747,0.83750004,0.12765957,136.76591,-546.09546,-1.4314055E-4,0.0032607615,-0.009714127,0.0,0.0,0.0
525.5466,422.41382,126747763,0.8625,0.14893617,157.93317,-518.8238,-1.4314055E-4,0.0032607615,-0.009714127,0.0,0.0,0.0
526.3065,418.75378,126747780,0.875,0.14893617,88.12096,-377.2852,-1.4314055E-4,0.0032607615,-0.009714127,0.0,0.0,0.0
526.3065,417.4729,126747797,0.8875,0.12765957,-19.844316,-44.95648,-1.4314055E-4,0.0032607615,-0.009714127,0.0,0.0,0.0
526.3065,418.09985,126747813,0.925,0.12765957,-66.94893,212.93494,-1.4314055E-4,0.0032607615,-0.009714127,0.0,0.0,0.0
525.52783,422.90674,126747830,0.975,0.14893617,-71.97606,349.0349,-1.4314055E-4,0.0032607615,-0.009714127,0.0,0.0,0.0
523.0111,433.63135,126747847,0.95,0.12765957,-116.567726,586.50604,-1.4314055E-4,0.0032607615,-0.009714127,0.0,0.0,0.0
520.3316,443.15735,126747864,0.90000004,0.12765957,-192.50677,832.9619,-1.4314055E-4,0.0032607615,-0.009714127,0.0,0.0,0.0
518.7697,451.4453,126747880,0.7625,0.10638297,-193.59094,792.77783,-1.4314055E-4,0.0032607615,-0.009714127,0.0,0.0,0.0
517.80927,469.51074,126747897,0.75,0.08510638,-133.21971,905.52924,-1.4314055E-4,0.0032607615,-0.009714127,0.0,0.0,0.0
519.5151,487.72156,126747914,0.7625,0.10638297,22.470924,1107.4489,-1.4314055E-4,0.0032607615,-0.009714127,0.0,0.0,0.0
523.39026,503.32214,126747930,0.7625,0.12765957,210.38373,1222.9347,-1.4314055E-4,0.0032607615,-0.009714127,0.0,0.0,0.0
528.8564,517.69775,126747947,0.75,0.11702127,367.7681,1168.9061,-1.4314055E-4,0.0032607615,-0.009714127,0.0,0.0,0.0
535.226,531.9519,126747964,0.75,0.09574468,485.79318,828.6204,-1.4314055E-4,0.0032607615,-0.009714127,0.0,0.0,0.0
542.2849,544.06274,126747981,0.75,0.09574468,525.2368,707.96765,-1.4314055E-4,0.0032607615,-0.009714127,0.0,0.0,0.0
550.68976,551.7484,126747997,0.7625,0.10638297,530.1603,534.28485,-0.01611451,0.034608617,0.040228844,0.0,0.0,0.0
563.0962,557.146,126748014,0.75,0.10638297,638.1118,289.58813,-0.01611451,0.034608617,0.040228844,0.0,0.0,0.0
580.52075,558.19116,126748031,0.77500004,0.12765957,913.07996,19.015125,-0.01611451,0.034608617,0.040228844,0.0,0.0,0.0
603.5139,551.20105,126748047,0.8125,0.10638297,1325.1925,-330.79608,-0.01611451,0.034608617,0.040228844,0.0,0.0,0.0
623.7725,538.6998,126748064,0.825,0.10638297,1636.6194,-783.6248,-0.01611451,0.034608617,0.040228844,0.0,0.0,0.0
637.4,524.83997,126748081,0.83750004,0.14893617,1314.143,-1152.8948,-0.01611451,0.034608617,0.040228844,0.0,0.0,0.0
648.57245,511.292,126748098,0.8625,0.12765957,830.60254,-1203.1511,-0.01611451,0.034608617,0.040228844,0.0,0.0,0.0
667.3251,474.4441,126748114,0.83750004,0.11702127,666.305,-1643.803,-0.01611451,0.034608617,0.040228844,0.0,0.0,0.0
675.01385,458.55432,126748131,0.8125,0.12765957,603.45667,-1805.2561,-0.01611451,0.034608617,0.040228844,0.0,0.0,0.0
690.3755,412.30725,126748148,0.83750004,0.14893617,758.9513,-2384.6892,-0.01611451,0.034608617,0.040228844,0.0,0.0,0.0
693.3906,391.32654,126748164,0.825,0.12765957,513.09985,-2240.4153,-0.01611451,0.034608617,0.040228844,0.0,0.0,0.0
696.95245,358.08887,126748181,0.8125,0.14893617,83.34629,-1875.2399,-0.01611451,0.034608617,0.040228844,0.0,0.0,0.0
699.6401,333.552,126748198,0.8,0.11702127,-87.50622,-1617.6128,-0.01611451,0.034608617,0.040228844,0.0,0.0,0.0
703.7802,302.5763,126748215,0.8,0.14893617,-16.747503,-1571.7998,-0.01611451,0.034608617,0.040228844,0.0,0.0,0.0
705.09534,281.5127,126748231,0.8125,0.11702127,116.55665,-1534.7657,-0.01611451,0.034608617,0.040228844,0.0,0.0,0.0
704.4836,255.81445,126748248,0.825,0.14893617,38.668854,-1349.3152,-0.01611451,0.034608617,0.040228844,0.0,0.0,0.0
701.9615,240.65198,126748265,0.825,0.12765957,-130.24753,-1119.037,-0.01611451,0.034608617,0.040228844,0.0,0.0,0.0
699.27954,231.87988,126748281,0.83750004,0.11702127,-290.52905,-658.63257,-0.01611451,0.034608617,0.040228844,0.0,0.0,0.0
696.18384,222.69104,126748298,0.825,0.12765957,-293.2778,-287.72336,-0.01611451,0.034608617,0.040228844,0.0,0.0,0.0
692.55566,216.43811,126748315,0.85,0.12765957,-272.41855,-105.969345,-0.01611451,0.034608617,0.040228844,0.0,0.0,0.0
688.4517,208.13782,126748332,0.83750004,0.12765957,-264.2383,-170.13239,-0.01611451,0.034608617,0.040228844,0.0,0.0,0.0
684.6708,202.56506,126748348,0.875,0.12765957,-256.27502,-297.1337,-0.01611451,0.034608617,0.040228844,0.0,0.0,0.0
679.2998,198.22095,126748365,0.8625,0.11702127,-295.1752,-266.9197,-0.01611451,0.034608617,0.040228844,0.0,0.0,0.0
675.0872,196.2356,126748382,0.875,0.10638297,-304.9614,-137.36853,-0.01611451,0.034608617,0.040228844,0.0,0.0,0.0
671.46375,197.59534,126748398,0.90000004,0.12765957,-270.37448,62.564285,-0.01611451,0.034608617,0.040228844,0.0,0.0,0.0
666.65674,204.06274,126748415,0.90000004,0.12765957,-243.09056,305.78375,-0.01611451,0.034608617,0.040228844,0.0,0.0,0.0
661.7684,216.6499,126748432,0.90000004,0.12765957,-265.55807,747.84644,-0.01611451,0.034608617,0.040228844,0.0,0.0,0.0
659.91064,226.28369,126748448,0.83750004,0.12765957,-226.3463,957.42,-0.01611451,0.034608617,0.040228844,0.0,0.0,0.0
658.457,241.43555,126748465,0.75,0.12765957,-115.84889,993.7822,-0.01611451,0.034608617,0.040228844,0.0,0.0,0.0
655.85767,270.26587,126748482,0.7375,0.08510638,-43.369423,1372.4025,-0.01611451,0.034608617,0.040228844,0.0,0.0,0.0
654.7647,302.09375,126748499,0.7625,0.08510638,-31.980043,1982.5278,-0.01611451,0.034608617,0.040228844,0.0,0.0,0.0
653.81555,337.34753,126748515,0.75,0.12765957,-61.024143,2503.9502,-0.01611451,0.034608617,0.040228844,0.0,0.0,0.0
653.765,378.47058,126748532,0.75,0.08510638,-16.752058,2765.0942,-0.01611451,0.034608617,0.040228844,0.0,0.0,0.0
654.14154,416.51526,126748549,0.75,0.08510638,57.713448,2665.6887,0.019108385,0.011686891,1.8310547E-4,0.0,0.0,0.0
652.95154,457.0902,126748565,0.75,0.12765957,34.57265,2627.1917,0.019108385,0.011686891,1.8310547E-4,0.0,0.0,0.0
650.1541,495.60498,126748582,0.725,0.11702127,-78.618935,2531.522,0.019108385,0.011686891,1.8310547E-4,0.0,0.0,0.0
648.0426,529.60986,126748599,0.7375,0.09574468,-199.56189,2215.1267,0.019108385,0.011686891,1.8310547E-4,0.0,0.0,0.0
645.6954,556.47034,126748616,0.7375,0.12765957,-213.24716,1783.8795,0.019108385,0.011686891,1.8310547E-4,0.0,0.0,0.0
643.7683,573.3938,126748632,0.725,0.09574468,-165.42963,1116.8236,0.019108385,0.011686891,1.8310547E-4,0.0,0.0,0.0
643.26843,585.2081,126748649,0.6875,0.08510638,-75.63847,528.07324,0.019108385,0.011686891,1.8310547E-4,0.0,0.0,0.0
642.7686,590.3165,126748666,0.71250004,0.09574468,-7.805159,9.070791,0.019108385,0.011686891,1.8310547E-4,0.0,0.0,0.0
642.7686,591.6195,126748682,0.77500004,0.09574468,31.03669,-287.62277,0.019108385,0.011686891,1.8310547E-4,0.0,0.0,0.0
643.7348,589.9021,126748699,0.90000004,0.12765957,61.48497,-405.82657,0.019108385,0.011686891,1.8310547E-4,0.0,0.0,0.0
649.9066,578.931,126748716,0.875,0.12765957,231.88646,-669.18036,0.019108385,0.011686891,1.8310547E-4,0.0,0.0,0.0
660.19556,553.8729,126748733,0.85,0.10638297,555.2651,-1319.1487,0.019108385,0.011686891,1.8310547E-4,0.0,0.0,0.0
668.6598,525.51636,126748749,0.8,0.11702127,733.50916,-1958.294,0.019108385,0.011686891,1.8310547E-4,0.0,0.0,0.0
676.6613,510.2777,126748766,0.8125,0.10638297,732.8549,-1984.7847,0.019108385,0.011686891,1.8310547E-4,0.0,0.0,0.0
697.321,474.54126,126748783,0.8,0.12765957,906.17737,-1956.0486,0.019108385,0.011686891,1.8310547E-4,0.0,0.0,0.0
719.5943,450.13208,126748799,0.825,0.10638297,1313.7072,-1721.445,0.019108385,0.011686891,1.8310547E-4,0.0,0.0,0.0
740.4255,427.9486,126748816,0.8,0.14893617,1659.205,-1628.0417,0.019108385,0.011686891,1.8310547E-4,0.0,0.0,0.0
757.4848,413.8849,126748833,0.825,0.12765957,1501.6765,-1222.651,0.019108385,0.011686891,1.8310547E-4,0.0,0.0,0.0
769.3245,408.89954,126748850,0.85,0.11702127,966.1309,-407.85135,0.019108385,0.011686891,1.8310547E-4,0.0,0.0,0.0
775.647,408.5879,126748866,0.83750004,0.11702127,386.6313,276.79092,0.019108385,0.011686891,1.8310547E-4,0.0,0.0,0.0
777.6241,410.89587,126748883,0.8625,0.11702127,-16.435324,552.2951,0.019108385,0.011686891,1.8310547E-4,0.0,0.0,0.0
776.4182,422.00317,126748900,0.8875,0.11702127,-279.18045,779.0103,0.019108385,0.011686891,1.8310547E-4,0.0,0.0,0.0
770.69415,434.41272,126748916,0.75,0.10638297,-499.54388,993.54663,0.019108385,0.011686891,1.8310547E-4,0.0,0.0,0.0
763.8904,447.3955,126748933,0.7,0.12765957,-619.53784,1084.2839,0.019108385,0.011686891,1.8310547E-4,0.0,0.0,0.0
751.4048,467.5183,126748950,0.71250004,0.08510638,-813.7815,1285.085,0.019108385,0.011686891,1.8310547E-4,0.0,0.0,0.0
728.3482,493.11438,126748967,0.725,0.10638297,-1207.3188,1501.2378,0.019108385,0.011686891,1.8310547E-4,0.0,0.0,0.0
704.7002,515.98193,126748983,0.725,0.11702127,-1634.6879,1652.4305,0.019108385,0.011686891,1.8310547E-4,0.0,0.0,0.0
677.8056,537.5641,126749000,0.725,0.08510638,-1940.5847,1670.8279,0.019108385,0.011686891,1.8310547E-4,0.0,0.0,0.0
661.3491,548.92004,126749017,0.7625,0.10638297,-1653.272,1096.2175,0.019108385,0.011686891,1.8310547E-4,0.0,0.0,0.0
652.57697,554.41406,126749033,0.7625,0.12765957,-894.6062,417.7354,0.019108385,0.011686891,1.8310547E-4,0.0,0.0,0.0
648.4527,556.5615,126749050,0.8125,0.12765957,-111.0013,-150.87425,0.019108385,0.011686891,1.8310547E-4,0.0,0.0,0.0
646.94257,556.9679,126749067,0.825,0.12765957,303.03983,-367.36404,0.019108385,0.011686891,1.8310547E-4,0.0,0.0,0.0
646.76733,556.9679,126749084,0.8125,0.12765957,369.68137,-315.2775,0.019108385,0.011686891,1.8310547E-4,0.0,0.0,0.0
652.1067,558.5985,126749100,0.77500004,0.12765957,357.31024,-133.7037,0.019108385,0.011686891,1.8310547E-4,0.0,0.0,0.0
669.8649,562.22876,126749117,0.75,0.10638297,758.9416,64.10356,0.023286715,-0.0066504925,0.016145706,0.0,0.0,0.0
689.0917,565.91614,126749134,0.7625,0.12765957,1354.263,246.8493,0.023286715,-0.0066504925,0.016145706,0.0,0.0,0.0
712.03973,568.7274,126749150,0.77500004,0.10638297,1732.9996,284.02838,0.023286715,-0.0066504925,0.016145706,0.0,0.0,0.0
732.757,568.51843,126749167,0.77500004,0.12765957,1745.1511,154.48233,0.023286715,-0.0066504925,0.016145706,0.0,0.0,0.0
752.3714,568.28394,126749184,0.7875,0.12765957,1453.2396,-15.020756,0.023286715,-0.0066504925,0.016145706,0.0,0.0,0.0
771.1937,566.4313,126749200,0.7625,0.09574468,1211.4839,-147.46513,0.023286715,-0.0066504925,0.016145706,0.0,0.0,0.0
786.06494,564.18726,126749217,0.7875,0.11702127,999.6751,-208.12766,0.023286715,-0.0066504925,0.016145706,0.0,0.0,0.0
801.7619,560.51184,126749234,0.7875,0.14893617,818.9019,-245.49619,0.023286715,-0.0066504925,0.016145706,0.0,0.0,0.0
819.2339,554.90186,126749251,0.7875,0.10638297,834.9695,-325.252,0.023286715,-0.0066504925,0.016145706,0.0,0.0,0.0
837.49347,545.0604,126749267,0.8,0.11702127,967.41077,-501.86462,0.023286715,-0.0066504925,0.016145706,0.0,0.0,0.0
859.707,530.48413,126749284,0.77500004,0.14893617,1216.6508,-800.6989,0.023286715,-0.0066504925,0.016145706,0.0,0.0,0.0
884.2446,515.7024,126749301,0.77500004,0.11702127,1479.0342,-1072.6545,0.023286715,-0.0066504925,0.016145706,0.0,0.0,0.0
910.4415,501.09753,126749317,0.7625,0.12765957,1607.8588,-1113.4673,0.023286715,-0.0066504925,0.016145706,0.0,0.0,0.0
941.0823,481.5017,126749334,0.7625,0.10638297,1887.4858,-1187.2565,0.023286715,-0.0066504925,0.016145706,0.0,0.0,0.0
963.9115,466.80652,126749351,0.7875,0.14893617,1801.7551,-1117.2996,0.023286715,-0.0066504925,0.016145706,0.0,0.0,0.0
977.53503,460.5852,126749368,0.77500004,0.11702127,1293.1261,-761.7939,0.023286715,-0.0066504925,0.016145706,0.0,0.0,0.0
984.9966,458.14307,126749384,0.8125,0.11702127,594.4856,-265.72238,0.023286715,-0.0066504925,0.016145706,0.0,0.0,0.0
986.6566,457.45557,126749401,0.8625,0.12765957,-115.74467,200.76193,0.023286715,-0.0066504925,0.016145706,0.0,0.0,0.0
985.9629,457.45557,126749418,0.90000004,0.12765957,-461.00613,354.13193,0.023286715,-0.0066504925,0.016145706,0.0,0.0,0.0
982.26794,459.18372,126749434,0.90000004,0.14893617,-494.43344,224.0136,0.023286715,-0.0066504925,0.016145706,0.0,0.0,0.0
970.3135,465.62903,126749451,0.85,0.12765957,-691.6844,321.53183,0.023286715,-0.0066504925,0.016145706,0.0,0.0,0.0
953.4,472.37415,126749468,0.7875,0.10638297,-1041.5507,499.89246,0.023286715,-0.0066504925,0.016145706,0.0,0.0,0.0
931.14874,480.65002,126749485,0.8,0.12765957,-1493.1808,608.83636,0.023286715,-0.0066504925,0.016145706,0.0,0.0,0.0
904.9742,492.3296,126749501,0.8,0.12765957,-1802.6865,726.43665,0.023286715,-0.0066504925,0.016145706,0.0,0.0,0.0
883.2172,501.2423,126749518,0.7875,0.12765957,-1795.9718,721.4266,0.023286715,-0.0066504925,0.016145706,0.0,0.0,0.0
863.3429,511.3098,126749535,0.8,0.12765957,-1490.1937,662.5212,0.023286715,-0.0066504925,0.016145706,0.0,0.0,0.0
844.9829,524.25415,126749551,0.7875,0.09574468,-1184.0786,729.52026,0.023286715,-0.0066504925,0.016145706,0.0,0.0,0.0
832.1582,537.15295,126749568,0.7875,0.10638297,-855.1626,784.219,0.023286715,-0.0066504925,0.016145706,0.0,0.0,0.0
823.5013,547.2052,126749585,0.7625,0.12765957,-528.3671,782.9986,0.023286715,-0.0066504925,0.016145706,0.0,0.0,0.0
816.6859,559.7261,126749602,0.7625,0.12765957,-281.43118,741.109,0.023286715,-0.0066504925,0.016145706,0.0,0.0,0.0
813.88116,572.06384,126749618,0.7625,0.11702127,-26.291658,714.8191,0.023286715,-0.0066504925,0.016145706,0.0,0.0,0.0
815.14215,579.819,126749635,0.7375,0.08510638,159.25793,620.7714,0.023286715,-0.0066504925,0.016145706,0.0,0.0,0.0
818.9963,585.43555,126749652,0.7375,0.08510638,326.0958,421.35986,0.023286715,-0.0066504925,0.016145706,0.0,0.0,0.0
829.2742,592.4076,126749668,0.75,0.08510638,621.08,244.35587,-0.037370637,-0.03732039,-0.06708336,0.0,0.0,0.0
845.7794,597.5144,126749685,0.7625,0.10638297,1022.6951,186.30855,-0.037370637,-0.03732039,-0.06708336,0.0,0.0,0.0
864.4045,597.24304,126749702,0.77500004,0.12765957,1320.4152,115.09948,-0.037370637,-0.03732039,-0.06708336,0.0,0.0,0.0
883.6026,592.2742,126749719,0.77500004,0.08510638,1481.5803,-189.90701,-0.037370637,-0.03732039,-0.06708336,0.0,0.0,0.0
900.2489,585.0232,126749735,0.8125,0.12765957,1401.4075,-561.1516,-0.037370637,-0.03732039,-0.06708336,0.0,0.0,0.0
917.10754,573.89734,126749752,0.8125,0.14893617,1131.5884,-834.7551,-0.037370637,-0.03732039,-0.06708336,0.0,0.0,0.0
930.0058,564.6974,126749769,0.825,0.11702127,867.8468,-837.7137,-0.037370637,-0.03732039,-0.06708336,0.0,0.0,0.0
941.7633,547.9193,126749785,0.8125,0.11702127,665.04974,-942.2307,-0.037370637,-0.03732039,-0.06708336,0.0,0.0,0.0
955.04846,521.6382,126749802,0.8125,0.12765957,659.3167,-1436.2024,-0.037370637,-0.03732039,-0.06708336,0.0,0.0,0.0
965.5354,498.9662,126749819,0.83750004,0.14893617,579.28394,-1617.5974,-0.037370637,-0.03732039,-0.06708336,0.0,0.0,0.0
971.42395,478.3971,126749835,0.825,0.14893617,424.86896,-1654.8969,-0.037370637,-0.03732039,-0.06708336,0.0,0.0,0.0
973.3938,467.76477,126749852,0.85,0.14893617,157.27847,-1087.2455,-0.037370637,-0.03732039,-0.06708336,0.0,0.0,0.0
973.6609,464.07874,126749869,0.8625,0.14893617,-116.21999,-316.36487,-0.037370637,-0.03732039,-0.06708336,0.0,0.0,0.0
973.34766,462.22986,126749886,0.8875,0.14893617,-190.74513,109.74905,-0.037370637,-0.03732039,-0.06708336,0.0,0.0,0.0
972.3103,461.89807,126749902,0.95,0.14893617,-240.15755,466.07727,-0.037370637,-0.03732039,-0.06708336,0.0,0.0,0.0
968.69434,468.7605,126749919,0.9375,0.14893617,-216.604,453.11096,-0.037370637,-0.03732039,-0.06708336,0.0,0.0,0.0
963.45386,482.3214,126749936,0.8875,0.12765957,-315.9251,738.24976,-0.037370637,-0.03732039,-0.06708336,0.0,0.0,0.0
960.24805,491.02258,126749952,0.7875,0.10638297,-364.7051,974.7191,-0.037370637,-0.03732039,-0.06708336,0.0,0.0,0.0
957.6437,507.43127,126749969,0.71250004,0.10638297,-276.96805,1069.8694,-0.037370637,-0.03732039,-0.06708336,0.0,0.0,0.0
956.61487,526.7849,126749986,0.71250004,0.08510638,-122.28446,1207.3287,-0.037370637,-0.03732039,-0.06708336,0.0,0.0,0.0
957.54517,543.34607,126750003,0.725,0.08510638,46.219765,1236.4641,-0.037370637,-0.03732039,-0.06708336,0.0,0.0,0.0
960.58276,561.8594,126750019,0.7,0.12765957,190.73718,1312.4313,-0.037370637,-0.03732039,-0.06708336,0.0,0.0,0.0
965.85864,580.7623,126750036,0.7,0.09574468,346.76923,1238.544,-0.037370637,-0.03732039,-0.06708336,0.0,0.0,0.0
970.6366,588.67456,126750053,0.6875,0.09574468,420.6935,823.09674,-0.037370637,-0.03732039,-0.06708336,0.0,0.0,0.0
978.9269,594.7378,126750069,0.71250004,0.10638297,482.5204,357.49704,-0.037370637,-0.03732039,-0.06708336,0.0,0.0,0.0
991.85596,596.4591,126750086,0.75,0.08510638,667.3666,-47.412395,-0.037370637,-0.03732039,-0.06708336,0.0,0.0,0.0
1007.02783,590.68774,126750103,0.7875,0.10638297,930.19745,-402.94183,-0.037370637,-0.03732039,-0.06708336,0.0,0.0,0.0
1021.9658,579.33984,126750120,0.8,0.14893617,1116.4171,-775.9672,-0.037370637,-0.03732039,-0.06708336,0.0,0.0,0.0
1031.8293,569.18494,126750136,0.825,0.12765957,960.5919,-977.66943,-0.037370637,-0.03732039,-0.06708336,0.0,0.0,0.0
1040.4647,556.3893,126750153,0.825,0.10638297,618.2706,-1032.9463,-0.037370637,-0.03732039,-0.06708336,0.0,0.0,0.0
1053.4785,520.1234,126750170,0.77500004,0.11702127,503.10522,-1552.9034,-0.037370637,-0.03732039,-0.06708336,0.0,0.0,0.0
1063.4648,495.80945,126750186,0.7875,0.12765957,555.6214,-2002.3992,-0.037370637,-0.03732039,-0.06708336,0.0,0.0,0.0
1079.3395,450.32947,126750203,0.8,0.12765957,806.3889,-2711.2817,-0.037370637,-0.03732039,-0.06708336,0.0,0.0,0.0
1086.4319,406.7201,126750220,0.77500004,0.12765957,776.5874,-3078.8506,-0.037370637,-0.03732039,-0.06708336,0.0,0.0,0.0
1089.0796,382.59143,126750237,0.77500004,0.11702127,388.80328,-2481.9375,-0.013896503,0.002143681,0.082333565,0.0,0.0,0.0
1091.338,348.64722,126750253,0.7375,0.12765957,33.132935,-1974.9161,-0.013896503,0.002143681,0.082333565,0.0,0.0,0.0
1092.5778,327.88135,126750270,0.7625,0.08510638,-225.64615,-1185.263,-0.013896503,0.002143681,0.082333565,0.0,0.0,0.0
1093.122,300.43933,126750287,0.7375,0.12765957,-99.31215,-1253.7697,-0.013896503,0.002143681,0.082333565,0.0,0.0,0.0
1091.9492,283.20557,126750303,0.7625,0.09574468,-61.520424,-1187.1177,-0.013896503,0.002143681,0.082333565,0.0,0.0,0.0
1089.7521,258.78845,126750320,0.7625,0.12765957,-151.30348,-1085.1333,-0.013896503,0.002143681,0.082333565,0.0,0.0,0.0
1087.3662,243.51453,126750337,0.77500004,0.12765957,-212.98817,-1091.6644,-0.013896503,0.002143681,0.082333565,0.0,0.0,0.0
1084.9032,233.48914,126750354,0.77500004,0.11702127,-228.66745,-711.0062,-0.013896503,0.002143681,0.082333565,0.0,0.0,0.0
1082.6996,226.64246,126750370,0.8,0.11702127,-188.84294,-357.53488,-0.013896503,0.002143681,0.082333565,0.0,0.0,0.0
1081.1189,224.6615,126750387,0.83750004,0.12765957,-123.6093,47.041977,-0.013896503,0.002143681,0.082333565,0.0,0.0,0.0
1079.5404,224.66772,126750404,0.875,0.12765957,-84.74701,254.53654,-0.013896503,0.002143681,0.082333565,0.0,0.0,0.0
1077.3857,225.6991,126750420,0.8875,0.14893617,-89.48463,261.7883,-0.013896503,0.002143681,0.082333565,0.0,0.0,0.0
1072.1641,236.56848,126750437,0.875,0.12765957,-202.69879,537.61926,-0.013896503,0.002143681,0.082333565,0.0,0.0,0.0
1069.7953,251.9226,126750454,0.7875,0.10638297,-258.25464,919.3007,-0.013896503,0.002143681,0.082333565,0.0,0.0,0.0
1066.7196,271.01697,126750470,0.6875,0.08510638,-245.68343,1276.1006,-0.013896503,0.002143681,0.082333565,0.0,0.0,0.0
1065.3779,300.99194,126750487,0.7,0.09574468,-139.5561,1833.3428,-0.013896503,0.002143681,0.082333565,0.0,0.0,0.0
1067.2794,331.96887,126750504,0.71250004,0.08510638,48.411037,2168.6611,-0.013896503,0.002143681,0.082333565,0.0,0.0,0.0
1071.93,364.95203,126750521,0.725,0.08510638,245.23924,2310.1504,-0.013896503,0.002143681,0.082333565,0.0,0.0,0.0
1078.5896,399.43518,126750537,0.725,0.12765957,462.653,2324.445,-0.013896503,0.002143681,0.082333565,0.0,0.0,0.0
1086.7565,432.7444,126750554,0.725,0.09574468,615.0168,2144.4797,-0.013896503,0.002143681,0.082333565,0.0,0.0,0.0
1095.4359,462.5796,126750571,0.71250004,0.12765957,631.60736,1958.0858,-0.013896503,0.002143681,0.082333565,0.0,0.0,0.0
1106.2539,490.3783,126750587,0.7375,0.08510638,670.41095,1706.3815,-0.013896503,0.002143681,0.082333565,0.0,0.0,0.0
1113.8135,503.08215,126750604,0.75,0.12765957,637.04425,1131.8302,-0.013896503,0.002143681,0.082333565,0.0,0.0,0.0
1125.3334,519.05786,126750621,0.7625,0.11702127,653.52466,710.79144,-0.013896503,0.002143681,0.082333565,0.0,0.0,0.0
1136.8132,532.4509,126750638,0.7375,0.10638297,698.41003,489.1898,-0.013896503,0.002143681,0.082333565,0.0,0.0,0.0
1146.089,538.78894,126750654,0.7375,0.09574468,668.556,309.06473,-0.013896503,0.002143681,0.082333565,0.0,0.0,0.0
1159.1643,541.2368,126750671,0.725,0.08510638,721.3016,125.24108,-0.013896503,0.002143681,0.082333565,0.0,0.0,0.0
1182.5789,537.0436,126750688,0.6875,0.11702127,1000.01154,-200.93277,-0.013896503,0.002143681,0.082333565,0.0,0.0,0.0
1207.5847,524.9818,126750701,0.2875,0.10638297,1505.8674,-704.92786,-0.013896503,0.002143681,0.082333565,0.0,0.0,0.0
1207.5847,524.9818,126750707,0.2875,0.10638297,1505.8674,-704.92786,-0.013896503,0.002143681,0.082333565,0.0,0.0,0.0
969.16235,404.1454,126750925,0.8875,0.14893617,0.0,0.0,0.0048827976,0.017714947,-0.0061330795,0.0,0.0,0.0
969.16235,404.1454,126750955,0.875,0.14893617,-0.012191656,-0.0068448996,0.0048827976,0.017714947,-0.0061330795,0.0,0.0,0.0
983.6852,402.74988,126750972,0.7875,0.12765957,933.1253,-89.725784,0.0048827976,0.017714947,-0.0061330795,0.0,0.0,0.0
1005.0596,403.14917,126750989,0.7875,0.11702127,1747.1201,-60.41724,0.0048827976,0.017714947,-0.0061330795,0.0,0.0,0.0
1028.1401,404.9994,126751005,0.75,0.14893617,1917.0973,53.211685,0.0048827976,0.017714947,-0.0061330795,0.0,0.0,0.0
1058.7286,407.73718,126751022,0.65000004,0.10638297,2157.5828,156.42938,0.0048827976,0.017714947,-0.0061330795,0.0,0.0,0.0
1108.7826,405.4436,126751039,0.2875,0.09574468,2740.3562,115.13973,0.0048827976,0.017714947,-0.0061330795,0.0,0.0,0.0
1108.7826,405.4436,126751045,0.2875,0.09574468,2740.3562,115.13973,0.0048827976,0.017714947,-0.0061330795,0.0,0.0,0.0
1245.0725,473.4486,126751392,0.8,0.12765957,0.0,0.0,0.003906235,-0.0018280447,-0.020906448,0.0,0.0,0.0
1245.0725,473.4486,126751422,0.8625,0.14893617,-0.01628347,-0.008217864,0.003906235,-0.0018280447,-0.020906448,0.0,0.0,0.0
1245.0725,473.4486,126751440,0.85,0.14893617,-0.049494393,-0.019050086,0.003906235,-0.0018280447,-0.020906448,0.0,0.0,0.0
1245.0725,473.4486,126751456,0.8125,0.10638297,-0.039166305,-0.014304453,0.003906235,-0.0018280447,-0.020906448,0.0,0.0,0.0
1222.4082,477.9165,126751473,0.7,0.09574468,-898.28174,179.32884,0.003906235,-0.0018280447,-0.020906448,0.0,0.0,0.0
1212.5938,479.76477,126751490,0.71250004,0.10638297,-1076.674,208.59409,0.003906235,-0.0018280447,-0.020906448,0.0,0.0,0.0
1204.9158,484.62073,126751506,0.71250004,0.11702127,-1020.16296,284.53622,0.003906235,-0.0018280447,-0.020906448,0.0,0.0,0.0
1197.644,491.2887,126751523,0.6875,0.11702127,-658.01843,382.8371,0.003906235,-0.0018280447,-0.020906448,0.0,0.0,0.0
1191.9366,498.89172,126751540,0.7,0.12765957,-243.82951,460.1831,0.003906235,-0.0018280447,-0.020906448,0.0,0.0,0.0
1186.0378,512.87354,126751557,0.6875,0.10638297,-141.27725,721.42725,0.003906235,-0.0018280447,-0.020906448,0.0,0.0,0.0
1182.8463,528.9238,126751573,0.675,0.08510638,-229.44846,1034.893,0.003906235,-0.0018280447,-0.020906448,0.0,0.0,0.0
1183.1742,543.703,126751590,0.7,0.08510638,-54.717392,1167.2463,0.003906235,-0.0018280447,-0.020906448,0.0,0.0,0.0
1186.0801,554.56396,126751607,0.6875,0.12765957,191.65367,1005.2269,0.003906235,-0.0018280447,-0.020906448,0.0,0.0,0.0
1189.4143,559.8008,126751623,0.7,0.12765957,370.41547,519.5957,0.003906235,-0.0018280447,-0.020906448,0.0,0.0,0.0
1194.614,564.62695,126751640,0.71250004,0.12765957,434.69043,153.04051,0.003906235,-0.0018280447,-0.020906448,0.0,0.0,0.0
1202.1522,567.53345,126751657,0.75,0.10638297,476.9111,-35.969837,0.003906235,-0.0018280447,-0.020906448,0.0,0.0,0.0
1212.482,567.6299,126751674,0.7625,0.10638297,604.8185,-98.85377,0.003906235,-0.0018280447,-0.020906448,0.0,0.0,0.0
1222.8699,564.8613,126751690,0.75,0.10638297,742.1806,-189.67714,0.003906235,-0.0018280447,-0.020906448,0.0,0.0,0.0
1232.2197,559.25256,126751707,0.77500004,0.12765957,742.0751,-372.05362,0.003906235,-0.0018280447,-0.020906448,0.0,0.0,0.0
1239.1797,551.8085,126751724,0.7875,0.14893617,596.7901,-556.0146,0.003906235,-0.0018280447,-0.020906448,0.0,0.0,0.0
1244.9893,536.4828,126751740,0.7875,0.14893617,390.87308,-814.4236,0.003906235,-0.0018280447,-0.020906448,0.0,0.0,0.0
1246.0723,518.2528,126751757,0.7625,0.12765957,140.9936,-1163.3344,0.003906235,-0.0018280447,-0.020906448,0.0,0.0,0.0
1243.1771,506.69263,126751774,0.75,0.11702127,-173.56676,-1188.4237,0.003906235,-0.0018280447,-0.020906448,0.0,0.0,0.0
1239.0255,493.2876,126751791,0.75,0.10638297,-409.6841,-1003.5244,0.003906235,-0.0018280447,-0.020906448,0.0,0.0,0.0
1233.472,476.99182,126751807,0.7375,0.12765957,-517.01013,-830.1002,0.003906235,-0.0018280447,-0.020906448,0.0,0.0,0.0
1227.694,463.266,126751824,0.77500004,0.10638297,-519.86145,-829.43604,0.003906235,-0.0018280447,-0.020906448,0.0,0.0,0.0
1224.4229,458.7511,126751841,0.7875,0.10638297,-379.59607,-659.43884,0.003906235,-0.0018280447,-0.020906448,0.0,0.0,0.0
1221.7488,455.82837,126751857,0.7875,0.10638297,-224.99945,-203.71753,0.003906235,-0.0018280447,-0.020906448,0.0,0.0,0.0
1219.6577,453.96985,126751874,0.8125,0.10638297,-90.98969,155.68309,0.003906235,-0.0018280447,-0.020906448,0.0,0.0,0.0
1218.5767,453.9015,126751891,0.83750004,0.12765957,-13.65742,244.67218,0.003906235,-0.0018280447,-0.020906448,0.0,0.0,0.0
1218.0813,453.9015,126751907,0.8625,0.12765957,0.96857315,142.08807,0.003906235,-0.0018280447,-0.020906448,0.0,0.0,0.0
1218.6678,455.8324,126751924,0.875,0.12765957,43.91803,132.75513,0.003906235,-0.0018280447,-0.020906448,0.0,0.0,0.0
1223.8505,460.80615,126751941,0.8,0.12765957,202.90529,255.30113,0.0031249821,-0.017462432,-7.247925E-4,0.0,0.0,0.0
1231.4541,464.28687,126751958,0.75,0.12765957,434.89093,331.8813,0.0031249821,-0.017462432,-7.247925E-4,0.0,0.0,0.0
1247.7971,467.59692,126751974,0.7375,0.12765957,823.24084,333.3177,0.0031249821,-0.017462432,-7.247925E-4,0.0,0.0,0.0
1265.7534,467.6808,126751991,0.75,0.10638297,1273.2766,162.73317,0.0031249821,-0.017462432,-7.247925E-4,0.0,0.0,0.0
1279.9794,464.4574,126752008,0.7375,0.11702127,1314.1332,-121.671585,0.0031249821,-0.017462432,-7.247925E-4,0.0,0.0,0.0
1292.7719,460.74585,126752024,0.75,0.14893617,1068.9901,-336.32376,0.0031249821,-0.017462432,-7.247925E-4,0.0,0.0,0.0
1302.8442,455.50647,126752041,0.75,0.12765957,689.7718,-445.74744,0.0031249821,-0.017462432,-7.247925E-4,0.0,0.0,0.0
1309.4567,449.98755,126752058,0.77500004,0.11702127,362.98788,-453.34683,0.0031249821,-0.017462432,-7.247925E-4,0.0,0.0,0.0
1313.3779,444.43445,126752075,0.75,0.10638297,176.76468,-410.16824,0.0031249821,-0.017462432,-7.247925E-4,0.0,0.0,0.0
1315.0336,439.74316,126752091,0.77500004,0.11702127,-7.4872417,-365.85333,0.0031249821,-0.017462432,-7.247925E-4,0.0,0.0,0.0
1316.0735,435.115,126752108,0.7875,0.11702127,-102.809875,-294.3058,0.0031249821,-0.017462432,-7.247925E-4,0.0,0.0,0.0
1316.0494,433.34766,126752125,0.8125,0.12765957,-122.42885,-175.08614,0.0031249821,-0.017462432,-7.247925E-4,0.0,0.0,0.0
1316.0494,433.46594,126752141,0.83750004,0.12765957,-102.24825,-24.364117,0.0031249821,-0.017462432,-7.247925E-4,0.0,0.0,0.0
1316.0494,435.77966,126752158,0.8625,0.12765957,-63.631454,138.48819,0.0031249821,-0.017462432,-7.247925E-4,0.0,0.0,0.0
1314.197,443.292,126752175,0.7875,0.12765957,-79.03227,400.7813,0.0031249821,-0.017462432,-7.247925E-4,0.0,0.0,0.0
1313.2733,450.55115,126752192,0.7375,0.12765957,-108.75393,594.9516,0.0031249821,-0.017462432,-7.247925E-4,0.0,0.0,0.0
1316.0824,462.9037,126752208,0.7375,0.09574468,-2.900283,770.3682,0.0031249821,-0.017462432,-7.247925E-4,0.0,0.0,0.0
1322.1344,480.16467,126752225,0.7375,0.09574468,252.94292,1022.8239,0.0031249821,-0.017462432,-7.247925E-4,0.0,0.0,0.0
1329.784,496.08606,126752242,0.7375,0.10638297,538.85767,1200.8447,0.0031249821,-0.017462432,-7.247925E-4,0.0,0.0,0.0
1337.2109,513.09717,126752258,0.725,0.10638297,662.85315,1248.7156,0.0031249821,-0.017462432,-7.247925E-4,0.0,0.0,0.0
1344.5767,534.13354,126752275,0.7,0.08510638,608.1535,1258.6605,0.0031249821,-0.017462432,-7.247925E-4,0.0,0.0,0.0
1348.9277,550.2223,126752292,0.6875,0.11702127,434.95755,1185.6343,0.0031249821,-0.017462432,-7.247925E-4,0.0,0.0,0.0
1349.5337,566.82056,126752309,0.675,0.10638297,143.07785,1060.7354,0.0031249821,-0.017462432,-7.247925E-4,0.0,0.0,0.0
1343.6962,585.35266,126752325,0.675,0.08510638,-234.57748,1036.9521,0.0031249821,-0.017462432,-7.247925E-4,0.0,0.0,0.0
1330.2717,603.06665,126752342,0.6625,0.10638297,-753.8668,1030.0455,0.0031249821,-0.017462432,-7.247925E-4,0.0,0.0,0.0
1300.1973,627.86865,126752359,0.65000004,0.10638297,-1512.5211,1234.7365,0.0031249821,-0.017462432,-7.247925E-4,0.0,0.0,0.0
1219.5808,665.36523,126752373,0.3125,0.10638297,-3147.5671,1810.2649,0.0031249821,-0.017462432,-7.247925E-4,0.0,0.0,0.0
1219.5808,665.36523,126752380,0.3125,0.10638297,-3147.5671,1810.2649,0.0031249821,-0.017462432,-7.247925E-4,0.0,0.0,0.0
