x,y,timestamp,pressure,fingerarea,velocityx,velocityy,accelx,accely,accelz,gyrox,gyroy,gyroz
187.41685,252.2113,126776746,1.0125,0.12765957,0.0,0.0,0.021268442,-0.008755058,-0.0040693283,0.0,0.0,0.0
187.41685,252.2113,126776772,1.0375,0.12765957,0.00588929,0.0073442035,0.021268442,-0.008755058,-0.0040693283,0.0,0.0,0.0
187.41685,252.2113,126776789,1.0,0.12765957,-0.008140972,-0.010509179,0.021268442,-0.008755058,-0.0040693283,0.0,0.0,0.0
185.16623,262.87976,126776806,0.8625,0.09574468,-79.16123,375.21048,0.021268442,-0.008755058,-0.0040693283,0.0,0.0,0.0
178.59915,293.5536,126776822,0.825,0.11702127,-351.68356,1622.1233,0.021268442,-0.008755058,-0.0040693283,0.0,0.0,0.0
172.15912,325.11365,126776839,0.8625,0.08510638,-478.4323,2328.559,0.021268442,-0.008755058,-0.0040693283,0.0,0.0,0.0
161.78337,357.3285,126776856,0.85,0.12765957,-660.0921,2731.7927,0.021268442,-0.008755058,-0.0040693283,0.0,0.0,0.0
151.02528,386.31262,126776873,0.8625,0.11702127,-770.932,2475.814,0.021268442,-0.008755058,-0.0040693283,0.0,0.0,0.0
137.201,416.802,126776889,0.8875,0.12765957,-836.73883,1892.0336,0.021268442,-0.008755058,-0.0040693283,0.0,0.0,0.0
125.89276,436.1903,126776906,0.9125,0.12765957,-881.9483,1499.3751,0.021268442,-0.008755058,-0.0040693283,0.0,0.0,0.0
115.99397,451.94946,126776923,0.8875,0.12765957,-756.90515,1004.13446,0.021268442,-0.008755058,-0.0040693283,0.0,0.0,0.0
102.18822,477.45825,126776939,0.9125,0.11702127,-742.95416,975.15314,0.021268442,-0.008755058,-0.0040693283,0.0,0.0,0.0
96.05585,485.2412,126776956,0.9125,0.12765957,-561.6545,715.43494,0.021268442,-0.008755058,-0.0040693283,0.0,0.0,0.0
86.95813,495.20923,126776973,0.9125,0.12765957,-436.7334,474.7896,0.021268442,-0.008755058,-0.0040693283,0.0,0.0,0.0
76.63632,502.95667,126776990,0.9125,0.12765957,-474.6753,318.61353,0.021268442,-0.008755058,-0.0040693283,0.0,0.0,0.0
68.09752,505.8474,126777006,0.95,0.12765957,-504.71686,9.484497,0.0010147542,0.024995953,-0.019255638,0.0,0.0,0.0
61.572693,505.83093,126777023,0.96250004,0.12765957,-542.4101,4.7743464,0.0010147542,0.024995953,-0.019255638,0.0,0.0,0.0
57.25718,502.05566,126777040,1.0125,0.12765957,-310.68585,-302.5304,0.0010147542,0.024995953,-0.019255638,0.0,0.0,0.0
51.541527,486.0586,126777056,0.975,0.12765957,-179.20917,-773.9114,0.0010147542,0.024995953,-0.019255638,0.0,0.0,0.0
49.46176,468.9275,126777073,0.95,0.12765957,-131.54295,-1261.1533,0.0010147542,0.024995953,-0.019255638,0.0,0.0,0.0
50.83648,458.01013,126777090,0.9375,0.12765957,8.928279,-1354.0983,0.0010147542,0.024995953,-0.019255638,0.0,0.0,0.0
53.41548,452.20447,126777106,0.9125,0.10638297,206.05356,-925.43427,0.0010147542,0.024995953,-0.019255638,0.0,0.0,0.0
59.082207,447.61926,126777123,0.9125,0.09574468,407.22333,-265.63522,0.0010147542,0.024995953,-0.019255638,0.0,0.0,0.0
70.049484,446.79346,126777140,0.925,0.12765957,652.63293,135.61237,0.0010147542,0.024995953,-0.019255638,0.0,0.0,0.0
78.25615,447.8606,126777157,0.925,0.12765957,733.9515,237.05936,0.0010147542,0.024995953,-0.019255638,0.0,0.0,0.0
86.00145,449.92615,126777173,0.9125,0.14893617,696.3661,270.93973,0.0010147542,0.024995953,-0.019255638,0.0,0.0,0.0
95.15698,454.8131,126777190,0.9125,0.12765957,604.4295,353.72244,0.0010147542,0.024995953,-0.019255638,0.0,0.0,0.0
106.446655,463.2339,126777207,0.95,0.11702127,575.72644,499.13675,0.0010147542,0.024995953,-0.019255638,0.0,0.0,0.0
120.263916,477.08484,126777223,0.9125,0.10638297,774.18414,783.24457,0.0010147542,0.024995953,-0.019255638,0.0,0.0,0.0
133.4462,489.89636,126777240,0.95,0.12765957,920.9598,1018.26227,0.0010147542,0.024995953,-0.019255638,0.0,0.0,0.0
147.2312,500.28223,126777257,0.95,0.14893617,928.8869,964.9704,0.0010147542,0.024995953,-0.019255638,0.0,0.0,0.0
162.10396,507.95764,126777274,0.9375,0.11702127,903.5734,671.3391,0.0010147542,0.024995953,-0.019255638,0.0,0.0,0.0
178.89769,512.9822,126777290,0.95,0.11702127,951.59924,316.7074,0.0010147542,0.024995953,-0.019255638,0.0,0.0,0.0
195.0896,514.3197,126777307,0.9125,0.12765957,1036.1709,46.485962,0.0010147542,0.024995953,-0.019255638,0.0,0.0,0.0
214.69443,513.4513,126777324,0.9125,0.12765957,1152.1648,-142.64914,0.0010147542,0.024995953,-0.019255638,0.0,0.0,0.0
234.99945,509.71777,126777340,0.875,0.11702127,1249.3453,-318.35812,0.0010147542,0.024995953,-0.019255638,0.0,0.0,0.0
258.6156,498.32275,126777357,0.9125,0.12765957,1392.6053,-613.9721,0.0010147542,0.024995953,-0.019255638,0.0,0.0,0.0
282.4158,479.19727,126777374,0.90000004,0.11702127,1529.0514,-1075.0376,0.0010147542,0.024995953,-0.019255638,0.0,0.0,0.0
305.07602,460.20374,126777391,0.90000004,0.14893617,1541.1902,-1456.9802,0.0010147542,0.024995953,-0.019255638,0.0,0.0,0.0
331.21628,435.6056,126777407,0.875,0.11702127,1534.864,-1688.9458,0.0010147542,0.024995953,-0.019255638,0.0,0.0,0.0
354.90396,411.25708,126777424,0.8875,0.14893617,1524.8071,-1739.9666,0.0010147542,0.024995953,-0.019255638,0.0,0.0,0.0
374.71588,391.35083,126777441,0.875,0.12765957,1371.1134,-1541.6902,0.0010147542,0.024995953,-0.019255638,0.0,0.0,0.0
391.30444,375.4839,126777457,0.8875,0.12765957,1111.8988,-1204.5715,0.0010147542,0.024995953,-0.019255638,0.0,0.0,0.0
400.6883,366.22815,126777474,0.9125,0.12765957,642.35925,-672.01794,0.0010147542,0.024995953,-0.019255638,0.0,0.0,0.0
404.58215,362.62024,126777491,0.95,0.12765957,145.83224,-103.37335,0.0010147542,0.024995953,-0.019255638,0.0,0.0,0.0
405.34592,360.81494,126777508,0.96250004,0.12765957,-173.64603,170.41794,0.0010147542,0.024995953,-0.019255638,0.0,0.0,0.0
404.8908,360.60864,126777524,1.025,0.12765957,-362.31808,305.16754,0.0010147542,0.024995953,-0.019255638,0.0,0.0,0.0
402.81995,361.51306,126777541,1.0,0.12765957,-346.27628,256.57538,0.0010147542,0.024995953,-0.019255638,0.0,0.0,0.0
395.97427,368.04956,126777558,0.9125,0.12765957,-411.83972,342.93268,0.0010147542,0.024995953,-0.019255638,0.0,0.0,0.0
384.84604,379.42212,126777574,0.85,0.12765957,-635.41486,613.4126,0.032811806,0.07599676,0.04859543,0.0,0.0,0.0
363.3312,401.9535,126777591,0.875,0.12765957,-1116.0114,1164.9049,0.032811806,0.07599676,0.04859543,0.0,0.0,0.0
335.52762,430.43237,126777608,0.8875,0.12765957,-1716.462,1796.2922,0.032811806,0.07599676,0.04859543,0.0,0.0,0.0
320.22122,448.81543,126777624,0.9125,0.12765957,-1781.0542,1921.8154,0.032811806,0.07599676,0.04859543,0.0,0.0,0.0
303.97543,471.09265,126777641,0.8875,0.10638297,-1351.2661,1647.5614,0.032811806,0.07599676,0.04859543,0.0,0.0,0.0
291.85104,488.9983,126777658,0.9125,0.12765957,-783.1852,1215.8181,0.032811806,0.07599676,0.04859543,0.0,0.0,0.0
282.1465,508.9513,126777675,0.8875,0.12765957,-405.79123,1000.9871,0.032811806,0.07599676,0.04859543,0.0,0.0,0.0
280.73346,521.57324,126777691,0.9125,0.10638297,-148.24078,886.0549,0.032811806,0.07599676,0.04859543,0.0,0.0,0.0
283.49445,528.0724,126777708,0.8875,0.09574468,251.93713,516.69946,0.032811806,0.07599676,0.04859543,0.0,0.0,0.0
289.74368,534.1869,126777725,0.875,0.09574468,574.84515,160.17796,0.032811806,0.07599676,0.04859543,0.0,0.0,0.0
300.94946,541.6083,126777741,0.8875,0.10638297,863.4452,54.777138,0.032811806,0.07599676,0.04859543,0.0,0.0,0.0
313.70633,545.5077,126777758,0.8875,0.12765957,999.9915,124.02631,0.032811806,0.07599676,0.04859543,0.0,0.0,0.0
333.54724,546.3059,126777775,0.90000004,0.11702127,1223.4788,115.15517,0.032811806,0.07599676,0.04859543,0.0,0.0,0.0
348.93326,540.37744,126777792,0.90000004,0.12765957,1285.8795,-189.81337,0.032811806,0.07599676,0.04859543,0.0,0.0,0.0
362.58878,527.6321,126777808,0.90000004,0.14893617,1126.9894,-710.4379,0.032811806,0.07599676,0.04859543,0.0,0.0,0.0
372.96472,513.874,126777825,0.90000004,0.12765957,829.8764,-1088.4395,0.032811806,0.07599676,0.04859543,0.0,0.0,0.0
383.8682,490.77966,126777842,0.8875,0.12765957,556.3651,-1413.5813,0.032811806,0.07599676,0.04859543,0.0,0.0,0.0
388.3648,464.87695,126777858,0.90000004,0.12765957,335.29276,-1769.0668,0.032811806,0.07599676,0.04859543,0.0,0.0,0.0
389.44748,445.9369,126777875,0.8625,0.08510638,56.956474,-1722.7188,0.032811806,0.07599676,0.04859543,0.0,0.0,0.0
391.86276,427.15784,126777892,0.875,0.12765957,-105.598595,-1406.0913,0.032811806,0.07599676,0.04859543,0.0,0.0,0.0
394.10013,408.80542,126777909,0.8625,0.12765957,-107.75154,-1071.6597,0.032811806,0.07599676,0.04859543,0.0,0.0,0.0
395.2605,400.17554,126777925,0.875,0.10638297,-9.234268,-655.06116,0.032811806,0.07599676,0.04859543,0.0,0.0,0.0
395.849,397.12036,126777942,0.90000004,0.10638297,65.83901,-281.81317,0.032811806,0.07599676,0.04859543,0.0,0.0,0.0
395.849,396.1488,126777959,0.95,0.12765957,-0.037002996,156.99524,0.032811806,0.07599676,0.04859543,0.0,0.0,0.0
395.849,396.1488,126777975,1.0375,0.14893617,-47.44793,371.60867,0.032811806,0.07599676,0.04859543,0.0,0.0,0.0
395.29654,399.00134,126777992,1.0,0.12765957,-52.549225,363.7184,0.032811806,0.07599676,0.04859543,0.0,0.0,0.0
392.49323,408.0791,126778009,0.9125,0.12765957,-114.18455,460.9788,0.032811806,0.07599676,0.04859543,0.0,0.0,0.0
389.39148,431.05786,126778026,0.85,0.09574468,-200.50826,1026.631,0.032811806,0.07599676,0.04859543,0.0,0.0,0.0
388.1537,450.30847,126778042,0.85,0.11702127,-211.3124,1547.8973,0.032811806,0.07599676,0.04859543,0.0,0.0,0.0
389.81943,476.25024,126778059,0.85,0.09574468,-47.33983,1910.279,0.032811806,0.07599676,0.04859543,0.0,0.0,0.0
392.94867,493.34656,126778076,0.875,0.10638297,182.00739,1632.7245,0.032811806,0.07599676,0.04859543,0.0,0.0,0.0
399.846,508.6521,126778092,0.85,0.10638297,411.5745,1070.1897,0.032811806,0.07599676,0.04859543,0.0,0.0,0.0
405.80518,518.32996,126778109,0.875,0.10638297,530.98224,613.6297,0.032811806,0.07599676,0.04859543,0.0,0.0,0.0
414.72003,529.1156,126778126,0.85,0.11702127,588.88074,348.46692,0.010249451,-0.04320258,-0.057123184,0.0,0.0,0.0
426.85608,537.772,126778143,0.85,0.10638297,705.7697,343.64337,0.010249451,-0.04320258,-0.057123184,0.0,0.0,0.0
444.79535,541.813,126778159,0.875,0.10638297,963.00836,282.84747,0.010249451,-0.04320258,-0.057123184,0.0,0.0,0.0
461.97687,538.2595,126778176,0.85,0.12765957,1226.1158,-67.4221,0.010249451,-0.04320258,-0.057123184,0.0,0.0,0.0
479.18817,526.9739,126778193,0.8875,0.12765957,1294.0103,-598.4427,0.010249451,-0.04320258,-0.057123184,0.0,0.0,0.0
492.47205,513.05725,126778209,0.90000004,0.12765957,1080.6495,-1105.4027,0.010249451,-0.04320258,-0.057123184,0.0,0.0,0.0
504.5542,490.13013,126778226,0.875,0.12765957,767.1038,-1460.7919,0.010249451,-0.04320258,-0.057123184,0.0,0.0,0.0
518.119,455.45032,126778243,0.8625,0.12765957,681.86584,-2115.6807,0.010249451,-0.04320258,-0.057123184,0.0,0.0,0.0
524.26434,427.84473,126778259,0.875,0.12765957,497.62363,-2280.4822,0.010249451,-0.04320258,-0.057123184,0.0,0.0,0.0
529.5368,398.94714,126778276,0.8625,0.11702127,290.24487,-2211.5466,0.010249451,-0.04320258,-0.057123184,0.0,0.0,0.0
534.826,368.8617,126778293,0.8125,0.12765957,108.908005,-1849.8188,0.010249451,-0.04320258,-0.057123184,0.0,0.0,0.0
537.7843,340.6117,126778310,0.83750004,0.11702127,39.437717,-1669.6003,0.010249451,-0.04320258,-0.057123184,0.0,0.0,0.0
540.5167,310.08203,126778326,0.8125,0.12765957,122.806694,-1809.7814,0.010249451,-0.04320258,-0.057123184,0.0,0.0,0.0
540.8018,287.6637,126778343,0.8625,0.11702127,26.720186,-1609.9038,0.010249451,-0.04320258,-0.057123184,0.0,0.0,0.0
540.86926,266.97815,126778360,0.83750004,0.11702127,-52.929028,-1303.4452,0.010249451,-0.04320258,-0.057123184,0.0,0.0,0.0
540.31683,247.09216,126778376,0.85,0.14893617,-115.34547,-1029.0554,0.010249451,-0.04320258,-0.057123184,0.0,0.0,0.0
538.7772,237.81604,126778393,0.8625,0.11702127,-128.12234,-702.3232,0.010249451,-0.04320258,-0.057123184,0.0,0.0,0.0
537.20996,232.49902,126778410,0.875,0.11702127,-140.67995,-250.67513,0.010249451,-0.04320258,-0.057123184,0.0,0.0,0.0
536.19226,230.68982,126778427,0.90000004,0.12765957,-119.38996,81.018364,0.010249451,-0.04320258,-0.057123184,0.0,0.0,0.0
534.6683,229.99866,126778443,0.925,0.12765957,-107.4344,330.5583,0.010249451,-0.04320258,-0.057123184,0.0,0.0,0.0
531.7811,231.19739,126778460,0.925,0.12765957,-124.73017,312.6324,0.010249451,-0.04320258,-0.057123184,0.0,0.0,0.0
528.5003,234.62622,126778477,0.9375,0.12765957,-191.27629,266.40054,0.010249451,-0.04320258,-0.057123184,0.0,0.0,0.0
519.24884,254.13025,126778493,0.85,0.10638297,-388.14056,708.2851,0.010249451,-0.04320258,-0.057123184,0.0,0.0,0.0
506.0121,283.84473,126778510,0.8125,0.10638297,-751.5054,1663.097,0.010249451,-0.04320258,-0.057123184,0.0,0.0,0.0
496.06213,319.25745,126778527,0.825,0.10638297,-931.8693,2501.43,0.010249451,-0.04320258,-0.057123184,0.0,0.0,0.0
490.42963,353.16272,126778544,0.825,0.12765957,-740.37494,2806.4128,0.010249451,-0.04320258,-0.057123184,0.0,0.0,0.0
486.91144,388.92468,126778560,0.83750004,0.11702127,-332.3057,2623.9397,0.010249451,-0.04320258,-0.057123184,0.0,0.0,0.0
485.90985,427.42053,126778577,0.83750004,0.11702127,60.455536,2360.2976,0.010249451,-0.04320258,-0.057123184,0.0,0.0,0.0
487.3219,461.99915,126778594,0.83750004,0.10638297,210.32967,2271.928,0.010249451,-0.04320258,-0.057123184,0.0,0.0,0.0
490.97607,493.23083,126778610,0.85,0.12765957,304.34918,2074.8271,0.010249451,-0.04320258,-0.057123184,0.0,0.0,0.0
495.74976,521.2262,126778627,0.825,0.10638297,388.58426,1757.4163,0.010249451,-0.04320258,-0.057123184,0.0,0.0,0.0
499.76587,544.26587,126778644,0.83750004,0.09574468,404.7735,1409.9982,0.010249451,-0.04320258,-0.057123184,0.0,0.0,0.0
503.40308,559.32336,126778661,0.825,0.10638297,344.35007,948.83307,0.010249451,-0.04320258,-0.057123184,0.0,0.0,0.0
506.70258,573.8037,126778677,0.8625,0.09574468,259.80814,663.0373,0.010249451,-0.04320258,-0.057123184,0.0,0.0,0.0
508.0462,580.89966,126778694,0.83750004,0.10638297,119.9573,333.25613,-0.02380044,-0.018562078,-0.06169796,0.0,0.0,0.0
509.08954,584.6089,126778711,0.875,0.10638297,27.55393,15.501455,-0.02380044,-0.018562078,-0.06169796,0.0,0.0,0.0
509.62708,585.4,126778727,0.96250004,0.12765957,-26.40248,-151.89116,-0.02380044,-0.018562078,-0.06169796,0.0,0.0,0.0
512.2117,582.6449,126778744,1.0125,0.14893617,9.278051,-351.9604,-0.02380044,-0.018562078,-0.06169796,0.0,0.0,0.0
517.2192,564.5574,126778761,0.925,0.12765957,195.90588,-732.2225,-0.02380044,-0.018562078,-0.06169796,0.0,0.0,0.0
522.32916,535.6719,126778778,0.8875,0.11702127,347.2695,-1564.3372,-0.02380044,-0.018562078,-0.06169796,0.0,0.0,0.0
527.7161,508.49976,126778794,0.85,0.12765957,441.8736,-2339.7578,-0.02380044,-0.018562078,-0.06169796,0.0,0.0,0.0
535.96387,483.63513,126778811,0.83750004,0.14893617,487.5016,-2248.652,-0.02380044,-0.018562078,-0.06169796,0.0,0.0,0.0
544.65704,460.29675,126778828,0.85,0.12765957,547.22974,-1836.0421,-0.02380044,-0.018562078,-0.06169796,0.0,0.0,0.0
551.51245,449.23706,126778844,0.8875,0.10638297,541.45996,-1009.66754,-0.02380044,-0.018562078,-0.06169796,0.0,0.0,0.0
562.1637,437.4702,126778861,0.90000004,0.12765957,591.2681,-503.99484,-0.02380044,-0.018562078,-0.06169796,0.0,0.0,0.0
572.38696,428.65198,126778878,0.8875,0.15957446,647.472,-286.11374,-0.02380044,-0.018562078,-0.06169796,0.0,0.0,0.0
578.1344,426.3579,126778894,0.9125,0.15957446,554.27277,-20.421673,-0.02380044,-0.018562078,-0.06169796,0.0,0.0,0.0
582.05304,426.8109,126778911,0.925,0.14893617,342.27957,73.583244,-0.02380044,-0.018562078,-0.06169796,0.0,0.0,0.0
584.37164,428.6538,126778928,0.8875,0.14893617,62.702145,341.74774,-0.02380044,-0.018562078,-0.06169796,0.0,0.0,0.0
587.25476,435.44458,126778945,0.90000004,0.14893617,-27.31525,488.42966,-0.02380044,-0.018562078,-0.06169796,0.0,0.0,0.0
588.2864,444.04114,126778961,0.90000004,0.12765957,8.999828,632.8459,-0.02380044,-0.018562078,-0.06169796,0.0,0.0,0.0
587.8931,456.63806,126778978,0.8625,0.14893617,-19.846075,795.9472,-0.02380044,-0.018562078,-0.06169796,0.0,0.0,0.0
584.52765,475.93604,126778995,0.83750004,0.11702127,-145.77539,1118.6417,-0.02380044,-0.018562078,-0.06169796,0.0,0.0,0.0
576.8606,493.7589,126779011,0.85,0.12765957,-394.92386,1374.6547,-0.02380044,-0.018562078,-0.06169796,0.0,0.0,0.0
565.0897,507.44495,126779028,0.8875,0.12765957,-717.0283,1214.9163,-0.02380044,-0.018562078,-0.06169796,0.0,0.0,0.0
550.8313,524.3096,126779045,0.8875,0.12765957,-981.87634,1071.3019,-0.02380044,-0.018562078,-0.06169796,0.0,0.0,0.0
540.7567,533.90686,126779062,0.8875,0.11702127,-993.86395,737.943,-0.02380044,-0.018562078,-0.06169796,0.0,0.0,0.0
533.9361,538.8235,126779078,0.8875,0.11702127,-730.77856,397.54605,-0.02380044,-0.018562078,-0.06169796,0.0,0.0,0.0
530.23065,541.3152,126779095,0.875,0.11702127,-344.12216,98.74764,-0.02380044,-0.018562078,-0.06169796,0.0,0.0,0.0
529.0797,541.8633,126779112,0.875,0.11702127,53.901897,-216.52936,-0.02380044,-0.018562078,-0.06169796,0.0,0.0,0.0
528.8057,541.8633,126779128,0.875,0.11702127,162.0157,-224.70627,-0.02380044,-0.018562078,-0.06169796,0.0,0.0,0.0
529.4105,542.4009,126779145,0.83750004,0.11702127,178.91772,-142.01248,-0.02380044,-0.018562078,-0.06169796,0.0,0.0,0.0
536.4324,546.2877,126779162,0.8125,0.10638297,296.03256,39.856197,-0.02380044,-0.018562078,-0.06169796,0.0,0.0,0.0
556.31134,551.7512,126779179,0.8125,0.10638297,816.9402,277.82248,-0.02380044,-0.018562078,-0.06169796,0.0,0.0,0.0
584.862,554.12915,126779195,0.83750004,0.12765957,1637.0385,363.71475,-0.02380044,-0.018562078,-0.06169796,0.0,0.0,0.0
616.9168,551.798,126779212,0.83750004,0.11702127,2333.1404,163.83055,-0.02380044,-0.018562078,-0.06169796,0.0,0.0,0.0
646.8907,542.70483,126779229,0.825,0.11702127,2497.1914,-357.986,-0.02380044,-0.018562078,-0.06169796,0.0,0.0,0.0
678.1178,526.922,126779245,0.83750004,0.12765957,2262.957,-944.43384,-0.02380044,-0.018562078,-0.06169796,0.0,0.0,0.0
702.6982,510.40735,126779262,0.85,0.12765957,1803.9346,-1309.7189,0.012959644,0.017150328,0.014641762,0.0,0.0,0.0
725.6768,489.72717,126779279,0.8125,0.11702127,1436.7933,-1497.1014,0.012959644,0.017150328,0.014641762,0.0,0.0,0.0
743.5383,466.24243,126779296,0.7875,0.14893617,1084.8763,-1586.5455,0.012959644,0.017150328,0.014641762,0.0,0.0,0.0
758.4243,445.91565,126779312,0.8,0.12765957,801.0313,-1523.2205,0.012959644,0.017150328,0.014641762,0.0,0.0,0.0
769.12494,427.0072,126779329,0.8125,0.11702127,545.9701,-1340.4222,0.012959644,0.017150328,0.014641762,0.0,0.0,0.0
778.3337,408.39368,126779346,0.825,0.10638297,369.2469,-1162.2487,0.012959644,0.017150328,0.014641762,0.0,0.0,0.0
781.65393,403.04297,126779362,0.8625,0.10638297,176.21635,-670.84106,0.012959644,0.017150328,0.014641762,0.0,0.0,0.0
783.0589,400.8828,126779379,0.8875,0.11702127,-58.222878,-85.94976,0.012959644,0.017150328,0.014641762,0.0,0.0,0.0
783.2229,400.5913,126779396,0.9125,0.12765957,-197.62282,340.47577,0.012959644,0.017150328,0.014641762,0.0,0.0,0.0
782.78613,400.5913,126779413,0.95,0.12765957,-228.81416,449.07275,0.012959644,0.017150328,0.014641762,0.0,0.0,0.0
780.80396,401.43225,126779429,1.0,0.12765957,-200.67119,275.84857,0.012959644,0.017150328,0.014641762,0.0,0.0,0.0
775.6502,406.00256,126779446,0.85,0.12765957,-278.13818,232.79097,0.012959644,0.017150328,0.014641762,0.0,0.0,0.0
767.9245,416.10022,126779463,0.83750004,0.12765957,-454.1264,483.25027,0.012959644,0.017150328,0.014641762,0.0,0.0,0.0
754.33704,433.45996,126779479,0.825,0.12765957,-748.6228,930.4209,0.012959644,0.017150328,0.014641762,0.0,0.0,0.0
734.6671,452.76685,126779496,0.85,0.11702127,-1152.9565,1359.7062,0.012959644,0.017150328,0.014641762,0.0,0.0,0.0
717.16455,471.3369,126779513,0.85,0.12765957,-1367.7327,1498.6967,0.012959644,0.017150328,0.014641762,0.0,0.0,0.0
702.85913,487.04517,126779529,0.83750004,0.12765957,-1294.7345,1340.3701,0.012959644,0.017150328,0.014641762,0.0,0.0,0.0
690.3203,501.35278,126779546,0.8625,0.12765957,-933.092,967.1846,0.012959644,0.017150328,0.014641762,0.0,0.0,0.0
679.5306,520.1864,126779563,0.8125,0.09574468,-621.30396,907.02203,0.012959644,0.017150328,0.014641762,0.0,0.0,0.0
676.14404,533.24133,126779580,0.825,0.09574468,-306.14572,893.93604,0.012959644,0.017150328,0.014641762,0.0,0.0,0.0
676.60095,544.0255,126779596,0.7875,0.09574468,75.47458,744.12384,0.012959644,0.017150328,0.014641762,0.0,0.0,0.0
679.2906,551.697,126779613,0.8,0.12765957,378.60947,475.36096,0.012959644,0.017150328,0.014641762,0.0,0.0,0.0
683.3309,556.5907,126779630,0.8125,0.12765957,496.50677,197.16214,0.012959644,0.017150328,0.014641762,0.0,0.0,0.0
690.15173,562.2217,126779646,0.83750004,0.12765957,544.4756,88.25035,0.012959644,0.017150328,0.014641762,0.0,0.0,0.0
700.6166,566.86,126779663,0.825,0.12765957,646.0421,159.04971,0.012959644,0.017150328,0.014641762,0.0,0.0,0.0
716.8693,567.6299,126779680,0.85,0.11702127,925.2758,103.33226,0.012959644,0.017150328,0.014641762,0.0,0.0,0.0
732.4403,565.42114,126779697,0.83750004,0.12765957,1150.5227,-66.342636,0.012959644,0.017150328,0.014641762,0.0,0.0,0.0
747.3618,556.2363,126779713,0.825,0.14893617,1179.5923,-424.78775,0.012959644,0.017150328,0.014641762,0.0,0.0,0.0
759.72015,538.00635,126779730,0.8,0.12765957,1007.52344,-974.10205,0.012959644,0.017150328,0.014641762,0.0,0.0,0.0
773.10547,512.4293,126779747,0.7875,0.10638297,743.17883,-1621.2128,0.012959644,0.017150328,0.014641762,0.0,0.0,0.0
783.7636,485.19604,126779763,0.7875,0.10638297,655.73303,-2064.0818,0.012959644,0.017150328,0.014641762,0.0,0.0,0.0
789.81177,458.94897,126779780,0.83750004,0.12765957,484.48126,-2134.452,0.012959644,0.017150328,0.014641762,0.0,0.0,0.0
791.8478,443.22046,126779797,0.8,0.08510638,144.76811,-1534.381,0.012959644,0.017150328,0.014641762,0.0,0.0,0.0
792.71735,433.5005,126779814,0.8,0.10638297,-142.55354,-783.9037,-0.0056322888,-0.034279734,0.011713982,0.0,0.0,0.0
793.2196,420.68994,126779830,0.8625,0.12765957,-230.61081,-337.5342,-0.0056322888,-0.034279734,0.011713982,0.0,0.0,0.0
793.2196,417.55298,126779847,0.9125,0.12765957,-144.55498,-82.42831,-0.0056322888,-0.034279734,0.011713982,0.0,0.0,0.0
793.2196,417.4729,126779864,0.90000004,0.12765957,-70.56454,107.556755,-0.0056322888,-0.034279734,0.011713982,0.0,0.0,0.0
792.68066,423.08215,126779880,0.9375,0.14893617,-48.477375,408.63403,-0.0056322888,-0.034279734,0.011713982,0.0,0.0,0.0
789.4641,431.56067,126779897,0.83750004,0.12765957,-121.92639,700.7602,-0.0056322888,-0.034279734,0.011713982,0.0,0.0,0.0
786.04144,444.9834,126779914,0.7875,0.11702127,-221.4944,913.2534,-0.0056322888,-0.034279734,0.011713982,0.0,0.0,0.0
783.02985,476.81885,126779931,0.7875,0.09574468,-284.29495,1548.9567,-0.0056322888,-0.034279734,0.011713982,0.0,0.0,0.0
782.723,495.94934,126779947,0.8,0.10638297,-187.26732,1872.566,-0.0056322888,-0.034279734,0.011713982,0.0,0.0,0.0
785.9005,516.7312,126779964,0.83750004,0.10638297,88.39198,1743.1395,-0.0056322888,-0.034279734,0.011713982,0.0,0.0,0.0
790.25586,530.6382,126779981,0.825,0.10638297,322.5613,1178.0946,-0.0056322888,-0.034279734,0.011713982,0.0,0.0,0.0
795.3946,539.9806,126779997,0.7875,0.10638297,453.04364,536.1572,-0.0056322888,-0.034279734,0.011713982,0.0,0.0,0.0
801.89014,546.90405,126780014,0.8125,0.12765957,459.2861,212.92084,-0.0056322888,-0.034279734,0.011713982,0.0,0.0,0.0
814.4676,553.5044,126780031,0.8,0.12765957,603.12823,88.06213,-0.0056322888,-0.034279734,0.011713982,0.0,0.0,0.0
830.79114,555.1909,126780047,0.825,0.10638297,923.7892,3.4230502,-0.0056322888,-0.034279734,0.011713982,0.0,0.0,0.0
847.6753,550.13513,126780064,0.8125,0.12765957,1164.3041,-160.63805,-0.0056322888,-0.034279734,0.011713982,0.0,0.0,0.0
861.35736,534.51855,126780081,0.8125,0.12765957,1203.7053,-746.7804,-0.0056322888,-0.034279734,0.011713982,0.0,0.0,0.0
871.10565,517.0514,126780098,0.8,0.12765957,884.4268,-1334.0367,-0.0056322888,-0.034279734,0.011713982,0.0,0.0,0.0
883.1978,492.80188,126780114,0.8125,0.12765957,658.53406,-1797.8221,-0.0056322888,-0.034279734,0.011713982,0.0,0.0,0.0
897.0684,456.87988,126780131,0.77500004,0.10638297,637.4275,-2213.0798,-0.0056322888,-0.034279734,0.011713982,0.0,0.0,0.0
907.01227,428.0116,126780148,0.8,0.12765957,601.48865,-2230.5967,-0.0056322888,-0.034279734,0.011713982,0.0,0.0,0.0
916.22076,388.71545,126780164,0.7875,0.09574468,592.74396,-2376.8362,-0.0056322888,-0.034279734,0.011713982,0.0,0.0,0.0
923.4631,351.8495,126780181,0.7625,0.12765957,418.51825,-2406.5337,-0.0056322888,-0.034279734,0.011713982,0.0,0.0,0.0
928.27484,317.78735,126780198,0.8125,0.11702127,259.80817,-2284.4001,-0.0056322888,-0.034279734,0.011713982,0.0,0.0,0.0
931.8508,288.2234,126780215,0.77500004,0.11702127,171.19211,-2092.8706,-0.0056322888,-0.034279734,0.011713982,0.0,0.0,0.0
932.67426,264.44092,126780231,0.7875,0.10638297,22.935709,-1534.2014,-0.0056322888,-0.034279734,0.011713982,0.0,0.0,0.0
932.67426,245.61096,126780248,0.825,0.12765957,-75.09208,-1137.5669,-0.0056322888,-0.034279734,0.011713982,0.0,0.0,0.0
932.1744,237.50525,126780265,0.825,0.10638297,-143.35529,-529.42773,-0.0056322888,-0.034279734,0.011713982,0.0,0.0,0.0
931.1847,234.45886,126780281,0.85,0.10638297,-163.75229,26.254757,-0.0056322888,-0.034279734,0.011713982,0.0,0.0,0.0
930.1447,234.44116,126780298,0.9125,0.12765957,-111.43584,336.77368,-0.0056322888,-0.034279734,0.011713982,0.0,0.0,0.0
928.5227,235.46558,126780315,0.95,0.14893617,-105.557884,475.8548,-0.0056322888,-0.034279734,0.011713982,0.0,0.0,0.0
925.84406,243.42212,126780332,0.9125,0.12765957,-144.03026,550.2828,-0.0056322888,-0.034279734,0.011713982,0.0,0.0,0.0
924.5241,265.78516,126780348,0.8,0.11702127,-151.0796,1011.0959,-0.0056322888,-0.034279734,0.011713982,0.0,0.0,0.0
923.5029,298.96765,126780365,0.7875,0.12765957,-113.95183,1868.5289,-0.0056322888,-0.034279734,0.011713982,0.0,0.0,0.0
922.6775,337.85278,126780382,0.825,0.12765957,-52.405876,2808.9846,-0.004505828,0.020576209,-0.00662899,0.0,0.0,0.0
922.6775,376.1018,126780398,0.825,0.11702127,14.729659,3038.739,-0.004505828,0.020576209,-0.00662899,0.0,0.0,0.0
924.13904,407.91333,126780415,0.7875,0.12765957,70.744514,2544.9775,-0.004505828,0.020576209,-0.00662899,0.0,0.0,0.0
928.63257,441.58032,126780432,0.8,0.10638297,196.75731,2103.2554,-0.004505828,0.020576209,-0.00662899,0.0,0.0,0.0
935.5416,466.20007,126780449,0.83750004,0.10638297,392.45114,1578.1155,-0.004505828,0.020576209,-0.00662899,0.0,0.0,0.0
944.81903,486.15198,126780465,0.83750004,0.09574468,631.74976,1268.1035,-0.004505828,0.020576209,-0.00662899,0.0,0.0,0.0
955.82733,499.75183,126780482,0.825,0.12765957,766.4949,760.87634,-0.004505828,0.020576209,-0.00662899,0.0,0.0,0.0
970.2942,511.74817,126780499,0.8125,0.12765957,895.99817,400.68744,-0.004505828,0.020576209,-0.00662899,0.0,0.0,0.0
986.4547,518.1101,126780515,0.85,0.10638297,1028.3871,208.07582,-0.004505828,0.020576209,-0.00662899,0.0,0.0,0.0
1005.41064,518.7622,126780532,0.7875,0.12765957,1200.332,-45.384785,-0.004505828,0.020576209,-0.00662899,0.0,0.0,0.0
1024.9512,513.907,126780549,0.7375,0.12765957,1330.5103,-313.0232,-0.004505828,0.020576209,-0.00662899,0.0,0.0,0.0
1048.1366,499.2152,126780563,0.5375,0.09574468,1476.2511,-787.65186,-0.004505828,0.020576209,-0.00662899,0.0,0.0,0.0
1048.1366,499.2152,126780570,0.5375,0.09574468,1476.2511,-787.65186,-0.004505828,0.020576209,-0.00662899,0.0,0.0,0.0
822.71,389.04077,126780764,0.8625,0.12765957,0.0,0.0,-0.004505828,0.020576209,-0.00662899,0.0,0.0,0.0
822.71,389.04077,126780783,0.9375,0.12765957,-0.12241061,-0.067013055,-0.004505828,0.020576209,-0.00662899,0.0,0.0,0.0
822.71,389.04077,126780799,0.925,0.12765957,-0.06941494,-0.032804705,-0.004505828,0.020576209,-0.00662899,0.0,0.0,0.0
846.1129,389.08936,126780816,0.7875,0.12765957,1316.2897,-18.670664,-0.004505828,0.020576209,-0.00662899,0.0,0.0,0.0
880.7255,393.34033,126780833,0.7625,0.11702127,2429.8608,176.21996,-0.004505828,0.020576209,-0.00662899,0.0,0.0,0.0
918.1648,397.9922,126780850,0.77500004,0.14893617,2977.8037,316.34637,-0.004505828,0.020576209,-0.00662899,0.0,0.0,0.0
965.3602,402.5979,126780866,0.7,0.11702127,3405.5488,409.0315,-0.004505828,0.020576209,-0.00662899,0.0,0.0,0.0
988.1561,404.1454,126780876,0.2875,0.11702127,3488.4802,397.2986,-0.004505828,0.020576209,-0.00662899,0.0,0.0,0.0
988.1561,404.1454,126780883,0.2875,0.11702127,3488.4802,397.2986,-0.004505828,0.020576209,-0.00662899,0.0,0.0,0.0
1095.6212,406.8108,126781053,0.8125,0.12765957,0.0,0.0,-0.003604658,0.032460973,0.042696953,0.0,0.0,0.0
1095.6212,406.8108,126781081,0.90000004,0.14893617,0.028398149,0.0066926833,-0.003604658,0.032460973,0.042696953,0.0,0.0,0.0
1095.6212,406.8108,126781117,0.8875,0.14893617,0.0074979346,0.0029124387,-0.003604658,0.032460973,0.042696953,0.0,0.0,0.0
1076.5765,417.79028,126781134,0.7875,0.10638297,-702.8724,405.22333,-0.003604658,0.032460973,0.042696953,0.0,0.0,0.0
1061.8558,429.71326,126781150,0.7875,0.10638297,-1178.9116,786.3409,-0.003604658,0.032460973,0.042696953,0.0,0.0,0.0
1047.263,443.57178,126781167,0.77500004,0.12765957,-1408.373,1105.4586,-0.003604658,0.032460973,0.042696953,0.0,0.0,0.0
1035.6135,466.18506,126781184,0.7375,0.11702127,-986.61816,1363.1091,-0.003604658,0.032460973,0.042696953,0.0,0.0,0.0
1029.1342,485.6327,126781200,0.75,0.11702127,-691.90784,1516.6305,-0.003604658,0.032460973,0.042696953,0.0,0.0,0.0
1027.3439,500.28784,126781217,0.7625,0.12765957,-102.51562,1308.1992,-0.003604658,0.032460973,0.042696953,0.0,0.0,0.0
1028.1411,515.194,126781234,0.7375,0.12765957,200.35023,998.6752,-0.003604658,0.032460973,0.042696953,0.0,0.0,0.0
1031.3058,527.56665,126781251,0.7625,0.11702127,408.188,687.2496,-0.003604658,0.032460973,0.042696953,0.0,0.0,0.0
1034.7828,532.9518,126781267,0.8,0.10638297,450.1469,367.2003,-0.003604658,0.032460973,0.042696953,0.0,0.0,0.0
1044.1528,538.718,126781284,0.825,0.09574468,513.35834,206.30527,-0.003604658,0.032460973,0.042696953,0.0,0.0,0.0
1057.9125,540.97485,126781301,0.83750004,0.10638297,784.40515,3.0765047,-0.003604658,0.032460973,0.042696953,0.0,0.0,0.0
1070.4409,537.7031,126781317,0.825,0.14893617,999.24274,-212.07706,-0.003604658,0.032460973,0.042696953,0.0,0.0,0.0
1081.535,526.8662,126781334,0.8,0.14893617,1008.1918,-545.1176,-0.003604658,0.032460973,0.042696953,0.0,0.0,0.0
1088.6526,515.1564,126781351,0.77500004,0.12765957,682.1479,-926.8748,-0.003604658,0.032460973,0.042696953,0.0,0.0,0.0
1100.1143,492.87915,126781368,0.75,0.09574468,482.3889,-1332.6368,-0.003604658,0.032460973,0.042696953,0.0,0.0,0.0
1103.4491,466.95837,126781384,0.77500004,0.12765957,322.97653,-1719.0366,-0.003604658,0.032460973,0.042696953,0.0,0.0,0.0
1103.4711,450.65503,126781401,0.8125,0.10638297,95.21652,-1681.7108,-0.003604658,0.032460973,0.042696953,0.0,0.0,0.0
1099.3693,434.01807,126781418,0.8,0.10638297,-222.35535,-1376.9408,-0.003604658,0.032460973,0.042696953,0.0,0.0,0.0
1094.0046,420.9132,126781434,0.825,0.12765957,-559.5096,-806.5212,-0.003604658,0.032460973,0.042696953,0.0,0.0,0.0
1089.8276,412.08813,126781451,0.825,0.14893617,-565.22107,-438.94022,-0.003604658,0.032460973,0.042696953,0.0,0.0,0.0
1085.9077,408.3954,126781468,0.825,0.14893617,-390.6182,-200.45717,-0.003604658,0.032460973,0.042696953,0.0,0.0,0.0
1081.7524,406.8108,126781485,0.85,0.14893617,-258.3283,67.462746,-0.003604658,0.032460973,0.042696953,0.0,0.0,0.0
1078.864,408.16614,126781501,0.85,0.14893617,-190.48613,273.66266,-0.034883723,-0.00603123,0.018157005,0.0,0.0,0.0
1077.2045,411.8672,126781518,0.875,0.14893617,-130.40846,388.83105,-0.034883723,-0.00603123,0.018157005,0.0,0.0,0.0
1077.5895,415.56213,126781535,0.90000004,0.14893617,-20.757532,404.06906,-0.034883723,-0.00603123,0.018157005,0.0,0.0,0.0
1078.6285,417.4762,126781551,0.83750004,0.12765957,114.629326,322.55487,-0.034883723,-0.00603123,0.018157005,0.0,0.0,0.0
1083.9297,421.2589,126781568,0.77500004,0.10638297,272.61432,234.24141,-0.034883723,-0.00603123,0.018157005,0.0,0.0,0.0
1101.7915,433.61743,126781585,0.77500004,0.10638297,741.4003,439.8016,-0.034883723,-0.00603123,0.018157005,0.0,0.0,0.0
1125.8586,443.41223,126781602,0.75,0.12765957,1418.0792,700.4355,-0.034883723,-0.00603123,0.018157005,0.0,0.0,0.0
1151.6288,447.36572,126781618,0.75,0.08510638,1937.0688,676.2416,-0.034883723,-0.00603123,0.018157005,0.0,0.0,0.0
1175.7189,446.44446,126781635,0.7875,0.12765957,2060.837,300.6786,-0.034883723,-0.00603123,0.018157005,0.0,0.0,0.0
1199.4999,439.38403,126781652,0.8,0.11702127,1687.344,-429.86456,-0.034883723,-0.00603123,0.018157005,0.0,0.0,0.0
1217.0001,427.27246,126781668,0.8125,0.11702127,1253.9758,-876.2501,-0.034883723,-0.00603123,0.018157005,0.0,0.0,0.0
1228.2484,413.7821,126781685,0.7875,0.12765957,793.167,-1128.4332,-0.034883723,-0.00603123,0.018157005,0.0,0.0,0.0
1236.649,398.30164,126781702,0.77500004,0.12765957,343.7091,-1177.6873,-0.034883723,-0.00603123,0.018157005,0.0,0.0,0.0
1242.2343,382.45093,126781718,0.7875,0.11702127,93.9659,-1173.5686,-0.034883723,-0.00603123,0.018157005,0.0,0.0,0.0
1242.5734,371.96155,126781735,0.7625,0.12765957,-88.188896,-948.72107,-0.034883723,-0.00603123,0.018157005,0.0,0.0,0.0
1240.6317,362.64233,126781752,0.77500004,0.14893617,-251.50748,-652.7276,-0.034883723,-0.00603123,0.018157005,0.0,0.0,0.0
1237.5269,357.8861,126781769,0.825,0.12765957,-372.15637,-328.69778,-0.034883723,-0.00603123,0.018157005,0.0,0.0,0.0
1232.2988,354.19165,126781785,0.8625,0.12765957,-467.26218,-66.16271,-0.034883723,-0.00603123,0.018157005,0.0,0.0,0.0
1226.6238,353.66223,126781802,0.875,0.12765957,-460.78058,47.280895,-0.034883723,-0.00603123,0.018157005,0.0,0.0,0.0
1222.6848,355.97974,126781819,0.8625,0.12765957,-403.35977,201.4183,-0.034883723,-0.00603123,0.018157005,0.0,0.0,0.0
1219.5629,362.7245,126781835,0.9375,0.15957446,-290.3962,416.51752,-0.034883723,-0.00603123,0.018157005,0.0,0.0,0.0
1221.5042,368.09338,126781852,0.8875,0.14893617,-51.111996,555.18365,-0.034883723,-0.00603123,0.018157005,0.0,0.0,0.0
1226.059,372.1416,126781869,0.825,0.10638297,266.20023,475.1798,-0.034883723,-0.00603123,0.018157005,0.0,0.0,0.0
1238.9762,386.16797,126781886,0.7625,0.12765957,664.80994,564.9954,-0.034883723,-0.00603123,0.018157005,0.0,0.0,0.0
1260.8624,408.8407,126781902,0.8,0.12765957,1251.973,1062.6355,-0.034883723,-0.00603123,0.018157005,0.0,0.0,0.0
1283.8326,432.437,126781919,0.77500004,0.10638297,1748.385,1678.5555,-0.034883723,-0.00603123,0.018157005,0.0,0.0,0.0
1300.9019,453.05713,126781936,0.77500004,0.14893617,1747.4633,1857.9116,-0.034883723,-0.00603123,0.018157005,0.0,0.0,0.0
1316.1841,484.6819,126781952,0.8,0.10638297,1323.1937,1862.7277,-0.034883723,-0.00603123,0.018157005,0.0,0.0,0.0
1316.5703,507.83948,126781969,0.7875,0.12765957,487.5674,1703.9932,-0.034883723,-0.00603123,0.018157005,0.0,0.0,0.0
1305.6566,537.39905,126781986,0.8,0.11702127,-558.81537,1720.6816,-0.034883723,-0.00603123,0.018157005,0.0,0.0,0.0
1273.4983,565.66296,126782003,0.7875,0.12765957,-1710.3798,1753.3044,-0.034883723,-0.00603123,0.018157005,0.0,0.0,0.0
1217.9866,600.953,126782019,0.8125,0.10638297,-3255.1018,1930.2302,-0.034883723,-0.00603123,0.018157005,0.0,0.0,0.0
1147.8917,628.1603,126782036,0.77500004,0.11702127,-4713.899,1965.7574,-0.034883723,-0.00603123,0.018157005,0.0,0.0,0.0
1058.0265,667.5095,126782053,0.675,0.10638297,-6009.409,2171.1814,-0.034883723,-0.00603123,0.018157005,0.0,0.0,0.0
1006.65015,677.8043,126782058,0.2875,0.10638297,-6738.2417,2200.352,-0.0119069815,0.043175027,0.0145254135,0.0,0.0,0.0
1006.65015,677.8043,126782065,0.2875,0.10638297,-6738.2417,2200.352,-0.0119069815,0.043175027,0.0145254135,0.0,0.0,0.0
