x,y,timestamp,pressure,fingerarea,velocityx,velocityy,accelx,accely,accelz,gyrox,gyroy,gyroz
245.39798,114.493286,130325541,1.0875,0.08510638,0.0,0.0,-0.021541655,-0.0203906,0.0018224716,0.0,0.0,0.0
245.39798,114.493286,130325561,1.075,0.08510638,-0.07199847,-0.031453643,-0.021541655,-0.0203906,0.0018224716,0.0,0.0,0.0
245.39798,114.493286,130325578,1.125,0.10638297,-0.010915541,-0.0041793277,-0.021541655,-0.0203906,0.0018224716,0.0,0.0,0.0
245.39798,114.493286,130325594,1.15,0.12765957,-0.0012472204,-2.4466333E-4,-0.021541655,-0.0203906,0.0018224716,0.0,-0.0,0.0
251.73734,146.52258,130325612,1.1375,0.11702127,273.4847,1372.826,-0.021541655,-0.0203906,0.0018224716,0.0,-0.0,0.0
258.23557,178.2904,130325628,1.1125001,0.12765957,431.9037,2174.9075,-0.021541655,-0.0203906,0.0018224716,0.0,-0.0,0.0
269.20718,217.89099,130325645,1.1,0.09574468,667.1557,2907.3037,-0.021541655,-0.0203906,0.0018224716,0.0,-0.0,0.0
283.22937,257.99683,130325662,1.0625,0.12765957,894.20245,3128.81,-0.021541655,-0.0203906,0.0018224716,0.0,0.0,0.0
298.85693,301.4353,130325678,1.0375,0.10638297,1072.4047,2993.5063,-0.021541655,-0.0203906,0.0018224716,0.0,0.0,0.0
311.5702,342.3026,130325695,1.0500001,0.12765957,1065.542,2815.3018,-0.021541655,-0.0203906,0.0018224716,0.0,0.0,0.0
327.5533,383.3772,130325712,1.0375,0.10638297,1016.56726,2650.5588,-0.021541655,-0.0203906,0.0018224716,0.0,0.0,0.0
342.64148,413.28833,130325729,1.0375,0.09574468,918.9441,2114.655,-0.021541655,-0.0203906,0.0018224716,0.0,0.0,0.0
359.50937,443.89673,130325745,0.975,0.10638297,918.58234,1652.3411,-0.021541655,-0.0203906,0.0018224716,0.0,0.0,0.0
366.35486,453.47754,130325762,0.85,0.11702127,729.88727,880.84644,-0.021541655,-0.0203906,0.0018224716,0.0,0.0,0.0
391.27774,487.72046,130325779,0.71250004,0.08510638,969.49854,1085.9209,-0.021541655,-0.0203906,0.0018224716,0.0,0.0,0.0
399.34787,497.43823,130325782,0.475,0.12765957,1110.8445,1228.3907,-0.021541655,-0.0203906,0.0018224716,0.0,0.0,0.0
399.34787,497.43823,130325790,0.475,0.12765957,1110.8445,1228.3907,-0.021541655,-0.0203906,0.0018224716,0.0,0.0,0.0
162.92482,87.838135,130326242,1.075,0.10638297,0.0,0.0,0.006766677,-3.1250715E-4,0.017457008,0.0,0.0,0.0
162.92482,87.838135,130326263,1.0875,0.12765957,-0.013355071,-0.0065914937,0.006766677,-3.1250715E-4,0.017457008,0.0,0.0,0.0
162.92482,87.838135,130326280,1.0375,0.12765957,-0.014506627,-0.007634778,0.006766677,-3.1250715E-4,0.017457008,0.0,0.0,0.0
197.1903,64.06262,130326297,1.0,0.09574468,1910.5823,-1336.007,0.006766677,-3.1250715E-4,0.017457008,0.0,0.0,0.0
230.92908,49.10022,130326313,0.96250004,0.08510638,2711.6438,-1578.6241,0.006766677,-3.1250715E-4,0.017457008,0.0,0.0,0.0
263.36697,44.243286,130326330,0.925,0.08510638,2840.737,-1079.8917,0.006766677,-3.1250715E-4,0.017457008,0.0,0.0,0.0
291.36102,45.295166,130326347,0.925,0.08510638,2498.7544,-275.73184,0.006766677,-3.1250715E-4,0.017457008,0.0,0.0,0.0
316.42963,52.108032,130326364,0.875,0.08510638,1877.4142,474.122,0.006766677,-3.1250715E-4,0.017457008,0.0,0.0,0.0
336.89136,61.637573,130326380,0.90000004,0.09574468,1190.2216,1008.3598,0.006766677,-3.1250715E-4,0.017457008,0.0,0.0,0.0
351.74252,73.385254,130326397,0.8625,0.12765957,854.4283,1012.30634,0.021413341,0.01575002,-0.018033981,0.0,0.0,0.0
365.16394,96.25305,130326414,0.8625,0.09574468,607.74335,1225.9491,0.021413341,0.01575002,-0.018033981,0.0,0.0,0.0
375.11575,129.70459,130326430,0.83750004,0.12765957,499.27454,1936.4355,0.021413341,0.01575002,-0.018033981,0.0,0.0,0.0
373.97357,159.86072,130326447,0.8875,0.08510638,92.31202,2427.1562,0.021413341,0.01575002,-0.018033981,0.0,0.0,0.0
369.24063,178.30664,130326464,0.8875,0.12765957,-412.8432,2080.9666,0.021413341,0.01575002,-0.018033981,0.0,0.0,0.0
364.38483,190.62561,130326481,0.9125,0.10638297,-765.3717,1040.2736,0.021413341,0.01575002,-0.018033981,0.0,0.0,0.0
361.04138,196.0747,130326497,0.975,0.08510638,-702.1623,172.80983,0.021413341,0.01575002,-0.018033981,0.0,0.0,0.0
358.95825,197.92615,130326514,1.0,0.08510638,-327.57675,-288.01633,0.021413341,0.01575002,-0.018033981,0.0,0.0,0.0
358.3612,198.01257,130326531,1.0,0.08510638,-69.549194,-406.0917,0.021413341,0.01575002,-0.018033981,0.0,0.0,0.0
358.89777,198.01257,130326547,0.96250004,0.11702127,73.87651,-317.37732,0.021413341,0.01575002,-0.018033981,0.0,0.0,0.0
365.47495,196.09875,130326564,0.8625,0.11702127,278.75458,-245.22014,0.021413341,0.01575002,-0.018033981,0.0,0.0,0.0
385.4705,193.1471,130326581,0.8625,0.10638297,833.9571,-216.97365,0.021413341,0.01575002,-0.018033981,0.0,0.0,0.0
408.5479,189.17542,130326598,0.85,0.12765957,1451.835,-266.72067,0.021413341,0.01575002,-0.018033981,0.0,0.0,0.0
428.4708,188.23901,130326614,0.8625,0.12765957,1816.9559,-240.87292,0.021413341,0.01575002,-0.018033981,0.0,0.0,0.0
447.57336,188.65454,130326631,0.875,0.10638297,1662.3329,-78.3151,0.021413341,0.01575002,-0.018033981,0.0,0.0,0.0
463.6754,192.37,130326648,0.8625,0.10638297,1193.296,156.58372,0.021413341,0.01575002,-0.018033981,0.0,0.0,0.0
477.89075,200.46082,130326664,0.85,0.09574468,823.3692,452.7399,0.021413341,0.01575002,-0.018033981,0.0,0.0,0.0
489.31732,213.02673,130326681,0.85,0.08510638,576.55817,788.4744,0.021413341,0.01575002,-0.018033981,0.0,0.0,0.0
499.7594,226.55396,130326698,0.85,0.10638297,483.22083,1014.81946,0.021413341,0.01575002,-0.018033981,0.0,0.0,0.0
509.80566,248.70935,130326714,0.825,0.08510638,436.2842,1227.8206,0.021413341,0.01575002,-0.018033981,0.0,0.0,0.0
513.7528,272.13293,130326731,0.8875,0.08510638,340.3475,1595.4983,0.021413341,0.01575002,-0.018033981,0.0,0.0,0.0
510.75903,291.5857,130326748,0.90000004,0.09574468,-32.708515,1581.5826,0.021413341,0.01575002,-0.018033981,0.0,0.0,0.0
501.7281,317.7467,130326765,0.9125,0.07446808,-525.02167,1609.028,0.021413341,0.01575002,-0.018033981,0.0,0.0,0.0
491.33246,337.65674,130326781,0.875,0.12765957,-925.4937,1440.5826,0.021413341,0.01575002,-0.018033981,0.0,0.0,0.0
482.53546,349.3368,130326798,0.90000004,0.08510638,-982.6629,999.4051,0.021413341,0.01575002,-0.018033981,0.0,0.0,0.0
470.42297,367.21118,130326815,0.90000004,0.08510638,-875.5811,866.0361,0.021413341,0.01575002,-0.018033981,0.0,0.0,0.0
456.2193,382.47485,130326831,0.90000004,0.09574468,-869.93884,764.89594,0.021413341,0.01575002,-0.018033981,0.0,0.0,0.0
444.76288,391.75623,130326848,0.90000004,0.12765957,-857.9112,682.8532,0.021413341,0.01575002,-0.018033981,0.0,0.0,0.0
436.5565,398.0913,130326865,0.90000004,0.12765957,-719.7671,465.4073,0.021413341,0.01575002,-0.018033981,0.0,0.0,0.0
431.82925,401.18848,130326882,0.875,0.12765957,-370.2448,59.442425,0.021413341,0.01575002,-0.018033981,0.0,0.0,0.0
427.8386,403.25684,130326893,0.625,0.12765957,-216.12947,-84.07651,0.021413341,0.01575002,-0.018033981,0.0,0.0,0.0
427.8386,403.25684,130326900,0.625,0.12765957,-216.12947,-84.07651,0.021413341,0.01575002,-0.018033981,0.0,0.0,0.0
537.8028,451.23596,130327577,0.83750004,0.11702127,0.0,0.0,-0.023095459,-0.026720002,0.020458221,0.0,0.0,0.0
537.8028,451.23596,130327617,0.8,0.08510638,0.015671967,0.011073277,-0.023095459,-0.026720002,0.020458221,0.0,0.0,0.0
553.86835,420.01257,130327634,0.8,0.10638297,1009.80414,-1965.7307,-0.023095459,-0.026720002,0.020458221,0.0,0.0,0.0
572.9514,392.87256,130327650,0.77500004,0.08510638,1372.7589,-2260.705,-0.023095459,-0.026720002,0.020458221,6.710885E-6,0.0,0.0
594.79736,364.22656,130327667,0.77500004,0.12765957,1648.322,-2390.3774,-0.023095459,-0.026720002,0.020458221,6.710885E-6,0.0,0.0
621.04504,337.2683,130327684,0.7625,0.07446808,1816.6144,-2010.9976,-0.023095459,-0.026720002,0.020458221,6.710885E-6,0.0,0.0
649.7724,315.2915,130327700,0.75,0.08510638,1977.8407,-1772.256,-0.023095459,-0.026720002,0.020458221,6.710885E-6,0.0,0.0
676.1254,300.00378,130327717,0.75,0.12765957,1924.7561,-1131.1697,-0.023095459,-0.026720002,0.020458221,0.0,0.0,0.0
697.48,290.86865,130327734,0.725,0.10638297,1605.9158,-515.9379,-0.023095459,-0.026720002,0.020458221,0.0,0.0,0.0
711.93915,286.34705,130327751,0.75,0.09574468,1093.325,-62.397694,-0.023095459,-0.026720002,0.020458221,0.0,0.0,0.0
717.7368,285.97437,130327767,0.77500004,0.09574468,424.32907,231.34181,-0.023095459,-0.026720002,0.020458221,0.0,0.0,0.0
720.11597,286.8629,130327784,0.7875,0.10638297,-135.02786,371.60675,-0.023095459,-0.026720002,0.020458221,0.0,0.0,0.0
719.02594,288.47278,130327801,0.77500004,0.10638297,-409.98383,357.1234,-0.023095459,-0.026720002,0.020458221,0.0,0.0,0.0
706.59973,296.13184,130327817,0.77500004,0.12765957,-725.14844,410.6987,-0.023095459,-0.026720002,0.020458221,0.0,0.0,0.0
679.91016,308.1211,130327834,0.8,0.08510638,-1377.3187,663.55615,-0.023095459,-0.026720002,0.020458221,0.0,0.0,0.0
657.1898,321.9032,130327851,0.77500004,0.08510638,-1949.1626,967.71594,-0.023095459,-0.026720002,0.020458221,0.0,0.0,0.0
631.4024,340.74658,130327868,0.8,0.10638297,-2125.7688,1241.3813,-0.023095459,-0.026720002,0.020458221,0.0,0.0,0.0
609.7919,364.24414,130327884,0.8,0.07446808,-1842.6088,1487.7833,-0.023095459,-0.026720002,0.020458221,0.0,0.0,0.0
591.52716,391.5437,130327901,0.8,0.12765957,-1300.5558,1695.9246,-0.023095459,-0.026720002,0.020458221,0.0,0.0,0.0
578.3324,422.44373,130327918,0.7875,0.07446808,-911.17444,2060.5518,-0.023095459,-0.026720002,0.020458221,0.0,0.0,0.0
576.0095,439.74634,130327934,0.8,0.10638297,-282.90128,1744.677,-0.023095459,-0.026720002,0.020458221,0.0,0.0,0.0
578.4716,449.37854,130327951,0.8,0.12765957,330.3064,933.1577,-0.023095459,-0.026720002,0.020458221,0.0,0.0,0.0
586.5166,454.43323,130327968,0.77500004,0.12765957,755.4154,99.50925,-0.023095459,-0.026720002,0.020458221,0.0,0.0,0.0
610.2114,454.7284,130327984,0.77500004,0.10638297,1377.8225,-390.80902,-0.010476366,0.0026239753,-0.015633583,0.0,0.0,0.0
636.6297,442.1383,130328001,0.75,0.09574468,1839.2988,-680.48956,-0.010476366,0.0026239753,-0.015633583,0.0,0.0,0.0
660.5995,421.80908,130328018,0.725,0.06382979,2152.6602,-1285.918,-0.010476366,0.0026239753,-0.015633583,0.0,0.0,0.0
678.84106,393.3866,130328035,0.725,0.08510638,1853.9553,-1958.785,-0.010476366,0.0026239753,-0.015633583,0.0,0.0,0.0
699.74164,347.85718,130328051,0.725,0.09574468,1236.2373,-2684.7273,-0.010476366,0.0026239753,-0.015633583,0.0,0.0,0.0
706.07465,331.3058,130328068,0.725,0.07446808,672.13385,-2500.5806,-0.010476366,0.0026239753,-0.015633583,0.0,0.0,0.0
707.34326,321.72327,130328085,0.75,0.07446808,105.101364,-1486.8936,-0.010476366,0.0026239753,-0.015633583,0.0,0.0,0.0
707.74744,319.37598,130328101,0.77500004,0.07446808,-261.5296,-258.87997,-0.010476366,0.0026239753,-0.015633583,0.0,0.0,0.0
706.9065,320.6471,130328118,0.7375,0.08510638,-450.40524,643.1671,-0.010476366,0.0026239753,-0.015633583,0.0,0.0,0.0
700.4085,337.7179,130328135,0.75,0.12765957,-527.0942,1195.5223,-0.010476366,0.0026239753,-0.015633583,0.0,0.0,0.0
688.9796,370.4674,130328152,0.75,0.07446808,-660.6585,1877.3276,-0.010476366,0.0026239753,-0.015633583,0.0,0.0,0.0
679.4236,403.92236,130328168,0.75,0.10638297,-869.7375,2676.2322,-0.010476366,0.0026239753,-0.015633583,0.0,0.0,0.0
674.2648,428.38953,130328185,0.7625,0.06382979,-742.4329,2662.8215,-0.010476366,0.0026239753,-0.015633583,0.0,0.0,0.0
673.6263,442.7174,130328202,0.7875,0.09574468,-270.85962,1664.4579,-0.010476366,0.0026239753,-0.015633583,0.0,0.0,0.0
676.0638,449.11426,130328218,0.7875,0.10638297,214.83728,456.58307,-0.010476366,0.0026239753,-0.015633583,0.0,0.0,0.0
688.4008,453.72314,130328235,0.7625,0.12765957,633.24023,-216.79477,-0.010476366,0.0026239753,-0.015633583,0.0,0.0,0.0
713.09485,446.85303,130328252,0.725,0.09574468,1301.0586,-573.91846,-0.010476366,0.0026239753,-0.015633583,0.0,0.0,0.0
741.2495,429.22925,130328269,0.71250004,0.08510638,1987.1687,-1078.0552,-0.010476366,0.0026239753,-0.015633583,0.0,0.0,0.0
763.6622,399.17615,130328285,0.71250004,0.06382979,2147.0269,-1821.7677,-0.010476366,0.0026239753,-0.015633583,0.0,0.0,0.0
794.9258,339.02612,130328302,0.7,0.08510638,2108.3347,-3229.9973,-0.010476366,0.0026239753,-0.015633583,0.0,0.0,0.0
808.3936,295.26172,130328319,0.71250004,0.12765957,1503.0082,-3933.557,-0.010476366,0.0026239753,-0.015633583,0.0,0.0,0.0
812.21344,249.32922,130328335,0.71250004,0.12765957,650.80554,-3891.6033,-0.010476366,0.0026239753,-0.015633583,0.0,0.0,0.0
809.74457,212.13464,130328352,0.725,0.08510638,-322.27805,-2985.8782,-0.010476366,0.0026239753,-0.015633583,0.0,0.0,0.0
806.9335,192.91614,130328369,0.75,0.12765957,-815.1313,-1517.6702,-0.010476366,0.0026239753,-0.015633583,0.0,0.0,0.0
803.14044,182.43188,130328386,0.7625,0.09574468,-734.82306,-412.28088,-0.010476366,0.0026239753,-0.015633583,0.0,0.0,0.0
799.18854,176.8352,130328402,0.77500004,0.08510638,-476.76407,354.38666,-0.010476366,0.0026239753,-0.015633583,0.0,0.0,0.0
792.95264,172.68005,130328419,0.7875,0.08510638,-360.2673,496.64822,-0.010476366,0.0026239753,-0.015633583,0.0,0.0,0.0
787.63403,170.6156,130328436,0.7875,0.08510638,-381.89465,272.16104,-0.010476366,0.0026239753,-0.015633583,0.0,0.0,0.0
783.3126,170.469,130328452,0.8,0.08510638,-369.41058,168.12343,-0.010476366,0.0026239753,-0.015633583,0.0,0.0,0.0
780.18506,172.26892,130328469,0.825,0.09574468,-260.27936,167.84917,-0.010476366,0.0026239753,-0.015633583,0.0,0.0,0.0
774.40314,182.68848,130328486,0.8,0.10638297,-228.7256,449.48062,-0.010476366,0.0026239753,-0.015633583,0.0,0.0,0.0
767.0814,206.69446,130328502,0.8,0.07446808,-331.35657,1118.194,-0.010476366,0.0026239753,-0.015633583,0.0,0.0,0.0
760.58905,232.30066,130328519,0.77500004,0.12765957,-452.2488,1797.1923,-0.008381084,0.0020991862,-0.012506485,0.0,0.0,0.0
756.02234,259.60425,130328536,0.77500004,0.08510638,-434.01285,2175.536,-0.008381084,0.0020991862,-0.012506485,0.0,0.0,0.0
755.9426,277.7965,130328553,0.7625,0.11702127,-206.17923,1939.9852,-0.008381084,0.0020991862,-0.012506485,0.0,0.0,0.0
758.73535,295.32544,130328569,0.7625,0.11702127,166.58409,1171.2562,-0.008381084,0.0020991862,-0.012506485,0.0,0.0,0.0
762.6025,317.5741,130328586,0.77500004,0.07446808,389.14392,953.9864,-0.008381084,0.0020991862,-0.012506485,0.0,0.0,0.0
766.05835,346.66284,130328603,0.75,0.12765957,419.67273,1284.0718,-0.008381084,0.0020991862,-0.012506485,0.0,0.0,0.0
768.4564,374.76343,130328619,0.7625,0.07446808,316.78992,1783.9563,-0.008381084,0.0020991862,-0.012506485,0.0,0.0,0.0
768.52356,402.49536,130328636,0.75,0.12765957,113.547165,1977.7081,-0.008381084,0.0020991862,-0.012506485,0.0,0.0,0.0
770.61176,419.31934,130328653,0.75,0.06382979,9.430132,1584.5477,-0.008381084,0.0020991862,-0.012506485,0.0,0.0,0.0
774.195,429.8435,130328670,0.7625,0.06382979,72.697,863.1261,-0.008381084,0.0020991862,-0.012506485,0.0,0.0,0.0
777.36456,433.5901,130328686,0.7625,0.08510638,190.99727,115.99154,-0.008381084,0.0020991862,-0.012506485,0.0,0.0,0.0
783.08496,438.16577,130328703,0.77500004,0.10638297,333.8916,-199.77492,-0.008381084,0.0020991862,-0.012506485,0.0,0.0,0.0
789.90784,442.75793,130328720,0.75,0.10638297,434.74332,-163.94388,-0.008381084,0.0020991862,-0.012506485,0.0,0.0,0.0
794.1689,444.39417,130328736,0.75,0.11702127,416.05508,-22.707466,-0.008381084,0.0020991862,-0.012506485,0.0,0.0,0.0
796.90814,445.01648,130328753,0.7375,0.11702127,301.10147,12.354489,-0.008381084,0.0020991862,-0.012506485,0.0,0.0,0.0
797.2183,443.71558,130328770,0.7,0.08510638,49.00009,-97.88595,-0.008381084,0.0020991862,-0.012506485,0.0,0.0,0.0
794.2193,439.68542,130328782,0.4625,0.06382979,-107.37196,-224.00655,-0.008381084,0.0020991862,-0.012506485,0.0,0.0,0.0
794.2193,439.68542,130328789,0.4625,0.06382979,-107.37196,-224.00655,-0.008381084,0.0020991862,-0.012506485,0.0,0.0,0.0
878.19196,445.01648,130329874,0.725,0.08510638,0.0,0.0,-0.0053638965,-0.011456519,0.004796982,0.0,0.0,0.0
878.19196,445.01648,130329902,0.725,0.08510638,-0.055757076,-0.028241772,-0.0053638965,-0.011456519,0.004796982,0.0,0.0,0.0
878.19196,445.01648,130329923,0.71250004,0.06382979,0.07900208,0.039927993,-0.0053638965,-0.011456519,0.004796982,0.0,0.0,0.0
893.3929,409.72156,130329939,0.71250004,0.10638297,727.97546,-1678.6486,-0.0053638965,-0.011456519,0.004796982,0.0,0.0,0.0
903.7251,388.96704,130329956,0.675,0.08510638,950.7589,-2113.1716,-0.0053638965,-0.011456519,0.004796982,0.0,0.0,0.0
917.115,366.67786,130329973,0.71250004,0.12765957,1022.58307,-2023.7744,-0.0053638965,-0.011456519,0.004796982,0.0,0.0,0.0
931.51385,341.73022,130329990,0.7,0.06382979,1119.7971,-2012.3392,-0.0053638965,-0.011456519,0.004796982,0.0,0.0,0.0
948.1362,324.6499,130330006,0.71250004,0.06382979,996.78296,-1234.0846,-0.0053638965,-0.011456519,0.004796982,0.0,0.0,0.0
963.2865,313.339,130330023,0.7,0.09574468,1055.8231,-863.13196,-0.0053638965,-0.011456519,0.004796982,0.0,0.0,0.0
976.8489,306.39917,130330040,0.7,0.10638297,973.891,-408.6035,-0.0053638965,-0.011456519,0.004796982,0.0,0.0,0.0
988.173,301.46716,130330056,0.7,0.10638297,738.2272,73.289505,-0.0053638965,-0.011456519,0.004796982,0.0,0.0,0.0
995.3146,301.07898,130330073,0.7,0.10638297,513.42303,152.61838,-0.0053638965,-0.011456519,0.004796982,0.0,0.0,0.0
998.6034,301.07898,130330090,0.71250004,0.09574468,196.36624,220.1807,-0.0053638965,-0.011456519,0.004796982,0.0,0.0,0.0
998.6527,301.07898,130330102,0.7375,0.09574468,-13.401843,235.69403,-0.0053638965,-0.011456519,0.004796982,0.0,0.0,0.0
998.15295,301.07898,130330122,0.75,0.09574468,-247.03923,178.35605,-0.004291117,-0.009165227,0.0038375854,0.0,0.0,0.0
996.2727,301.07898,130330140,0.725,0.09574468,-287.58395,54.701683,-0.004291117,-0.009165227,0.0038375854,0.0,0.0,0.0
990.07605,302.24146,130330157,0.725,0.08510638,-377.55472,27.828161,-0.004291117,-0.009165227,0.0038375854,0.0,0.0,0.0
976.8485,308.37146,130330174,0.725,0.08510638,-664.1214,208.32764,-0.004291117,-0.009165227,0.0038375854,0.0,0.0,0.0
957.75757,320.34045,130330190,0.725,0.06382979,-1178.2161,594.1596,-0.004291117,-0.009165227,0.0038375854,0.0,0.0,0.0
940.4421,341.03174,130330207,0.7375,0.12765957,-1439.8955,1205.9288,-0.004291117,-0.009165227,0.0038375854,0.0,0.0,0.0
918.6344,376.1908,130330224,0.7375,0.08510638,-1454.0201,1911.7535,-0.004291117,-0.009165227,0.0038375854,0.0,0.0,0.0
902.02563,410.4757,130330240,0.7375,0.08510638,-1385.5815,2657.7678,-0.004291117,-0.009165227,0.0038375854,0.0,0.0,0.0
896.52,427.63843,130330257,0.7375,0.06382979,-803.6734,2314.617,-0.004291117,-0.009165227,0.0038375854,0.0,0.0,0.0
896.53564,438.8839,130330274,0.7375,0.08510638,-109.89611,1233.2438,-0.004291117,-0.009165227,0.0038375854,0.0,0.0,0.0
900.0921,446.6836,130330290,0.75,0.12765957,530.2525,178.77765,-0.004291117,-0.009165227,0.0038375854,0.0,0.0,0.0
909.30237,454.88733,130330307,0.725,0.11702127,862.03174,-158.83885,-0.004291117,-0.009165227,0.0038375854,0.0,0.0,0.0
924.03723,461.29614,130330324,0.71250004,0.09574468,1004.9759,112.96205,-0.004291117,-0.009165227,0.0038375854,0.0,0.0,0.0
941.4695,463.84326,130330341,0.7,0.09574468,1243.8054,148.7719,-0.004291117,-0.009165227,0.0038375854,0.0,0.0,0.0
958.1255,459.30164,130330357,0.7,0.12765957,1343.6235,-110.728424,-0.004291117,-0.009165227,0.0038375854,0.0,0.0,0.0
974.9098,444.43408,130330374,0.71250004,0.07446808,1281.9462,-659.4595,-0.004291117,-0.009165227,0.0038375854,0.0,0.0,0.0
986.68286,421.97522,130330391,0.6875,0.08510638,979.80145,-1309.6595,-0.004291117,-0.009165227,0.0038375854,0.0,0.0,0.0
997.8253,391.5105,130330407,0.7,0.06382979,717.96246,-2191.6333,-0.004291117,-0.009165227,0.0038375854,0.0,0.0,0.0
1002.9552,376.02368,130330424,0.71250004,0.06382979,378.56027,-2014.9694,-0.004291117,-0.009165227,0.0038375854,0.0,0.0,0.0
1006.23474,363.19336,130330441,0.7,0.09574468,79.44508,-1230.8043,-0.004291117,-0.009165227,0.0038375854,0.0,0.0,0.0
1006.9695,353.00708,130330458,0.725,0.10638297,-132.76108,-460.60712,-0.004291117,-0.009165227,0.0038375854,0.0,0.0,0.0
1004.9415,345.3047,130330474,0.7,0.09574468,-283.03107,-44.711163,-0.004291117,-0.009165227,0.0038375854,0.0,0.0,0.0
1000.9883,340.47192,130330491,0.7,0.08510638,-298.01263,-178.89435,-0.004291117,-0.009165227,0.0038375854,0.0,0.0,0.0
990.7582,334.8877,130330508,0.71250004,0.07446808,-541.46985,-137.55148,-0.004291117,-0.009165227,0.0038375854,0.0,0.0,0.0
978.2311,331.17932,130330524,0.71250004,0.08510638,-837.9441,-133.9053,-0.004291117,-0.009165227,0.0038375854,0.0,0.0,0.0
968.51013,328.49377,130330541,0.75,0.07446808,-927.2194,-130.85645,-0.004291117,-0.009165227,0.0038375854,0.0,0.0,0.0
962.56946,328.62256,130330558,0.75,0.06382979,-725.2236,-30.218817,-0.004291117,-0.009165227,0.0038375854,0.0,0.0,0.0
959.5908,328.62256,130330575,0.77500004,0.08510638,-329.34543,76.01382,-0.004291117,-0.009165227,0.0038375854,0.0,0.0,0.0
957.7097,329.91663,130330591,0.7875,0.10638297,3.2530413,148.67986,-0.004291117,-0.009165227,0.0038375854,0.0,0.0,0.0
955.66675,333.80847,130330608,0.77500004,0.12765957,70.39608,228.37247,-0.004291117,-0.009165227,0.0038375854,0.0,0.0,0.0
955.93036,337.08765,130330625,0.8,0.12765957,52.2929,284.0948,-0.004291117,-0.009165227,0.0038375854,0.0,0.0,0.0
956.7268,338.0055,130330641,0.8,0.12765957,76.41585,228.67352,-0.004291117,-0.009165227,0.0038375854,0.0,0.0,0.0
960.1072,339.28455,130330658,0.7625,0.12765957,195.61581,108.12154,-0.004291117,-0.009165227,0.0038375854,0.0,0.0,0.0
964.2147,340.86206,130330675,0.7625,0.12765957,313.97247,12.7507105,0.028567106,-0.015332177,0.0030698776,0.0,0.0,0.0
969.13904,341.76416,130330692,0.75,0.12765957,358.7958,15.09075,0.028567106,-0.015332177,0.0030698776,0.0,0.0,0.0
974.51465,341.95007,130330708,0.75,0.12765957,403.22818,34.304775,0.028567106,-0.015332177,0.0030698776,0.0,0.0,0.0
979.2179,341.95007,130330725,0.75,0.10638297,366.26712,-0.046627324,0.028567106,-0.015332177,0.0030698776,0.0,0.0,0.0
984.416,340.08118,130330742,0.7375,0.09574468,330.33118,-79.74375,0.028567106,-0.015332177,0.0030698776,0.0,0.0,0.0
988.5126,338.2378,130330758,0.75,0.08510638,288.07446,-147.95631,0.028567106,-0.015332177,0.0030698776,0.0,0.0,0.0
992.05225,336.3838,130330775,0.7625,0.08510638,228.79498,-169.63655,0.028567106,-0.015332177,0.0030698776,0.0,0.0,0.0
997.0248,332.44568,130330792,0.75,0.06382979,229.35162,-215.19788,0.028567106,-0.015332177,0.0030698776,0.0,0.0,0.0
1001.4938,329.1371,130330809,0.7375,0.06382979,249.36674,-246.19305,0.028567106,-0.015332177,0.0030698776,0.0,0.0,0.0
1006.90784,326.8401,130330825,0.7375,0.07446808,307.9196,-216.12202,0.028567106,-0.015332177,0.0030698776,0.0,0.0,0.0
1012.32104,324.57312,130330842,0.7375,0.08510638,345.93698,-166.63269,0.028567106,-0.015332177,0.0030698776,0.0,0.0,0.0
1017.95386,322.12988,130330859,0.725,0.08510638,365.4843,-107.319565,0.028567106,-0.015332177,0.0030698776,0.0,0.0,0.0
1021.9287,319.4856,130330875,0.75,0.08510638,309.517,-117.56569,0.028567106,-0.015332177,0.0030698776,0.0,0.0,0.0
1025.3273,316.3711,130330892,0.7625,0.08510638,224.97968,-173.98471,0.028567106,-0.015332177,0.0030698776,0.0,0.0,0.0
1028.4894,313.69995,130330909,0.7375,0.08510638,151.32617,-181.43062,0.028567106,-0.015332177,0.0030698776,0.0,0.0,0.0
1030.6119,311.76794,130330925,0.7375,0.08510638,99.983246,-160.97012,0.028567106,-0.015332177,0.0030698776,0.0,0.0,0.0
1033.7885,309.89856,130330942,0.7375,0.08510638,115.686165,-110.9256,0.028567106,-0.015332177,0.0030698776,0.0,0.0,0.0
1038.5076,307.037,130330959,0.75,0.10638297,198.76912,-114.087234,0.028567106,-0.015332177,0.0030698776,0.0,0.0,0.0
1041.6598,304.16992,130330976,0.7375,0.10638297,242.71336,-150.5982,0.028567106,-0.015332177,0.0030698776,0.0,0.0,0.0
1043.3202,302.5326,130330992,0.7,0.09574468,212.37659,-154.0141,0.028567106,-0.015332177,0.0030698776,0.0,0.0,0.0
1043.1383,302.85596,130331006,0.4625,0.08510638,116.83381,-106.64132,0.028567106,-0.015332177,0.0030698776,0.0,0.0,0.0
1043.1383,302.85596,130331013,0.4625,0.08510638,116.83381,-106.64132,0.028567106,-0.015332177,0.0030698776,0.0,0.0,0.0
1025.6439,502.76917,130333401,0.675,0.09574468,0.0,0.0,0.018320858,-0.031507224,-0.025643349,0.0,0.0,0.0
1025.6439,502.76917,130333432,0.71250004,0.11702127,-0.031324748,-0.019340277,0.018320858,-0.031507224,-0.025643349,0.0,0.0,0.0
1025.6439,502.76917,130333436,0.71250004,0.09574468,-0.054700665,-0.020143291,0.018320858,-0.031507224,-0.025643349,0.0,0.0,0.0
1025.6439,502.76917,130333464,0.71250004,0.08510638,0.058341146,0.026671164,0.018320858,-0.031507224,-0.025643349,0.0,0.0,0.0
1025.6439,502.76917,130333477,0.6875,0.08510638,-0.014842277,-0.009105118,0.018320858,-0.031507224,-0.025643349,0.0,0.0,0.0
1028.211,481.09424,130333499,0.6875,0.08510638,68.69427,-580.5918,0.018320858,-0.031507224,-0.025643349,0.0,0.0,0.0
1030.027,473.17676,130333516,0.6875,0.11702127,146.26903,-1008.162,0.018320858,-0.031507224,-0.025643349,0.0,0.0,0.0
1035.4374,458.5299,130333532,0.6875,0.10638297,262.2785,-1135.873,0.018320858,-0.031507224,-0.025643349,0.0,0.0,0.0
1044.4624,439.5265,130333549,0.7,0.06382979,533.1633,-1208.124,0.018320858,-0.031507224,-0.025643349,0.0,0.0,0.0
1055.2831,423.27197,130333566,0.7,0.08510638,699.84564,-1148.9678,0.018320858,-0.031507224,-0.025643349,0.0,0.0,0.0
1068.6,405.1432,130333582,0.71250004,0.11702127,895.1315,-1103.8857,0.018320858,-0.031507224,-0.025643349,0.0,0.0,0.0
1082.0892,389.83228,130333599,0.6875,0.08510638,982.41327,-1077.4021,0.018320858,-0.031507224,-0.025643349,0.0,0.0,0.0
1091.9065,379.08557,130333616,0.7,0.06382979,857.4308,-780.86237,0.018320858,-0.031507224,-0.025643349,0.0,0.0,0.0
1101.8085,369.8003,130333633,0.7,0.06382979,678.55005,-563.8075,0.018320858,-0.031507224,-0.025643349,0.0,0.0,0.0
1111.6793,360.54614,130333649,0.71250004,0.10638297,514.71295,-369.47217,0.018320858,-0.031507224,-0.025643349,0.0,0.0,0.0
1120.4967,351.2975,130333666,0.71250004,0.11702127,472.38635,-372.3095,0.018320858,-0.031507224,-0.025643349,0.0,0.0,0.0
1132.005,341.15417,130333683,0.7,0.09574468,563.93756,-502.69775,0.018320858,-0.031507224,-0.025643349,0.0,0.0,0.0
1144.1135,331.94836,130333699,0.71250004,0.06382979,683.9652,-574.1608,0.018320858,-0.031507224,-0.025643349,0.0,0.0,0.0
1153.6191,326.83545,130333716,0.725,0.06382979,690.8438,-458.19464,0.018320858,-0.031507224,-0.025643349,0.0,0.0,0.0
1160.132,323.81335,130333733,0.71250004,0.06382979,562.2647,-249.23743,0.018320858,-0.031507224,-0.025643349,0.0,0.0,0.0
1164.5656,321.9735,130333750,0.71250004,0.06382979,280.78583,-12.210932,0.018320858,-0.031507224,-0.025643349,0.0,0.0,0.0
1167.6448,320.1399,130333766,0.7375,0.06382979,88.65222,48.763992,0.018320858,-0.031507224,-0.025643349,0.0,0.0,0.0
1168.9135,318.28735,130333783,0.7375,0.06382979,-22.002474,2.0619202,0.018320858,-0.031507224,-0.025643349,0.0,0.0,0.0
1169.597,317.96057,130333800,0.75,0.06382979,-62.10113,-22.490417,0.018320858,-0.031507224,-0.025643349,0.0,0.0,0.0
1169.597,317.07202,130333816,0.75,0.06382979,-86.12796,-21.078905,0.018320858,-0.031507224,-0.025643349,0.0,0.0,0.0
1169.597,315.73926,130333830,0.7375,0.06382979,-83.10003,-28.330496,0.018320858,-0.031507224,-0.025643349,0.0,0.0,0.0
1168.6133,316.18347,130333850,0.7375,0.06382979,-74.27518,-2.8765402,0.018320858,-0.031507224,-0.025643349,0.0,0.0,0.0
1167.0405,316.18347,130333867,0.725,0.06382979,-96.05365,9.514354,0.018320858,-0.031507224,-0.025643349,0.0,0.0,0.0
1164.3778,316.18347,130333883,0.725,0.06382979,-151.6894,18.511444,-0.017343298,0.014794201,-0.036515236,0.0,0.0,0.0
1160.6615,317.26685,130333900,0.7375,0.07446808,-229.74779,50.234875,-0.017343298,0.014794201,-0.036515236,0.0,0.0,0.0
1155.8616,320.26355,130333917,0.7375,0.07446808,-308.58633,122.242775,-0.017343298,0.014794201,-0.036515236,0.0,0.0,0.0
1149.9279,323.9879,130333933,0.725,0.09574468,-385.4156,246.58047,-0.017343298,0.014794201,-0.036515236,0.0,0.0,0.0
1144.0187,329.4502,130333950,0.7375,0.09574468,-417.1976,359.82925,-0.017343298,0.014794201,-0.036515236,0.0,0.0,0.0
1136.3054,336.67236,130333967,0.725,0.12765957,-471.13824,459.68982,-0.017343298,0.014794201,-0.036515236,0.0,0.0,0.0
1129.1787,344.1106,130333983,0.7375,0.10638297,-487.0508,519.85504,-0.017343298,0.014794201,-0.036515236,0.0,0.0,0.0
1119.6718,354.50452,130334000,0.75,0.08510638,-536.2366,610.13727,-0.017343298,0.014794201,-0.036515236,0.0,0.0,0.0
1110.0486,363.3346,130334017,0.7375,0.06382979,-613.1297,666.58234,-0.017343298,0.014794201,-0.036515236,0.0,0.0,0.0
1102.6787,371.4485,130334034,0.75,0.07446808,-580.8765,598.86774,-0.017343298,0.014794201,-0.036515236,0.0,0.0,0.0
1095.8383,379.01,130334050,0.725,0.09574468,-489.91345,507.89752,-0.017343298,0.014794201,-0.036515236,0.0,0.0,0.0
1089.089,386.41016,130334067,0.725,0.12765957,-368.82663,417.89075,-0.017343298,0.014794201,-0.036515236,0.0,0.0,0.0
1083.9357,391.9585,130334084,0.725,0.12765957,-287.45975,340.15256,-0.017343298,0.014794201,-0.036515236,0.0,0.0,0.0
1079.1835,397.50964,130334100,0.7375,0.10638297,-256.9726,309.6374,-0.017343298,0.014794201,-0.036515236,0.0,0.0,0.0
1071.4618,408.65454,130334117,0.725,0.06382979,-310.1129,404.81808,-0.017343298,0.014794201,-0.036515236,0.0,0.0,0.0
1066.2483,419.35486,130334134,0.725,0.06382979,-354.8493,617.0685,-0.017343298,0.014794201,-0.036515236,0.0,0.0,0.0
1061.2958,427.84448,130334151,0.725,0.06382979,-354.21616,714.26013,-0.017343298,0.014794201,-0.036515236,0.0,0.0,0.0
1057.3888,436.1194,130334167,0.75,0.08510638,-278.52734,634.6004,-0.017343298,0.014794201,-0.036515236,0.0,0.0,0.0
1054.5654,442.9795,130334184,0.7375,0.09574468,-152.61691,437.65488,-0.017343298,0.014794201,-0.036515236,0.0,0.0,0.0
1053.6349,448.5255,130334201,0.75,0.10638297,-51.234707,280.50446,-0.017343298,0.014794201,-0.036515236,0.0,0.0,0.0
1053.6349,453.3817,130334217,0.7375,0.10638297,40.607525,241.56128,-0.017343298,0.014794201,-0.036515236,0.0,0.0,0.0
1054.5343,457.9879,130334234,0.7375,0.09574468,118.22874,204.3579,-0.017343298,0.014794201,-0.036515236,0.0,0.0,0.0
1054.6345,462.5077,130334251,0.7375,0.08510638,124.72446,196.20673,-0.017343298,0.014794201,-0.036515236,0.0,0.0,0.0
1054.6345,467.17334,130334268,0.7375,0.06382979,69.08132,231.12845,-0.017343298,0.014794201,-0.036515236,0.0,0.0,0.0
1054.6345,471.76697,130334284,0.7375,0.06382979,6.8282614,268.4887,-0.017343298,0.014794201,-0.036515236,0.0,0.0,0.0
1054.6345,476.48853,130334301,0.7375,0.06382979,-13.880514,279.75134,-0.017343298,0.014794201,-0.036515236,0.0,0.0,0.0
1055.2471,480.06885,130334318,0.7375,0.06382979,1.8589774,254.68727,-0.017343298,0.014794201,-0.036515236,0.0,0.0,0.0
1056.2869,483.76562,130334334,0.7375,0.06382979,49.56147,217.04506,-0.017343298,0.014794201,-0.036515236,0.0,0.0,0.0
1057.2772,487.2865,130334351,0.75,0.06382979,78.08857,193.5071,-0.017343298,0.014794201,-0.036515236,0.0,0.0,0.0
1057.8612,489.84644,130334368,0.7375,0.08510638,72.44603,166.01042,-0.017343298,0.014794201,-0.036515236,0.0,0.0,0.0
1058.9004,492.58215,130334385,0.77500004,0.08510638,59.65143,141.8773,-0.017343298,0.014794201,-0.036515236,0.0,0.0,0.0
1059.9404,494.4309,130334401,0.7375,0.08510638,55.470078,113.06974,-0.017343298,0.014794201,-0.036515236,0.0,0.0,0.0
1060.9773,496.2738,130334418,0.75,0.09574468,66.65885,87.39354,0.018125355,0.02783537,0.00278759,0.0,0.0,0.0
1061.1324,497.43823,130334435,0.7625,0.09574468,48.9063,70.247665,0.018125355,0.02783537,0.00278759,0.0,0.0,0.0
1061.1324,497.43823,130334449,0.7625,0.09574468,12.250218,22.308563,0.018125355,0.02783537,0.00278759,0.0,0.0,0.0
1062.0997,499.1577,130334468,0.75,0.09574468,1.0209383,11.757803,0.018125355,0.02783537,0.00278759,0.0,0.0,0.0
1063.1394,501.00574,130334485,0.75,0.10638297,35.641487,61.575756,0.018125355,0.02783537,0.00278759,0.0,0.0,0.0
1064.1772,502.85046,130334501,0.75,0.12765957,71.126144,112.14606,0.018125355,0.02783537,0.00278759,0.0,0.0,0.0
1064.8811,504.10205,130334513,0.75,0.12765957,87.43359,141.17334,0.018125355,0.02783537,0.00278759,0.0,0.0,0.0
1065.1311,504.54614,130334533,0.75,0.12765957,54.982986,97.81704,0.018125355,0.02783537,0.00278759,0.0,0.0,0.0
1066.3104,505.75427,130334552,0.7625,0.12765957,27.674492,18.57411,0.018125355,0.02783537,0.00278759,0.0,0.0,0.0
1067.3075,506.63782,130334568,0.75,0.12765957,40.393024,23.084122,0.018125355,0.02783537,0.00278759,0.0,0.0,0.0
1068.3806,507.21167,130334585,0.7625,0.12765957,69.639854,45.66507,0.018125355,0.02783537,0.00278759,0.0,0.0,0.0
1069.9188,507.21167,130334602,0.75,0.12765957,93.79926,26.087158,0.018125355,0.02783537,0.00278759,0.0,0.0,0.0
1071.439,507.21167,130334618,0.7625,0.12765957,99.47798,-25.75477,0.018125355,0.02783537,0.00278759,0.0,0.0,0.0
1072.4896,507.21167,130334635,0.7625,0.12765957,92.12493,-34.30738,0.018125355,0.02783537,0.00278759,0.0,0.0,0.0
1073.5292,507.21167,130334652,0.7625,0.12765957,71.07932,-15.463862,0.018125355,0.02783537,0.00278759,0.0,0.0,0.0
1074.5732,507.21167,130334669,0.77500004,0.12765957,52.728867,0.032668937,0.018125355,0.02783537,0.00278759,0.0,0.0,0.0
1075.6178,507.21167,130334685,0.7625,0.12765957,48.58,0.0032134957,0.018125355,0.02783537,0.00278759,0.0,0.0,0.0
1077.6879,508.10022,130334702,0.75,0.12765957,87.11923,28.60273,0.018125355,0.02783537,0.00278759,0.0,0.0,0.0
1079.1969,508.10022,130334719,0.75,0.12765957,113.99926,30.553202,0.018125355,0.02783537,0.00278759,0.0,0.0,0.0
1081.3226,508.10022,130334735,0.75,0.12765957,131.22084,16.571814,0.018125355,0.02783537,0.00278759,0.0,0.0,0.0
1082.7928,508.10022,130334752,0.7375,0.12765957,123.55661,-2.0985885,0.018125355,0.02783537,0.00278759,0.0,0.0,0.0
1085.0488,508.10022,130334769,0.7375,0.12765957,117.156624,-14.16722,0.018125355,0.02783537,0.00278759,0.0,0.0,0.0
1086.3557,508.10022,130334786,0.75,0.12765957,102.789696,0.037120033,0.018125355,0.02783537,0.00278759,0.0,0.0,0.0
1087.3948,508.10022,130334802,0.75,0.12765957,77.37318,0.021145914,0.018125355,0.02783537,0.00278759,0.0,0.0,0.0
1088.4264,508.10022,130334819,0.7375,0.12765957,52.59758,0.06230042,0.018125355,0.02783537,0.00278759,0.0,0.0,0.0
1089.4683,508.10022,130334836,0.7375,0.12765957,40.657597,-0.009011192,0.018125355,0.02783537,0.00278759,0.0,0.0,0.0
1091.382,508.10022,130334852,0.75,0.12765957,68.95354,0.05266469,0.018125355,0.02783537,0.00278759,0.0,0.0,0.0
1093.0436,508.10022,130334869,0.7375,0.10638297,108.37923,0.010148994,0.018125355,0.02783537,0.00278759,0.0,0.0,0.0
1094.5565,508.10022,130334886,0.75,0.10638297,116.95784,0.033075225,0.018125355,0.02783537,0.00278759,0.0,0.0,0.0
1096.6404,508.10022,130334903,0.75,0.10638297,121.365295,-0.0284975,0.018125355,0.02783537,0.00278759,0.0,0.0,0.0
1098.724,508.10022,130334919,0.7375,0.10638297,125.67646,-0.017257337,0.018125355,0.02783537,0.00278759,0.0,0.0,0.0
1100.801,508.10022,130334936,0.7375,0.10638297,131.67,-0.04811385,-0.0014997125,0.0062682927,0.0022296906,0.0,0.0,0.0
1103.3828,506.97693,130334953,0.7375,0.10638297,155.37764,-26.136543,-0.0014997125,0.0062682927,0.0022296906,0.0,0.0,0.0
1105.4545,507.21167,130334969,0.7375,0.10638297,146.37099,-32.899902,-0.0014997125,0.0062682927,0.0022296906,0.0,0.0,0.0
1108.0348,505.95215,130334986,0.7375,0.09574468,149.70245,-55.07252,-0.0014997125,0.0062682927,0.0022296906,0.0,0.0,0.0
1110.8666,504.10168,130335003,0.7375,0.09574468,157.05339,-94.029274,-0.0014997125,0.0062682927,0.0022296906,0.0,0.0,0.0
1113.4933,502.24915,130335019,0.7375,0.09574468,165.66171,-127.06898,-0.0014997125,0.0062682927,0.0022296906,0.0,0.0,0.0
1116.0543,501.3241,130335036,0.7375,0.09574468,169.17508,-117.69581,-0.0014997125,0.0062682927,0.0022296906,0.0,0.0,0.0
1118.8525,500.33557,130335053,0.7375,0.08510638,168.09325,-74.635475,-0.0014997125,0.0062682927,0.0022296906,0.0,0.0,0.0
1120.9169,498.50085,130335070,0.725,0.08510638,148.5455,-65.84404,-0.0014997125,0.0062682927,0.0022296906,0.0,0.0,0.0
1123.4529,496.64404,130335086,0.71250004,0.08510638,129.61526,-92.176285,-0.0014997125,0.0062682927,0.0022296906,0.0,0.0,0.0
1125.5914,494.79053,130335103,0.725,0.07446808,130.04982,-128.71002,-0.0014997125,0.0062682927,0.0022296906,0.0,0.0,0.0
1127.6748,492.9386,130335120,0.7375,0.08510638,122.623215,-134.14587,-0.0014997125,0.0062682927,0.0022296906,0.0,0.0,0.0
1129.1837,491.0879,130335136,0.725,0.08510638,108.94336,-119.96433,-0.0014997125,0.0062682927,0.0022296906,0.0,0.0,0.0
1130.2257,489.23608,130335153,0.725,0.08510638,69.27051,-110.51802,-0.0014997125,0.0062682927,0.0022296906,0.0,0.0,0.0
1131.7604,487.3966,130335170,0.725,0.08510638,54.226162,-110.617386,-0.0014997125,0.0062682927,0.0022296906,0.0,0.0,0.0
1132.8077,485.53467,130335187,0.725,0.08510638,51.025368,-110.595345,-0.0014997125,0.0062682927,0.0022296906,0.0,0.0,0.0
1134.3402,483.69897,130335203,0.7375,0.08510638,70.10435,-110.909386,-0.0014997125,0.0062682927,0.0022296906,0.0,0.0,0.0
1135.8768,481.85608,130335220,0.7375,0.08510638,92.190926,-110.712585,-0.0014997125,0.0062682927,0.0022296906,0.0,0.0,0.0
1137.2274,480.00586,130335237,0.7375,0.08510638,89.01884,-110.61668,-0.0014997125,0.0062682927,0.0022296906,0.0,0.0,0.0
1139.299,478.1648,130335253,0.71250004,0.07446808,111.77892,-109.93899,-0.0014997125,0.0062682927,0.0022296906,0.0,0.0,0.0
1141.3623,476.3308,130335270,0.7375,0.07446808,125.90488,-108.68245,-0.0014997125,0.0062682927,0.0022296906,0.0,0.0,0.0
1143.4614,474.4651,130335287,0.725,0.08510638,139.11726,-110.38373,-0.0014997125,0.0062682927,0.0022296906,0.0,0.0,0.0
1145.5399,472.61768,130335304,0.725,0.08510638,142.62349,-111.24158,-0.0014997125,0.0062682927,0.0022296906,0.0,0.0,0.0
1147.6187,470.77026,130335320,0.7375,0.08510638,130.08241,-111.36727,-0.0014997125,0.0062682927,0.0022296906,0.0,0.0,0.0
1149.2032,468.91772,130335337,0.7375,0.10638297,108.890114,-111.156334,-0.0014997125,0.0062682927,0.0022296906,0.0,0.0,0.0
1150.7823,467.06995,130335354,0.7375,0.09574468,91.057106,-110.57302,-0.0014997125,0.0062682927,0.0022296906,0.0,0.0,0.0
1151.7324,465.2218,130335370,0.725,0.10638297,67.44448,-110.784164,-0.0014997125,0.0062682927,0.0022296906,0.0,0.0,0.0
1152.7733,463.3717,130335387,0.7375,0.10638297,49.24224,-110.42341,-0.0014997125,0.0062682927,0.0022296906,0.0,0.0,0.0
1153.787,461.56982,130335404,0.7375,0.10638297,43.974613,-109.71154,-0.0014997125,0.0062682927,0.0022296906,0.0,0.0,0.0
1154.1022,459.68213,130335420,0.7375,0.10638297,29.054638,-110.13403,-0.0014997125,0.0062682927,0.0022296906,0.0,0.0,0.0
1155.1749,455.92798,130335437,0.71250004,0.09574468,25.04885,-155.18605,-0.0014997125,0.0062682927,0.0022296906,0.0,0.0,0.0
1156.429,450.9602,130335454,0.71250004,0.08510638,53.923794,-274.47095,-0.0014997125,0.0062682927,0.0022296906,0.0,0.0,0.0
1156.6013,447.9574,130335471,0.71250004,0.08510638,51.363453,-309.45282,0.014800221,0.005014628,-0.014215469,0.0,0.0,0.0
1157.5117,443.71533,130335487,0.71250004,0.06382979,43.632996,-280.66522,0.014800221,0.005014628,-0.014215469,0.0,0.0,0.0
1158.0437,440.77698,130335504,0.725,0.06382979,28.223335,-210.43814,0.014800221,0.005014628,-0.014215469,0.0,0.0,0.0
1158.5905,437.94482,130335521,0.7375,0.06382979,16.854202,-151.91823,0.014800221,0.005014628,-0.014215469,0.0,0.0,0.0
1159.1005,436.07556,130335537,0.71250004,0.06382979,36.698193,-131.44984,0.014800221,0.005014628,-0.014215469,0.0,0.0,0.0
1160.1748,431.4237,130335554,0.71250004,0.06382979,48.33008,-175.64478,0.014800221,0.005014628,-0.014215469,0.0,0.0,0.0
1160.7198,428.5973,130335571,0.71250004,0.06382979,42.879723,-187.84721,0.014800221,0.005014628,-0.014215469,0.0,0.0,0.0
1161.0999,426.08667,130335588,0.71250004,0.06382979,40.389732,-197.99718,0.014800221,0.005014628,-0.014215469,0.0,0.0,0.0
1162.3431,421.93774,130335604,0.71250004,0.08510638,46.58185,-206.4707,0.014800221,0.005014628,-0.014215469,0.0,0.0,0.0
1163.0992,417.60327,130335621,0.725,0.09574468,58.019478,-235.93152,0.014800221,0.005014628,-0.014215469,0.0,0.0,0.0
1163.8125,414.04846,130335638,0.7375,0.10638297,54.731712,-270.3872,0.014800221,0.005014628,-0.014215469,0.0,0.0,0.0
1164.5988,410.18823,130335654,0.725,0.10638297,51.016674,-254.28116,0.014800221,0.005014628,-0.014215469,0.0,0.0,0.0
1164.9355,405.01428,130335671,0.7375,0.10638297,26.969473,-256.7773,0.014800221,0.005014628,-0.014215469,0.0,0.0,0.0
1165.0985,399.48474,130335688,0.725,0.09574468,11.15311,-308.75388,0.014800221,0.005014628,-0.014215469,0.0,0.0,0.0
1164.1815,394.66553,130335705,0.725,0.08510638,-28.385157,-357.09732,0.014800221,0.005014628,-0.014215469,0.0,0.0,0.0
1163.599,390.9275,130335721,0.7375,0.07446808,-71.20991,-309.3954,0.014800221,0.005014628,-0.014215469,0.0,0.0,0.0
1163.599,387.22327,130335738,0.725,0.06382979,-49.980793,-222.64397,0.014800221,0.005014628,-0.014215469,0.0,0.0,0.0
1163.0992,384.50928,130335755,0.725,0.06382979,-34.889103,-152.7238,0.014800221,0.005014628,-0.014215469,0.0,0.0,0.0
1162.5087,381.7716,130335771,0.7375,0.06382979,-16.224007,-128.33107,0.014800221,0.005014628,-0.014215469,0.0,0.0,0.0
1161.9552,379.01086,130335788,0.725,0.06382979,-21.88096,-130.49944,0.014800221,0.005014628,-0.014215469,0.0,0.0,0.0
1160.919,375.95837,130335805,0.7375,0.06382979,-55.507805,-133.75386,0.014800221,0.005014628,-0.014215469,0.0,0.0,0.0
1159.9238,373.6228,130335822,0.725,0.07446808,-72.0906,-148.22954,0.014800221,0.005014628,-0.014215469,0.0,0.0,0.0
1158.8889,371.78308,130335838,0.7375,0.07446808,-79.87508,-135.97572,0.014800221,0.005014628,-0.014215469,0.0,0.0,0.0
1158.6007,369.95203,130335855,0.75,0.08510638,-51.880505,-102.91809,0.014800221,0.005014628,-0.014215469,0.0,0.0,0.0
1158.6007,368.0504,130335872,0.7625,0.08510638,-4.9470806,-86.09783,0.014800221,0.005014628,-0.014215469,0.0,0.0,0.0
1158.6007,366.38403,130335888,0.75,0.07446808,19.061659,-81.97907,0.014800221,0.005014628,-0.014215469,0.0,0.0,0.0
1158.6007,365.9397,130335905,0.7625,0.08510638,28.290396,-67.43795,0.014800221,0.005014628,-0.014215469,0.0,0.0,0.0
1158.6007,365.9397,130335922,0.77500004,0.08510638,14.107387,-7.522169,0.014800221,0.005014628,-0.014215469,0.0,0.0,0.0
1159.5929,365.9397,130335939,0.77500004,0.06382979,23.936987,38.220573,0.014800221,0.005014628,-0.014215469,0.0,0.0,0.0
1160.6667,365.9397,130335955,0.77500004,0.06382979,64.91234,39.857563,0.014800221,0.005014628,-0.014215469,0.0,0.0,0.0
1162.1709,365.9397,130335972,0.8,0.06382979,104.36396,22.332273,0.014800221,0.005014628,-0.014215469,0.0,0.0,0.0
1163.8375,365.9397,130335989,0.8,0.07446808,121.53839,0.03250495,0.014800221,0.005014628,-0.014215469,0.0,0.0,0.0
1164.743,366.82825,130336005,0.7875,0.06382979,103.03845,22.687801,-0.02015981,0.0040116906,-0.011372566,0.0,0.0,0.0
1165.9359,368.01672,130336022,0.8,0.06382979,75.32018,58.91471,-0.02015981,0.0040116906,-0.011372566,0.0,0.0,0.0
1167.3363,370.3413,130336039,0.7875,0.07446808,67.625114,130.0678,-0.02015981,0.0040116906,-0.011372566,0.0,0.0,0.0
1168.3696,373.1267,130336056,0.77500004,0.07446808,70.55518,191.39297,-0.02015981,0.0040116906,-0.011372566,0.0,0.0,0.0
1169.2196,375.04224,130336072,0.8125,0.07446808,54.52744,190.67793,-0.02015981,0.0040116906,-0.011372566,0.0,0.0,0.0
1170.4523,377.8651,130336089,0.77500004,0.06382979,55.756508,173.1325,-0.02015981,0.0040116906,-0.011372566,0.0,0.0,0.0
1171.0966,381.53528,130336106,0.77500004,0.08510638,49.980648,187.0058,-0.02015981,0.0040116906,-0.011372566,0.0,0.0,0.0
1171.5197,385.214,130336122,0.77500004,0.08510638,33.434437,226.49731,-0.02015981,0.0040116906,-0.011372566,0.0,0.0,0.0
1171.5964,388.92883,130336139,0.7875,0.10638297,7.8619766,261.53403,-0.02015981,0.0040116906,-0.011372566,0.0,0.0,0.0
1172.6089,392.64062,130336156,0.7625,0.12765957,12.596321,254.96391,-0.02015981,0.0040116906,-0.011372566,0.0,0.0,0.0
1173.1506,397.2318,130336172,0.7625,0.12765957,31.699507,262.19443,-0.02015981,0.0040116906,-0.011372566,0.0,0.0,0.0
1174.19,402.87134,130336189,0.7625,0.10638297,59.48414,308.1147,-0.02015981,0.0040116906,-0.011372566,0.0,0.0,0.0
1174.0956,407.28223,130336206,0.75,0.08510638,41.53013,329.76654,-0.02015981,0.0040116906,-0.011372566,0.0,0.0,0.0
1174.0956,415.17407,130336223,0.75,0.07446808,8.463091,398.5151,-0.02015981,0.0040116906,-0.011372566,0.0,0.0,0.0
1174.0956,424.7046,130336239,0.75,0.07446808,-18.88538,522.5798,-0.02015981,0.0040116906,-0.011372566,0.0,0.0,0.0
1173.5958,433.0525,130336256,0.75,0.08510638,-38.59435,613.47437,-0.02015981,0.0040116906,-0.011372566,0.0,0.0,0.0
1173.8875,442.2782,130336273,0.75,0.09574468,-19.32915,632.731,-0.02015981,0.0040116906,-0.011372566,0.0,0.0,0.0
1174.5955,452.12646,130336289,0.75,0.12765957,21.922441,602.7369,-0.02015981,0.0040116906,-0.011372566,0.0,0.0,0.0
1175.4651,462.28796,130336306,0.7375,0.08510638,56.887737,604.3009,-0.02015981,0.0040116906,-0.011372566,0.0,0.0,0.0
1176.095,473.11975,130336323,0.75,0.07446808,76.0574,646.4865,-0.02015981,0.0040116906,-0.011372566,0.0,0.0,0.0
1174.6941,486.9635,130336340,0.725,0.06382979,14.392047,758.7481,-0.02015981,0.0040116906,-0.011372566,0.0,0.0,0.0
1172.6072,504.4381,130336356,0.75,0.10638297,-106.77929,952.10394,-0.02015981,0.0040116906,-0.011372566,0.0,0.0,0.0
1168.9525,523.0243,130336373,0.7375,0.06382979,-226.26172,1187.3071,-0.02015981,0.0040116906,-0.011372566,0.0,0.0,0.0
1164.7963,541.42944,130336390,0.7375,0.08510638,-311.97495,1297.9846,-0.02015981,0.0040116906,-0.011372566,0.0,0.0,0.0
1159.673,559.37524,130336406,0.75,0.10638297,-354.89597,1252.2668,-0.02015981,0.0040116906,-0.011372566,0.0,0.0,0.0
1152.383,578.41284,130336423,0.7375,0.07446808,-419.31094,1175.7322,-0.02015981,0.0040116906,-0.011372566,0.0,0.0,0.0
1143.5016,595.0314,130336440,0.75,0.09574468,-546.4652,1098.7515,-0.02015981,0.0040116906,-0.011372566,0.0,0.0,0.0
1134.6022,606.8927,130336457,0.7625,0.12765957,-612.17834,837.3306,-0.02015981,0.0040116906,-0.011372566,0.0,0.0,0.0
1122.5562,617.42615,130336473,0.7625,0.09574468,-721.6184,595.71436,-0.02015981,0.0040116906,-0.011372566,0.0,0.0,0.0
1112.0969,622.9015,130336490,0.77500004,0.09574468,-748.5391,300.21014,-0.02015981,0.0040116906,-0.011372566,0.0,0.0,0.0
1102.7684,624.49414,130336507,0.7625,0.10638297,-687.9326,27.673143,-0.02015981,0.0040116906,-0.011372566,0.0,0.0,0.0
1093.6245,622.2245,130336523,0.7375,0.12765957,-590.7916,-204.08061,-0.02015981,0.0040116906,-0.011372566,0.0,0.0,0.0
1082.8986,616.9098,130336540,0.75,0.10638297,-522.1888,-491.42908,-1.2785196E-4,-0.01279062,0.03890133,0.0,0.0,0.0
1072.3657,609.5768,130336557,0.7625,0.08510638,-588.86884,-625.3365,-1.2785196E-4,-0.01279062,0.03890133,0.0,0.0,0.0
1065.0491,603.9856,130336574,0.77500004,0.06382979,-571.61456,-600.89105,-1.2785196E-4,-0.01279062,0.03890133,0.0,0.0,0.0
1060.3999,598.41736,130336590,0.7625,0.06382979,-395.56418,-490.50317,-1.2785196E-4,-0.01279062,0.03890133,0.0,0.0,0.0
1057.9387,591.9889,130336607,0.7625,0.06382979,-141.18063,-398.4832,-1.2785196E-4,-0.01279062,0.03890133,0.0,0.0,0.0
1057.1337,586.459,130336624,0.75,0.08510638,57.43374,-336.99677,-1.2785196E-4,-0.01279062,0.03890133,0.0,0.0,0.0
1057.9785,582.1212,130336640,0.7625,0.09574468,157.02205,-296.26056,-1.2785196E-4,-0.01279062,0.03890133,0.0,0.0,0.0
1060.471,578.43555,130336657,0.75,0.10638297,219.63185,-239.01527,-1.2785196E-4,-0.01279062,0.03890133,0.0,0.0,0.0
1066.177,574.7174,130336674,0.7625,0.10638297,336.07797,-165.20238,-1.2785196E-4,-0.01279062,0.03890133,0.0,0.0,0.0
1075.79,572.4501,130336691,0.75,0.12765957,556.2973,-135.76907,-1.2785196E-4,-0.01279062,0.03890133,0.0,0.0,0.0
1088.8624,570.6045,130336707,0.725,0.10638297,830.7762,-91.585075,-1.2785196E-4,-0.01279062,0.03890133,0.0,0.0,0.0
1105.7911,568.11633,130336724,0.7375,0.10638297,1094.6644,-78.33014,-1.2785196E-4,-0.01279062,0.03890133,0.0,0.0,0.0
1120.3702,565.5338,130336741,0.71250004,0.12765957,1166.6877,-97.30063,-1.2785196E-4,-0.01279062,0.03890133,0.0,0.0,0.0
1137.0211,560.76245,130336757,0.71250004,0.11702127,1166.9982,-199.49722,-1.2785196E-4,-0.01279062,0.03890133,0.0,0.0,0.0
1149.0532,555.2179,130336774,0.725,0.08510638,979.5017,-336.5171,-1.2785196E-4,-0.01279062,0.03890133,0.0,0.0,0.0
1159.4484,546.9132,130336791,0.7375,0.06382979,677.27185,-478.60767,-1.2785196E-4,-0.01279062,0.03890133,0.0,0.0,0.0
1171.9338,536.74426,130336808,0.725,0.07446808,579.0909,-637.5324,-1.2785196E-4,-0.01279062,0.03890133,0.0,0.0,0.0
1181.517,528.8087,130336824,0.725,0.11702127,537.595,-671.9623,-1.2785196E-4,-0.01279062,0.03890133,0.0,0.0,0.0
1187.3936,524.71326,130336841,0.6875,0.09574468,448.18365,-499.25858,-1.2785196E-4,-0.01279062,0.03890133,0.0,0.0,0.0
1189.4775,524.09326,130336858,0.6625,0.09574468,212.03136,-174.60748,-1.2785196E-4,-0.01279062,0.03890133,0.0,0.0,0.0
1190.0905,524.09326,130336863,0.6125,0.08510638,119.36759,-48.582123,-1.2785196E-4,-0.01279062,0.03890133,0.0,0.0,0.0
1190.0905,524.09326,130336870,0.6125,0.08510638,119.36759,-48.582123,-1.2785196E-4,-0.01279062,0.03890133,0.0,0.0,0.0
1213.083,449.45898,130337988,0.8125,0.09574468,0.0,0.0,-0.016081825,0.0014139712,0.037697792,0.0,0.0,0.0
1213.083,449.45898,130338027,0.8,0.08510638,0.17608652,0.06370021,-0.016081825,0.0014139712,0.037697792,0.0,0.0,0.0
1213.083,449.45898,130338044,0.75,0.06382979,-0.013395494,-0.0066277315,-0.016081825,0.0014139712,0.037697792,0.0,0.0,0.0
1223.2415,432.4204,130338061,0.725,0.08510638,459.2741,-775.1967,-0.016081825,0.0014139712,0.037697792,0.0,0.0,0.0
1231.2012,420.0564,130338077,0.71250004,0.12765957,635.0412,-1031.0973,-0.016081825,0.0014139712,0.037697792,0.0,0.0,0.0
1238.7462,406.7661,130338094,0.71250004,0.11702127,679.03595,-1123.6427,-0.016081825,0.0014139712,0.037697792,0.0,0.0,0.0
1249.2865,389.90454,130338111,0.7,0.07446808,696.8552,-1143.5525,-0.016081825,0.0014139712,0.037697792,0.0,0.0,0.0
1258.1345,374.29895,130338128,0.71250004,0.08510638,592.07654,-988.5792,-0.016081825,0.0014139712,0.037697792,0.0,0.0,0.0
1271.7434,345.10535,130338144,0.7,0.09574468,733.84393,-1439.5376,-0.02086547,0.01713118,0.030158043,0.0,0.0,0.0
1278.299,330.31702,130338161,0.6875,0.06382979,698.1365,-1542.2498,-0.02086547,0.01713118,0.030158043,0.0,0.0,0.0
1283.6648,319.55127,130338178,0.71250004,0.08510638,436.1288,-1090.6218,-0.02086547,0.01713118,0.030158043,0.0,0.0,0.0
1291.5156,299.25806,130338194,0.7,0.12765957,290.09894,-800.2031,-0.02086547,0.01713118,0.030158043,0.0,0.0,0.0
1293.984,284.97144,130338211,0.71250004,0.09574468,163.5162,-709.0301,-0.02086547,0.01713118,0.030158043,0.0,0.0,0.0
1293.5856,274.73047,130338228,0.7,0.08510638,22.60475,-717.3882,-0.02086547,0.01713118,0.030158043,0.0,0.0,0.0
1291.0355,267.2633,130338245,0.71250004,0.08510638,-179.10422,-572.34375,-0.02086547,0.01713118,0.030158043,0.0,0.0,0.0
1285.1582,258.78455,130338261,0.75,0.10638297,-433.47375,-293.43207,-0.02086547,0.01713118,0.030158043,0.0,0.0,0.0
1271.3223,244.88843,130338278,0.725,0.12765957,-761.56775,-429.65344,-0.02086547,0.01713118,0.030158043,0.0,0.0,0.0
1257.1512,237.53735,130338295,0.7375,0.11702127,-1038.8413,-603.0729,-0.02086547,0.01713118,0.030158043,0.0,0.0,0.0
1246.5557,235.32971,130338311,0.77500004,0.12765957,-1072.3798,-431.17758,-0.02086547,0.01713118,0.030158043,0.0,0.0,0.0
1238.5857,235.70776,130338328,0.77500004,0.12765957,-826.26245,-58.91558,-0.02086547,0.01713118,0.030158043,0.0,0.0,0.0
1233.0736,238.88623,130338345,0.8,0.10638297,-334.2098,401.43698,-0.02086547,0.01713118,0.030158043,0.0,0.0,0.0
1227.6085,250.17053,130338362,0.8,0.08510638,-146.31981,644.75775,-0.02086547,0.01713118,0.030158043,0.0,0.0,0.0
1223.2544,266.68384,130338378,0.8,0.06382979,-142.13493,1017.6005,-0.02086547,0.01713118,0.030158043,0.0,0.0,0.0
1221.339,290.75183,130338395,0.77500004,0.10638297,-107.449524,1521.8518,-0.02086547,0.01713118,0.030158043,0.0,0.0,0.0
1219.1746,316.68787,130338412,0.77500004,0.06382979,-67.877815,1912.5906,-0.02086547,0.01713118,0.030158043,0.0,0.0,0.0
1219.9746,343.20178,130338428,0.77500004,0.10638297,27.722933,1980.9783,-0.02086547,0.01713118,0.030158043,0.0,0.0,0.0
1222.5613,368.4734,130338445,0.77500004,0.06382979,173.14447,1865.0684,-0.02086547,0.01713118,0.030158043,0.0,0.0,0.0
1228.3025,398.95154,130338462,0.7375,0.09574468,338.6055,1774.4121,-0.02086547,0.01713118,0.030158043,0.0,0.0,0.0
1234.515,432.12195,130338478,0.725,0.08510638,486.06436,1921.1671,-0.02086547,0.01713118,0.030158043,0.0,0.0,0.0
1240.6344,465.0846,130338495,0.71250004,0.09574468,536.3883,2111.2732,-0.02086547,0.01713118,0.030158043,0.0,0.0,0.0
1244.5284,486.26978,130338512,0.71250004,0.09574468,422.22232,1860.2665,-0.02086547,0.01713118,0.030158043,0.0,0.0,0.0
1247.453,497.90454,130338529,0.7375,0.12765957,252.60092,1137.3452,-0.02086547,0.01713118,0.030158043,0.0,0.0,0.0
1248.5714,502.2683,130338545,0.725,0.12765957,49.69346,79.91941,-0.02086547,0.01713118,0.030158043,0.0,0.0,0.0
1248.5714,502.2832,130338562,0.75,0.11702127,-57.13023,-457.0845,-0.02086547,0.01713118,0.030158043,0.0,0.0,0.0
1247.759,496.99243,130338579,0.725,0.08510638,-111.60089,-665.3091,-0.02086547,0.01713118,0.030158043,0.0,0.0,0.0
1245.8688,487.20483,130338595,0.71250004,0.08510638,-165.74362,-821.6312,-0.02086547,0.01713118,0.030158043,0.0,0.0,0.0
1244.186,474.85718,130338612,0.7,0.09574468,-180.94443,-976.8201,-0.02086547,0.01713118,0.030158043,0.0,0.0,0.0
1244.4982,458.64807,130338629,0.71250004,0.12765957,-110.875244,-1130.2722,-0.02086547,0.01713118,0.030158043,0.0,0.0,0.0
1248.4303,444.47925,130338646,0.7,0.08510638,74.921074,-1170.0646,-0.02086547,0.01713118,0.030158043,0.0,0.0,0.0
1252.1184,436.93445,130338662,0.7,0.07446808,291.9876,-845.36743,-0.02086547,0.01713118,0.030158043,0.0,0.0,0.0
1256.8356,428.54944,130338679,0.7375,0.08510638,396.15024,-520.6049,-0.01669237,-0.01829505,-0.007873535,0.0,0.0,0.0
1262.0111,421.28406,130338696,0.7375,0.09574468,409.0921,-293.96518,-0.01669237,-0.01829505,-0.007873535,0.0,0.0,0.0
1267.0675,417.02673,130338712,0.75,0.09574468,373.43628,-181.08931,-0.01669237,-0.01829505,-0.007873535,0.0,0.0,0.0
1271.238,414.80737,130338729,0.7625,0.09574468,310.9782,-128.79216,-0.01669237,-0.01829505,-0.007873535,0.0,0.0,0.0
1274.8739,415.16772,130338746,0.7625,0.08510638,252.65428,21.642233,-0.01669237,-0.01829505,-0.007873535,0.0,0.0,0.0
1277.5656,417.03186,130338763,0.7625,0.07446808,160.56763,225.37009,-0.01669237,-0.01829505,-0.007873535,0.0,0.0,0.0
1280.132,420.26428,130338779,0.75,0.07446808,114.51233,300.534,-0.01669237,-0.01829505,-0.007873535,0.0,0.0,0.0
1284.4799,427.99304,130338796,0.71250004,0.07446808,140.83282,406.4662,-0.01669237,-0.01829505,-0.007873535,0.0,0.0,0.0
1289.4692,435.97363,130338813,0.71250004,0.11702127,255.29727,585.3939,-0.01669237,-0.01829505,-0.007873535,0.0,0.0,0.0
1296.253,442.70447,130338829,0.71250004,0.12765957,381.00827,630.76666,-0.01669237,-0.01829505,-0.007873535,0.0,0.0,0.0
1305.5457,444.12793,130338846,0.7,0.10638297,544.78625,420.49017,-0.01669237,-0.01829505,-0.007873535,0.0,0.0,0.0
1315.5236,439.69934,130338863,0.7,0.08510638,663.6568,-51.83842,-0.01669237,-0.01829505,-0.007873535,0.0,0.0,0.0
1326.0032,434.13306,130338880,0.675,0.06382979,717.7075,-501.13025,-0.01669237,-0.01829505,-0.007873535,0.0,0.0,0.0
1334.7516,427.57556,130338896,0.675,0.07446808,689.00305,-641.80237,-0.01669237,-0.01829505,-0.007873535,0.0,0.0,0.0
1341.9391,423.23645,130338913,0.65000004,0.08510638,531.3134,-571.3333,-0.01669237,-0.01829505,-0.007873535,0.0,0.0,0.0
1346.761,420.7063,130338930,0.6375,0.09574468,350.03067,-326.23364,-0.01669237,-0.01829505,-0.007873535,0.0,0.0,0.0
1349.0387,419.24988,130338936,0.55,0.11702127,288.67328,-236.9014,-0.01669237,-0.01829505,-0.007873535,0.0,0.0,0.0
1349.0387,419.24988,130338943,0.55,0.11702127,288.67328,-236.9014,-0.01669237,-0.01829505,-0.007873535,0.0,0.0,0.0
