x,y,timestamp,pressure,fingerarea,velocityx,velocityy,accelx,accely,accelz,gyrox,gyroy,gyroz
237.40057,138.48291,130314531,1.075,0.12765957,0.0,0.0,-0.022239178,-0.008004636,0.025701523,0.0,0.0,0.0
237.40057,138.48291,130314549,1.0875,0.12765957,-0.018985363,-0.015791813,-0.022239178,-0.008004636,0.025701523,0.0,0.0,0.0
237.40057,138.48291,130314566,1.1125001,0.12765957,0.002192792,7.2336255E-4,-0.022239178,-0.008004636,0.025701523,0.0,0.0,0.0
237.40057,138.48291,130314583,1.125,0.10638297,-0.0041496176,-0.0023280047,-0.022239178,-0.008004636,0.025701523,0.0,0.0,0.0
247.73947,166.2815,130314600,1.0,0.08510638,448.40637,1202.2515,-0.022239178,-0.008004636,0.025701523,0.0,0.0,0.0
258.95474,203.56104,130314616,0.95,0.09574468,776.84875,2294.6355,-0.022239178,-0.008004636,0.025701523,0.0,0.0,0.0
266.75275,238.43542,130314633,0.95,0.12765957,900.2629,3103.6814,-0.022239178,-0.008004636,0.025701523,0.0,0.0,0.0
273.14746,273.5758,130314650,0.975,0.08510638,658.0594,3027.1802,-0.001791358,0.02559629,0.036561012,0.0,0.0,0.0
281.6259,309.6272,130314666,1.0125,0.10638297,439.06387,2542.277,-0.001791358,0.02559629,0.036561012,0.0,0.0,0.0
292.91666,343.3363,130314683,0.9875,0.09574468,425.58936,2048.804,-0.001791358,0.02559629,0.036561012,0.0,0.0,0.0
303.8922,377.53516,130314700,0.96250004,0.08510638,666.22565,1993.7784,-0.001791358,0.02559629,0.036561012,0.0,0.0,0.0
313.78458,404.4193,130314717,0.9875,0.11702127,744.34937,1814.6034,-0.001791358,0.02559629,0.036561012,0.0,0.0,0.0
325.40884,432.06177,130314733,0.9875,0.08510638,716.8928,1590.9164,-0.001791358,0.02559629,0.036561012,0.0,0.0,0.0
333.18036,446.45752,130314750,0.975,0.10638297,593.3663,1118.7927,-0.001791358,0.02559629,0.036561012,0.0,0.0,0.0
343.46384,463.47607,130314767,0.9875,0.08510638,521.6081,732.03156,-0.001791358,0.02559629,0.036561012,0.0,0.0,0.0
354.61652,485.45068,130314783,0.975,0.08510638,588.8181,762.1128,-0.001791358,0.02559629,0.036561012,0.0,0.0,0.0
359.8243,493.84106,130314800,0.95,0.12765957,503.71124,735.6664,-0.001791358,0.02559629,0.036561012,0.0,0.0,0.0
366.7947,501.62036,130314817,0.8875,0.12765957,393.01477,558.8305,-0.001791358,0.02559629,0.036561012,0.0,0.0,0.0
378.92722,514.4059,130314834,0.77500004,0.09574468,443.7955,371.64423,-0.001791358,0.02559629,0.036561012,0.0,0.0,0.0
387.74023,525.0554,130314850,0.6125,0.08510638,577.1507,407.32794,-0.001791358,0.02559629,0.036561012,0.0,0.0,0.0
388.35144,525.87024,130314852,0.2375,0.053191487,571.8833,424.34442,-0.001791358,0.02559629,0.036561012,0.0,0.0,0.0
388.35144,525.87024,130314861,0.2375,0.053191487,571.8833,424.34442,-0.001791358,0.02559629,0.036561012,0.0,0.0,0.0
185.4175,134.92883,130315247,1.0375,0.10638297,0.0,0.0,-0.017433077,0.03647703,-0.018751144,0.0,0.0,0.0
185.4175,134.92883,130315285,1.0375,0.12765957,0.009584662,0.006327789,-0.017433077,0.03647703,-0.018751144,0.0,0.0,0.0
185.4175,134.92883,130315301,0.9875,0.10638297,-0.004713903,-0.0031608953,-0.017433077,0.03647703,-0.018751144,0.0,0.0,0.0
185.4175,134.92883,130315318,0.975,0.11702127,-0.0011206373,-4.420032E-4,-0.017433077,0.03647703,-0.018751144,0.0,0.0,0.0
216.00543,117.63977,130315335,0.9125,0.08510638,992.7423,-564.9673,-0.017433077,0.03647703,-0.018751144,0.0,0.0,0.0
240.81946,109.18811,130315352,0.875,0.08510638,2140.736,-1021.6983,-0.017433077,0.03647703,-0.018751144,0.0,0.0,0.0
265.15973,104.58972,130315368,0.875,0.08510638,2200.7104,-778.18604,-0.017433077,0.03647703,-0.018751144,0.0,0.0,0.0
291.70535,101.92969,130315385,0.8625,0.08510638,2096.4434,-402.34174,-0.017433077,0.03647703,-0.018751144,0.0,0.0,0.0
315.83234,105.28931,130315402,0.8625,0.08510638,1659.8704,157.61986,-0.017433077,0.03647703,-0.018751144,0.0,0.0,0.0
337.92487,112.00842,130315418,0.8625,0.08510638,1359.9414,554.85187,-0.017433077,0.03647703,-0.018751144,0.0,0.0,0.0
355.4736,119.429565,130315435,0.8625,0.11702127,1203.286,672.1585,-0.017433077,0.03647703,-0.018751144,0.0,0.0,0.0
370.02783,125.769165,130315452,0.8625,0.12765957,841.62756,658.79236,-0.017433077,0.03647703,-0.018751144,0.0,0.0,0.0
381.88263,133.33215,130315469,0.875,0.10638297,589.05835,544.27856,-0.017433077,0.03647703,-0.018751144,0.0,0.0,0.0
391.01288,140.67859,130315485,0.875,0.08510638,406.93896,457.36356,-0.017433077,0.03647703,-0.018751144,0.0,0.0,0.0
398.0535,150.99902,130315502,0.8875,0.08510638,287.99887,490.32294,-0.017433077,0.03647703,-0.018751144,0.0,0.0,0.0
402.9046,165.7085,130315519,0.8875,0.08510638,183.3301,750.2317,-0.017433077,0.03647703,-0.018751144,0.0,0.0,0.0
401.2626,186.46765,130315535,0.875,0.10638297,-12.34361,1120.8623,-0.017433077,0.03647703,-0.018751144,0.0,0.0,0.0
391.06824,211.8031,130315552,0.8875,0.06382979,-450.97012,1610.1257,-0.017433077,0.03647703,-0.018751144,0.0,0.0,0.0
383.72528,222.17236,130315569,0.9125,0.12765957,-796.3728,1404.9424,-0.017433077,0.03647703,-0.018751144,0.0,0.0,0.0
376.41898,230.44177,130315585,0.9375,0.12765957,-837.8471,815.07074,-0.017433077,0.03647703,-0.018751144,0.0,0.0,0.0
370.8536,236.75513,130315602,0.9375,0.12765957,-602.8399,245.23676,-0.017433077,0.03647703,-0.018751144,0.0,0.0,0.0
368.7204,237.99524,130315619,0.975,0.12765957,-249.28365,-161.58833,-0.017433077,0.03647703,-0.018751144,0.0,0.0,0.0
367.68002,239.20032,130315636,0.9875,0.12765957,-14.822388,-208.11462,-0.017433077,0.03647703,-0.018751144,0.0,0.0,0.0
368.51678,238.49353,130315652,0.975,0.12765957,112.308464,-175.30893,-0.017433077,0.03647703,-0.018751144,0.0,0.0,0.0
374.43875,236.64404,130315669,0.9125,0.12765957,314.2573,-211.8206,-0.017433077,0.03647703,-0.018751144,0.0,0.0,0.0
387.31894,233.38281,130315686,0.875,0.09574468,663.3178,-230.724,-0.017433077,0.03647703,-0.018751144,0.0,0.0,0.0
402.74194,229.68567,130315702,0.85,0.08510638,1089.4626,-292.6948,-0.017433077,0.03647703,-0.018751144,0.0,0.0,0.0
419.9462,226.6687,130315719,0.8625,0.09574468,1312.4237,-300.4259,-0.013946459,-0.0028184056,-0.015001297,0.0,0.0,0.0
439.20526,227.18079,130315736,0.85,0.08510638,1334.6615,-127.43711,-0.013946459,-0.0028184056,-0.015001297,0.0,0.0,0.0
458.97784,229.83069,130315753,0.83750004,0.09574468,1351.1304,84.97819,-0.013946459,-0.0028184056,-0.015001297,0.0,0.0,0.0
481.8228,235.3302,130315769,0.8,0.10638297,1388.6636,359.0727,-0.013946459,-0.0028184056,-0.015001297,0.0,0.0,0.0
501.6076,242.75085,130315786,0.8125,0.10638297,1380.9116,545.7727,-0.013946459,-0.0028184056,-0.015001297,0.0,0.0,0.0
514.93475,248.22998,130315803,0.8,0.08510638,1090.4257,556.3896,-0.013946459,-0.0028184056,-0.015001297,0.0,0.0,0.0
523.7406,255.91333,130315819,0.83750004,0.09574468,667.3305,520.5833,-0.013946459,-0.0028184056,-0.015001297,0.0,0.0,0.0
531.0517,265.9773,130315836,0.8625,0.09574468,279.97934,550.2613,-0.013946459,-0.0028184056,-0.015001297,0.0,0.0,0.0
536.39276,279.1847,130315853,0.875,0.12765957,78.68848,719.32416,-0.013946459,-0.0028184056,-0.015001297,0.0,0.0,0.0
538.3026,294.70105,130315870,0.8625,0.11702127,32.342327,968.23883,-0.013946459,-0.0028184056,-0.015001297,0.0,0.0,0.0
537.7449,316.01562,130315886,0.85,0.08510638,-99.15532,1239.9353,-0.013946459,-0.0028184056,-0.015001297,0.0,0.0,0.0
533.0613,343.31445,130315903,0.83750004,0.12765957,-304.23682,1605.3041,-0.013946459,-0.0028184056,-0.015001297,0.0,0.0,0.0
521.4568,377.9121,130315920,0.875,0.07446808,-636.8861,2096.8716,-0.013946459,-0.0028184056,-0.015001297,0.0,0.0,0.0
505.1272,410.69568,130315936,0.85,0.09574468,-1035.1854,2407.382,-0.013946459,-0.0028184056,-0.015001297,0.0,0.0,0.0
493.6125,429.505,130315953,0.83750004,0.09574468,-1188.2507,1990.7417,-0.013946459,-0.0028184056,-0.015001297,0.0,0.0,0.0
477.08423,450.89502,130315970,0.85,0.12765957,-1172.1499,1357.3418,-0.013946459,-0.0028184056,-0.015001297,0.0,0.0,0.0
459.9137,466.68713,130315987,0.85,0.08510638,-1082.4391,806.8361,-0.013946459,-0.0028184056,-0.015001297,0.0,0.0,0.0
445.4532,477.5608,130316003,0.875,0.07446808,-995.9686,499.28748,-0.013946459,-0.0028184056,-0.015001297,0.0,0.0,0.0
433.10992,484.8374,130316020,0.875,0.09574468,-892.7862,326.19864,-0.013946459,-0.0028184056,-0.015001297,0.0,0.0,0.0
422.25146,490.81396,130316037,0.8875,0.08510638,-714.75134,167.78615,-0.013946459,-0.0028184056,-0.015001297,0.0,0.0,0.0
414.32504,493.29712,130316053,0.8875,0.08510638,-469.21573,-13.02917,-0.013946459,-0.0028184056,-0.015001297,0.0,0.0,0.0
409.17767,493.88416,130316070,0.90000004,0.08510638,-279.92426,-92.1336,-0.013946459,-0.0028184056,-0.015001297,0.0,0.0,0.0
407.57822,493.88416,130316087,0.7625,0.06382979,-61.891483,-140.3204,-0.013946459,-0.0028184056,-0.015001297,0.0,0.0,0.0
407.34525,493.88416,130316090,0.2125,0.06382979,-20.959606,-151.00856,-0.013946459,-0.0028184056,-0.015001297,0.0,0.0,0.0
407.34525,493.88416,130316100,0.2125,0.06382979,-20.959606,-151.00856,-0.013946459,-0.0028184056,-0.015001297,0.0,0.0,0.0
559.7956,471.67163,130316582,0.85,0.08510638,0.0,0.0,-0.01115717,-0.018254697,-0.012001038,0.0,0.0,0.0
559.7956,471.67163,130316605,0.83750004,0.08510638,0.025354838,0.020541301,-0.01115717,-0.018254697,-0.012001038,0.0,0.0,0.0
559.7956,471.67163,130316622,0.83750004,0.09574468,-0.019908296,-0.016923988,-0.01115717,-0.018254697,-0.012001038,0.0,0.0,0.0
577.3615,437.69165,130316638,0.77500004,0.07446808,932.2254,-1803.311,-0.01115717,-0.018254697,-0.012001038,0.0,0.0,0.0
590.2386,415.87915,130316655,0.77500004,0.12765957,1244.426,-2283.1772,-0.01115717,-0.018254697,-0.012001038,0.0,0.0,0.0
614.78314,382.45935,130316672,0.7625,0.06382979,1625.7893,-2605.72,-0.01115717,-0.018254697,-0.012001038,0.0,0.0,0.0
639.97974,351.77075,130316688,0.7625,0.11702127,1914.3975,-2579.6833,-0.01115717,-0.018254697,-0.012001038,0.0,0.0,0.0
669.52637,329.34583,130316705,0.725,0.06382979,2002.6018,-2019.8201,-0.01115717,-0.018254697,-0.012001038,0.0,0.0,0.0
692.75525,319.12158,130316722,0.725,0.08510638,1836.4447,-1043.1565,-0.01115717,-0.018254697,-0.012001038,0.0,0.0,0.0
713.14703,314.37488,130316739,0.71250004,0.06382979,1531.1475,-175.43263,-0.01115717,-0.018254697,-0.012001038,0.0,0.0,0.0
724.4229,312.1317,130316755,0.725,0.08510638,960.7285,313.90036,-0.01115717,-0.018254697,-0.012001038,0.0,0.0,0.0
729.1756,310.85254,130316772,0.7375,0.08510638,259.38617,408.04532,-0.01115717,-0.018254697,-0.012001038,0.0,0.0,0.0
730.384,310.85254,130316788,0.77500004,0.08510638,-207.41333,339.03622,0.007074252,-0.022603765,-0.009600639,0.0,0.0,0.0
728.2389,310.85254,130316805,0.77500004,0.08510638,-487.42395,179.90369,0.007074252,-0.022603765,-0.009600639,0.0,0.0,0.0
710.293,316.34473,130316822,0.7625,0.07446808,-852.28424,201.1162,0.007074252,-0.022603765,-0.009600639,0.0,0.0,0.0
679.9728,328.10083,130316838,0.7625,0.06382979,-1627.1202,515.4467,0.007074252,-0.022603765,-0.009600639,0.0,0.0,0.0
653.73737,345.5249,130316855,0.7625,0.11702127,-2242.3972,1016.0089,0.007074252,-0.022603765,-0.009600639,0.0,0.0,0.0
626.0669,370.68542,130316872,0.7875,0.06382979,-2371.1143,1544.9376,0.007074252,-0.022603765,-0.009600639,0.0,0.0,0.0
605.36896,395.40173,130316888,0.77500004,0.11702127,-1681.5598,1885.2015,0.007074252,-0.022603765,-0.009600639,0.0,0.0,0.0
580.45624,436.43738,130316905,0.8,0.08510638,-1320.1147,2225.9783,0.007074252,-0.022603765,-0.009600639,0.0,0.0,0.0
574.7575,456.29602,130316922,0.7875,0.10638297,-785.7974,2130.2751,0.007074252,-0.022603765,-0.009600639,0.0,0.0,0.0
574.7908,470.49548,130316939,0.77500004,0.07446808,-138.19579,1553.7733,0.007074252,-0.022603765,-0.009600639,0.0,0.0,0.0
580.5176,481.8667,130316955,0.77500004,0.08510638,589.4611,710.24054,0.007074252,-0.022603765,-0.009600639,0.0,0.0,0.0
593.0878,489.56128,130316972,0.7875,0.08510638,1055.9153,118.7721,0.007074252,-0.022603765,-0.009600639,0.0,0.0,0.0
614.90533,491.63367,130316989,0.75,0.06382979,1481.9812,-125.05528,0.007074252,-0.022603765,-0.009600639,0.0,0.0,0.0
640.6225,484.01123,130317005,0.725,0.08510638,1894.8429,-437.1812,0.007074252,-0.022603765,-0.009600639,0.0,0.0,0.0
663.11926,469.13293,130317022,0.725,0.09574468,1964.9786,-968.5945,0.007074252,-0.022603765,-0.009600639,0.0,0.0,0.0
684.8333,444.18823,130317039,0.71250004,0.08510638,1696.2672,-1580.4768,0.007074252,-0.022603765,-0.009600639,0.0,0.0,0.0
708.59814,401.0099,130317056,0.71250004,0.10638297,1362.052,-2374.1838,0.007074252,-0.022603765,-0.009600639,0.0,0.0,0.0
719.6124,368.11,130317072,0.725,0.09574468,984.1136,-2812.4377,0.007074252,-0.022603765,-0.009600639,0.0,0.0,0.0
723.3699,336.0349,130317089,0.7375,0.06382979,485.452,-2809.999,0.007074252,-0.022603765,-0.009600639,0.0,0.0,0.0
722.99976,320.2716,130317106,0.7375,0.06382979,-132.42569,-1808.9396,0.007074252,-0.022603765,-0.009600639,0.0,0.0,0.0
722.24274,317.14624,130317122,0.77500004,0.08510638,-512.39496,-520.5562,0.007074252,-0.022603765,-0.009600639,0.0,0.0,0.0
721.05835,316.18347,130317139,0.77500004,0.06382979,-518.9489,433.44632,0.007074252,-0.022603765,-0.009600639,0.0,0.0,0.0
719.42865,316.46338,130317156,0.77500004,0.06382979,-282.13043,678.0347,0.007074252,-0.022603765,-0.009600639,0.0,0.0,0.0
715.1648,328.4397,130317173,0.75,0.08510638,-198.17595,684.75195,0.007074252,-0.022603765,-0.009600639,0.0,0.0,0.0
709.84503,354.75867,130317189,0.7625,0.10638297,-331.33212,1383.9738,0.007074252,-0.022603765,-0.009600639,0.0,0.0,0.0
705.5314,383.3667,130317206,0.77500004,0.08510638,-389.46912,2148.426,0.007074252,-0.022603765,-0.009600639,0.0,0.0,0.0
701.71014,412.42102,130317223,0.75,0.09574468,-341.85052,2466.2788,0.007074252,-0.022603765,-0.009600639,0.0,0.0,0.0
699.8275,435.78125,130317239,0.77500004,0.08510638,-201.97665,2170.7317,0.007074252,-0.022603765,-0.009600639,0.0,0.0,0.0
701.1743,449.05762,130317256,0.7875,0.12765957,5.757143,1298.6201,0.007074252,-0.022603765,-0.009600639,0.0,0.0,0.0
703.77124,454.82996,130317273,0.7875,0.10638297,196.57964,406.09793,0.007074252,-0.022603765,-0.009600639,0.0,0.0,0.0
710.4403,459.69482,130317290,0.7625,0.09574468,400.93063,-125.970985,0.007074252,-0.022603765,-0.009600639,0.0,0.0,0.0
723.2832,461.00952,130317307,0.77500004,0.10638297,706.5905,-322.26743,0.0056594014,0.005916983,0.024319649,0.0,0.0,0.0
738.8583,454.51404,130317323,0.7375,0.11702127,1003.8656,-434.87906,0.0056594014,0.005916983,0.024319649,0.0,0.0,0.0
757.48016,439.38257,130317340,0.7375,0.07446808,1279.7716,-788.6944,0.0056594014,0.005916983,0.024319649,0.0,0.0,0.0
778.75287,411.62622,130317357,0.725,0.10638297,1480.809,-1596.5809,0.0056594014,0.005916983,0.024319649,0.0,0.0,0.0
799.61664,375.41284,130317373,0.7,0.09574468,1477.3138,-2442.4717,0.0056594014,0.005916983,0.024319649,0.0,0.0,0.0
824.62897,320.74707,130317390,0.71250004,0.06382979,1589.8579,-3433.669,0.0056594014,0.005916983,0.024319649,0.0,0.0,0.0
835.3408,276.34045,130317407,0.71250004,0.06382979,1191.2167,-3741.6477,0.0056594014,0.005916983,0.024319649,0.0,0.0,0.0
842.4963,236.12439,130317424,0.71250004,0.10638297,561.59686,-3201.089,0.0056594014,0.005916983,0.024319649,0.0,0.0,0.0
844.7029,212.59326,130317440,0.725,0.07446808,-0.29846016,-2217.2712,0.0056594014,0.005916983,0.024319649,0.0,0.0,0.0
844.27924,193.9762,130317457,0.725,0.12765957,-385.13144,-1015.77295,0.0056594014,0.005916983,0.024319649,0.0,0.0,0.0
840.643,185.50098,130317474,0.7625,0.08510638,-461.44455,-222.66791,0.0056594014,0.005916983,0.024319649,0.0,0.0,0.0
832.6466,179.91077,130317490,0.75,0.08510638,-580.68164,200.79521,0.0056594014,0.005916983,0.024319649,0.0,0.0,0.0
819.32086,178.46545,130317507,0.75,0.11702127,-833.68976,361.09134,0.0056594014,0.005916983,0.024319649,0.0,0.0,0.0
804.68335,181.64697,130317524,0.77500004,0.12765957,-1061.0236,407.70728,0.0056594014,0.005916983,0.024319649,0.0,0.0,0.0
793.355,189.44385,130317541,0.8125,0.09574468,-1074.397,623.95056,0.0056594014,0.005916983,0.024319649,0.0,0.0,0.0
784.83887,201.75366,130317557,0.8,0.06382979,-826.2658,797.7491,0.0056594014,0.005916983,0.024319649,0.0,0.0,0.0
774.763,227.13391,130317574,0.8,0.09574468,-526.98645,1372.1582,0.0056594014,0.005916983,0.024319649,0.0,0.0,0.0
768.5347,260.34778,130317591,0.7875,0.07446808,-348.31647,2038.1052,0.0056594014,0.005916983,0.024319649,0.0,0.0,0.0
761.7193,299.9541,130317607,0.7625,0.10638297,-315.23822,2741.704,0.0056594014,0.005916983,0.024319649,0.0,0.0,0.0
758.999,334.9945,130317624,0.75,0.09574468,-211.86568,2869.5012,0.0056594014,0.005916983,0.024319649,0.0,0.0,0.0
760.35754,362.2356,130317641,0.7625,0.09574468,20.564455,2302.3677,0.0056594014,0.005916983,0.024319649,0.0,0.0,0.0
765.4514,387.16675,130317658,0.77500004,0.08510638,293.4322,1661.775,0.0056594014,0.005916983,0.024319649,0.0,0.0,0.0
774.23755,415.73303,130317674,0.75,0.06382979,635.132,1335.6188,0.0056594014,0.005916983,0.024319649,0.0,0.0,0.0
784.65027,445.2339,130317691,0.7625,0.10638297,819.86816,1503.5585,0.0056594014,0.005916983,0.024319649,0.0,0.0,0.0
792.21783,459.96985,130317708,0.7375,0.07446808,786.2492,1355.1848,0.0056594014,0.005916983,0.024319649,0.0,0.0,0.0
800.3158,473.37976,130317724,0.7375,0.08510638,623.99207,893.2145,0.0056594014,0.005916983,0.024319649,0.0,0.0,0.0
808.4507,479.72095,130317741,0.75,0.07446808,495.00262,305.80765,0.0056594014,0.005916983,0.024319649,0.0,0.0,0.0
813.6926,481.44507,130317758,0.7625,0.07446808,363.8408,-173.91493,0.0056594014,0.005916983,0.024319649,0.0,0.0,0.0
818.1492,480.2234,130317775,0.71250004,0.06382979,274.21512,-301.76797,0.0056594014,0.005916983,0.024319649,0.0,0.0,0.0
823.74097,476.72498,130317791,0.6875,0.053191487,231.50815,-404.97467,0.0056594014,0.005916983,0.024319649,0.0,0.0,0.0
828.70807,472.56006,130317803,0.5625,0.09574468,251.17253,-545.3449,0.0056594014,0.005916983,0.024319649,0.0,0.0,0.0
828.70807,472.56006,130317810,0.5625,0.09574468,251.17253,-545.3449,0.0056594014,0.005916983,0.024319649,0.0,0.0,0.0
914.18024,477.00256,130318386,0.75,0.08510638,0.0,0.0,-0.023577988,-0.012213111,-0.042036057,0.0,0.0,0.0
914.18024,477.00256,130318410,0.7375,0.08510638,-0.037777197,-0.023641938,-0.023577988,-0.012213111,-0.042036057,0.0,0.0,0.0
927.67804,447.67725,130318426,0.7,0.07446808,1105.2992,-2401.2734,-0.023577988,-0.012213111,-0.042036057,0.0,0.0,0.0
939.6825,424.4973,130318443,0.6875,0.09574468,1190.5751,-2430.548,-0.023577988,-0.012213111,-0.042036057,0.0,0.0,0.0
956.85486,386.17456,130318460,0.6875,0.07446808,1326.8336,-2795.2405,-0.023577988,-0.012213111,-0.042036057,0.0,0.0,0.0
970.2706,366.6283,130318476,0.7,0.12765957,1214.3225,-2357.6213,-0.023577988,-0.012213111,-0.042036057,0.0,0.0,0.0
986.41174,342.4148,130318493,0.71250004,0.06382979,1025.8469,-1599.2854,-0.023577988,-0.012213111,-0.042036057,0.0,0.0,0.0
1001.0073,328.55603,130318510,0.7,0.06382979,936.1548,-1000.1585,-0.023577988,-0.012213111,-0.042036057,0.0,0.0,0.0
1013.4783,322.03406,130318527,0.7,0.08510638,835.2639,-347.21408,-0.023577988,-0.012213111,-0.042036057,0.0,0.0,0.0
1022.57214,317.87048,130318543,0.6875,0.08510638,690.43616,-44.86777,-0.023577988,-0.012213111,-0.042036057,0.0,0.0,0.0
1027.0929,316.18347,130318560,0.7,0.07446808,312.85822,264.06665,-0.023577988,-0.012213111,-0.042036057,0.0,0.0,0.0
1029.3358,316.18347,130318577,0.71250004,0.07446808,15.378431,288.4325,-0.023577988,-0.012213111,-0.042036057,0.0,0.0,0.0
1030.3923,316.18347,130318593,0.725,0.08510638,-146.32382,201.58025,-0.023577988,-0.012213111,-0.042036057,0.0,0.0,0.0
1029.2759,317.8423,130318610,0.725,0.08510638,-219.09282,183.07617,-0.023577988,-0.012213111,-0.042036057,0.0,0.0,0.0
1024.8104,322.2555,130318627,0.7375,0.08510638,-274.0933,230.88052,-0.023577988,-0.012213111,-0.042036057,0.0,0.0,0.0
1008.41736,338.64832,130318643,0.7375,0.10638297,-720.28784,662.09863,-0.023577988,-0.012213111,-0.042036057,0.0,0.0,0.0
986.96643,357.66785,130318660,0.7375,0.08510638,-1297.9438,1193.0217,-0.023577988,-0.012213111,-0.042036057,0.0,0.0,0.0
963.71985,380.83374,130318677,0.7625,0.09574468,-1741.7068,1638.9303,-0.023577988,-0.012213111,-0.042036057,0.0,0.0,0.0
944.425,402.95508,130318694,0.7375,0.08510638,-1728.8755,1764.2604,-0.023577988,-0.012213111,-0.042036057,0.0,0.0,0.0
928.34283,431.39185,130318710,0.725,0.08510638,-1374.9277,1765.1322,-0.023577988,-0.012213111,-0.042036057,0.0,0.0,0.0
924.03723,448.80603,130318727,0.725,0.12765957,-699.9877,1549.727,-0.023577988,-0.012213111,-0.042036057,0.0,0.0,0.0
921.6778,466.45764,130318744,0.7375,0.09574468,17.698914,1212.1462,-0.023577988,-0.012213111,-0.042036057,0.0,0.0,0.0
922.764,482.0603,130318760,0.725,0.08510638,345.26022,939.0772,-0.023577988,-0.012213111,-0.042036057,0.0,0.0,0.0
926.8474,494.78247,130318777,0.725,0.10638297,512.3525,665.0924,-0.023577988,-0.012213111,-0.042036057,0.0,0.0,0.0
932.06885,501.64648,130318794,0.725,0.10638297,555.7837,364.62213,-0.023577988,-0.012213111,-0.042036057,0.0,0.0,0.0
944.94684,507.76575,130318811,0.725,0.10638297,714.4731,186.55107,-0.023577988,-0.012213111,-0.042036057,0.0,0.0,0.0
961.93604,505.6775,130318827,0.7,0.12765957,1041.3689,-77.62177,-0.023577988,-0.012213111,-0.042036057,0.0,0.0,0.0
979.1167,495.68933,130318844,0.6875,0.08510638,1312.4384,-536.3646,-0.023577988,-0.012213111,-0.042036057,0.0,0.0,0.0
994.1643,484.61072,130318861,0.7,0.06382979,1272.6215,-937.89685,-0.023577988,-0.012213111,-0.042036057,0.0,0.0,0.0
1007.0209,471.57532,130318877,0.7,0.12765957,1018.1742,-1136.8546,-0.023577988,-0.012213111,-0.042036057,0.0,0.0,0.0
1019.55286,452.5172,130318894,0.6625,0.08510638,741.6144,-1259.7964,-0.023577988,-0.012213111,-0.042036057,0.0,0.0,0.0
1035.4917,422.43567,130318911,0.6625,0.08510638,706.5506,-1554.1062,-0.01086238,-0.009770483,0.014370918,0.0,0.0,0.0
1043.8068,398.56104,130318928,0.675,0.08510638,660.9775,-1846.2601,-0.01086238,-0.009770483,0.014370918,0.0,0.0,0.0
1048.5837,383.85046,130318944,0.6875,0.06382979,450.92075,-1662.5488,-0.01086238,-0.009770483,0.014370918,0.0,0.0,0.0
1051.6895,374.14062,130318961,0.6875,0.06382979,135.57732,-900.64276,-0.01086238,-0.009770483,0.014370918,0.0,0.0,0.0
1052.1354,366.97107,130318978,0.7,0.08510638,-138.5669,-186.09546,-0.01086238,-0.009770483,0.014370918,0.0,0.0,0.0
1051.442,362.04187,130318994,0.725,0.10638297,-225.34096,120.07024,-0.01086238,-0.009770483,0.014370918,0.0,0.0,0.0
1047.658,357.61035,130319011,0.6875,0.12765957,-283.43597,55.50605,-0.01086238,-0.009770483,0.014370918,0.0,0.0,0.0
1038.8229,352.0879,130319028,0.7,0.12765957,-469.2475,-133.14159,-0.01086238,-0.009770483,0.014370918,0.0,0.0,0.0
1027.3944,349.10278,130319045,0.71250004,0.12765957,-750.93555,-182.3881,-0.01086238,-0.009770483,0.014370918,0.0,0.0,0.0
1017.5189,349.0581,130319061,0.7375,0.10638297,-870.6919,-88.70933,-0.01086238,-0.009770483,0.014370918,0.0,0.0,0.0
1011.3712,350.0453,130319078,0.7375,0.10638297,-703.649,71.60027,-0.01086238,-0.009770483,0.014370918,0.0,0.0,0.0
1007.2621,351.89587,130319095,0.7625,0.09574468,-372.80396,216.44154,-0.01086238,-0.009770483,0.014370918,0.0,0.0,0.0
1005.3157,353.79822,130319111,0.75,0.08510638,-62.25648,244.95291,-0.01086238,-0.009770483,0.014370918,0.0,0.0,0.0
1001.53723,362.06482,130319128,0.7375,0.06382979,6.3544974,360.7873,-0.01086238,-0.009770483,0.014370918,0.0,0.0,0.0
999.9354,368.3695,130319145,0.725,0.06382979,-25.639141,486.60266,-0.01086238,-0.009770483,0.014370918,0.0,0.0,0.0
999.65247,373.06934,130319161,0.7375,0.06382979,-43.099155,504.6781,-0.01086238,-0.009770483,0.014370918,0.0,0.0,0.0
1000.42773,377.58105,130319178,0.75,0.06382979,45.05552,375.22998,-0.01086238,-0.009770483,0.014370918,0.0,0.0,0.0
1001.463,379.8202,130319195,0.7375,0.08510638,140.55103,152.3757,-0.01086238,-0.009770483,0.014370918,0.0,0.0,0.0
1003.7556,382.35278,130319212,0.7375,0.08510638,171.71896,56.746235,-0.01086238,-0.009770483,0.014370918,0.0,0.0,0.0
1007.70935,385.984,130319228,0.75,0.10638297,228.74466,93.95183,-0.01086238,-0.009770483,0.014370918,0.0,0.0,0.0
1011.9756,390.66418,130319245,0.725,0.12765957,301.23077,206.73978,-0.01086238,-0.009770483,0.014370918,0.0,0.0,0.0
1017.1365,394.3645,130319262,0.7375,0.12765957,361.11896,276.5316,-0.01086238,-0.009770483,0.014370918,0.0,0.0,0.0
1021.8439,396.21936,130319278,0.7375,0.12765957,357.9528,223.04796,-0.01086238,-0.009770483,0.014370918,0.0,0.0,0.0
1026.4832,397.03735,130319295,0.75,0.12765957,323.84937,89.86674,-0.01086238,-0.009770483,0.014370918,0.0,0.0,0.0
1031.8892,397.03735,130319312,0.75,0.12765957,306.5705,-37.581223,-0.01086238,-0.009770483,0.014370918,0.0,0.0,0.0
1035.6685,394.94763,130319329,0.7375,0.10638297,284.75168,-141.15848,-0.01086238,-0.009770483,0.014370918,0.0,0.0,0.0
1041.414,391.90613,130319345,0.7375,0.08510638,297.02682,-224.99966,-0.01086238,-0.009770483,0.014370918,0.0,0.0,0.0
1046.3287,387.7704,130319362,0.725,0.06382979,304.51077,-294.51813,-0.01086238,-0.009770483,0.014370918,0.0,0.0,0.0
1052.4187,381.90637,130319379,0.725,0.06382979,327.2411,-370.71942,-0.01086238,-0.009770483,0.014370918,0.0,0.0,0.0
1059.629,374.57483,130319395,0.725,0.07446808,404.50043,-463.32266,-0.01086238,-0.009770483,0.014370918,0.0,0.0,0.0
1066.2631,367.8562,130319412,0.7375,0.09574468,455.32098,-513.77496,-0.01086238,-0.009770483,0.014370918,0.0,0.0,0.0
1072.4597,360.51282,130319429,0.725,0.12765957,442.15164,-511.19012,-0.01086238,-0.009770483,0.014370918,0.0,0.0,0.0
1078.2758,353.87488,130319446,0.725,0.12765957,380.8742,-463.0863,0.023310095,0.0081835985,0.043496132,0.0,0.0,0.0
1083.9891,346.55347,130319462,0.71250004,0.11702127,318.94232,-425.53107,0.023310095,0.0081835985,0.043496132,0.0,0.0,0.0
1091.2482,338.26855,130319479,0.725,0.06382979,365.24393,-462.7431,0.023310095,0.0081835985,0.043496132,0.0,0.0,0.0
1098.0454,330.85645,130319496,0.725,0.06382979,412.59674,-480.0351,0.023310095,0.0081835985,0.043496132,0.0,0.0,0.0
1103.5214,324.53186,130319512,0.7375,0.06382979,408.44724,-444.96216,0.023310095,0.0081835985,0.043496132,0.0,0.0,0.0
1107.6278,321.0609,130319529,0.75,0.06382979,317.0697,-307.63287,0.023310095,0.0081835985,0.043496132,0.0,0.0,0.0
1110.5334,319.36694,130319546,0.75,0.06382979,186.74754,-113.35514,0.023310095,0.0081835985,0.043496132,0.0,0.0,0.0
1110.6163,317.96057,130319563,0.7375,0.06382979,24.285242,10.407722,0.023310095,0.0081835985,0.043496132,0.0,0.0,0.0
1110.6163,317.96057,130319571,0.725,0.06382979,-47.42583,53.50224,0.023310095,0.0081835985,0.043496132,0.0,0.0,0.0
1110.6163,317.07202,130319613,0.7375,0.06382979,-84.32853,33.80819,0.023310095,0.0081835985,0.043496132,0.0,0.0,0.0
1111.1161,317.07202,130319629,0.725,0.06382979,-12.912671,36.88367,0.023310095,0.0081835985,0.043496132,0.0,0.0,0.0
1111.1161,317.07202,130319646,0.6875,0.06382979,19.420437,11.941235,0.023310095,0.0081835985,0.043496132,0.0,0.0,0.0
1111.1161,317.07202,130319647,0.25,0.053191487,17.057568,11.117086,0.023310095,0.0081835985,0.043496132,0.0,0.0,0.0
1111.1161,317.07202,130319655,0.25,0.053191487,17.057568,11.117086,0.023310095,0.0081835985,0.043496132,0.0,0.0,0.0
1137.1077,486.77612,130320344,0.6875,0.08510638,0.0,0.0,-0.013351917,0.006546885,0.018797874,0.0,0.0,0.0
1137.1077,486.77612,130320381,0.7,0.08510638,-0.1323455,-0.0521974,-0.013351917,0.006546885,0.018797874,0.0,0.0,0.0
1140.4094,469.82068,130320398,0.65000004,0.08510638,181.80031,-933.6894,-0.013351917,0.006546885,0.018797874,0.0,0.0,0.0
1149.6827,444.3147,130320415,0.6625,0.07446808,541.134,-1913.504,-0.013351917,0.006546885,0.018797874,0.0,0.0,0.0
1157.7831,431.30237,130320431,0.6625,0.06382979,689.4086,-1815.7616,-0.013351917,0.006546885,0.018797874,0.0,0.0,0.0
1168.1407,414.7445,130320448,0.6625,0.12765957,719.1969,-980.82574,-0.013351917,0.006546885,0.018797874,0.0,0.0,0.0
1182.1359,397.05176,130320465,0.6625,0.09574468,812.9029,-908.6918,-0.013351917,0.006546885,0.018797874,0.0,0.0,0.0
1195.9812,386.96472,130320482,0.6625,0.06382979,928.3075,-657.4667,-0.013351917,0.006546885,0.018797874,0.0,0.0,0.0
1209.9027,379.03198,130320498,0.6625,0.06382979,975.4937,-582.88416,-0.013351917,0.006546885,0.018797874,0.0,0.0,0.0
1216.9375,376.2976,130320515,0.6625,0.06382979,823.1767,-282.71796,-0.010681525,0.021237522,0.01503849,0.0,0.0,0.0
1221.0034,375.71326,130320532,0.675,0.06382979,435.4002,97.00701,-0.010681525,0.021237522,0.01503849,0.0,0.0,0.0
1222.0801,375.71326,130320548,0.7,0.06382979,-65.67758,250.1342,-0.010681525,0.021237522,0.01503849,0.0,0.0,0.0
1221.6814,376.42188,130320565,0.6875,0.06382979,-242.27805,233.68323,-0.010681525,0.021237522,0.01503849,0.0,0.0,0.0
1218.9088,378.0846,130320582,0.6875,0.06382979,-311.8467,175.49272,-0.010681525,0.021237522,0.01503849,0.0,0.0,0.0
1210.042,382.3031,130320599,0.6875,0.08510638,-485.11356,227.22815,-0.010681525,0.021237522,0.01503849,0.0,0.0,0.0
1197.2488,387.5199,130320615,0.7,0.09574468,-770.59235,328.60614,-0.010681525,0.021237522,0.01503849,0.0,0.0,0.0
1183.6785,395.71484,130320632,0.71250004,0.12765957,-1055.2291,487.22406,-0.010681525,0.021237522,0.01503849,0.0,0.0,0.0
1171.0778,406.35034,130320649,0.7,0.09574468,-1094.2174,657.7761,-0.010681525,0.021237522,0.01503849,0.0,0.0,0.0
1158.1678,421.604,130320665,0.6875,0.07446808,-933.4996,897.92816,-0.010681525,0.021237522,0.01503849,0.0,0.0,0.0
1137.7281,459.80127,130320682,0.7,0.11702127,-924.58417,1541.4784,-0.010681525,0.021237522,0.01503849,0.0,0.0,0.0
1130.9031,477.4922,130320699,0.71250004,0.08510638,-814.2839,1915.6383,-0.010681525,0.021237522,0.01503849,0.0,0.0,0.0
1130.249,490.0365,130320716,0.71250004,0.11702127,-453.1133,1687.3225,-0.010681525,0.021237522,0.01503849,0.0,0.0,0.0
1131.6534,498.4049,130320732,0.71250004,0.12765957,56.8039,1000.4266,-0.010681525,0.021237522,0.01503849,0.0,0.0,0.0
1135.7345,502.70642,130320749,0.71250004,0.12765957,485.74185,173.53644,-0.010681525,0.021237522,0.01503849,0.0,0.0,0.0
1145.5479,504.54614,130320766,0.71250004,0.10638297,749.4993,-302.11978,-0.010681525,0.021237522,0.01503849,0.0,0.0,0.0
1155.7382,503.98877,130320782,0.6875,0.10638297,834.0873,-302.7586,-0.010681525,0.021237522,0.01503849,0.0,0.0,0.0
1167.9744,500.00183,130320799,0.675,0.09574468,918.2171,-355.16318,-0.010681525,0.021237522,0.01503849,0.0,0.0,0.0
1180.2288,490.74768,130320816,0.6625,0.08510638,917.9527,-526.2476,-0.010681525,0.021237522,0.01503849,0.0,0.0,0.0
1190.7869,476.65308,130320833,0.6625,0.09574468,789.8607,-847.1976,-0.010681525,0.021237522,0.01503849,0.0,0.0,0.0
1205.7767,444.0072,130320849,0.65000004,0.08510638,811.8908,-1603.9778,-0.010681525,0.021237522,0.01503849,0.0,0.0,0.0
1211.1504,432.45874,130320866,0.6625,0.08510638,620.3864,-1729.087,-0.010681525,0.021237522,0.01503849,0.0,0.0,0.0
1216.9125,421.32764,130320883,0.675,0.10638297,356.04697,-1229.285,-0.010681525,0.021237522,0.01503849,0.0,0.0,0.0
1223.1641,412.16492,130320899,0.6625,0.12765957,201.67564,-580.4975,-0.010681525,0.021237522,0.01503849,0.0,0.0,0.0
1226.2081,406.5808,130320916,0.6625,0.12765957,99.01612,-76.523186,-0.010681525,0.021237522,0.01503849,0.0,0.0,0.0
1228.3716,402.99597,130320933,0.675,0.12765957,73.864716,19.52411,-0.010681525,0.021237522,0.01503849,0.0,0.0,0.0
1229.5776,401.10022,130320949,0.7,0.12765957,54.05099,-38.76004,-0.010681525,0.021237522,0.01503849,0.0,0.0,0.0
1229.5776,399.25513,130320966,0.7,0.12765957,-70.17206,54.945152,-0.010681525,0.021237522,0.01503849,0.0,0.0,0.0
1229.5776,397.4021,130320983,0.7,0.10638297,-80.074394,13.750545,-0.010681525,0.021237522,0.01503849,0.0,0.0,0.0
1228.7465,395.55994,130321000,0.71250004,0.09574468,-83.964935,-57.89542,-0.010681525,0.021237522,0.01503849,0.0,0.0,0.0
1227.7054,393.70947,130321016,0.71250004,0.09574468,-96.90686,-99.85425,-0.010681525,0.021237522,0.01503849,0.0,0.0,0.0
1226.6895,391.90332,130321033,0.7,0.09574468,-89.88246,-107.2289,-0.010681525,0.021237522,0.01503849,0.0,0.0,0.0
1225.6298,391.7063,130321050,0.7,0.09574468,-90.6241,-69.58738,-0.00854522,0.03299004,0.060029984,0.0,0.0,0.0
1224.5878,389.94458,130321066,0.7,0.08510638,-77.1708,-44.5972,-0.00854522,0.03299004,0.060029984,0.0,0.0,0.0
1223.5441,388.089,130321083,0.6875,0.08510638,-63.292606,-72.98278,-0.00854522,0.03299004,0.060029984,0.0,0.0,0.0
1223.0797,386.23547,130321100,0.7,0.06382979,-49.295326,-108.51255,-0.00854522,0.03299004,0.060029984,0.0,0.0,0.0
1223.0797,384.42358,130321117,0.7,0.06382979,-13.079607,-134.59021,-0.00854522,0.03299004,0.060029984,0.0,0.0,0.0
1223.7272,382.55884,130321133,0.6875,0.06382979,31.338087,-133.16902,-0.00854522,0.03299004,0.060029984,0.0,0.0,0.0
1224.9584,380.70728,130321150,0.6875,0.06382979,80.93516,-111.275566,-0.00854522,0.03299004,0.060029984,0.0,0.0,0.0
1226.3134,378.85034,130321167,0.7,0.06382979,117.19351,-111.19556,-0.00854522,0.03299004,0.060029984,0.0,0.0,0.0
1227.3525,377.00293,130321183,0.6875,0.07446808,106.986824,-110.64934,-0.00854522,0.03299004,0.060029984,0.0,0.0,0.0
1228.3843,375.71326,130321200,0.7,0.07446808,81.64333,-100.11644,-0.00854522,0.03299004,0.060029984,0.0,0.0,0.0
1229.4307,375.71326,130321217,0.725,0.07446808,56.947613,-40.387722,-0.00854522,0.03299004,0.060029984,0.0,0.0,0.0
1230.4336,375.71326,130321234,0.71250004,0.07446808,51.364426,23.013618,-0.00854522,0.03299004,0.060029984,0.0,0.0,0.0
1230.5773,375.71326,130321250,0.71250004,0.07446808,40.657135,53.789997,-0.00854522,0.03299004,0.060029984,0.0,0.0,0.0
1231.5466,377.4364,130321267,0.71250004,0.07446808,25.063332,81.79336,-0.00854522,0.03299004,0.060029984,0.0,0.0,0.0
1232.5878,380.19507,130321284,0.7,0.08510638,40.6842,144.65553,-0.00854522,0.03299004,0.060029984,0.0,0.0,0.0
1232.5767,384.8955,130321300,0.7,0.10638297,31.39752,264.62527,-0.00854522,0.03299004,0.060029984,0.0,0.0,0.0
1230.8542,393.5852,130321317,0.7,0.10638297,-34.048428,450.15735,-0.00854522,0.03299004,0.060029984,0.0,0.0,0.0
1228.1212,406.9281,130321334,0.6875,0.08510638,-143.56169,747.9967,-0.00854522,0.03299004,0.060029984,0.0,0.0,0.0
1224.2993,422.02222,130321351,0.6875,0.06382979,-262.2808,1023.14734,-0.00854522,0.03299004,0.060029984,0.0,0.0,0.0
1222.3712,440.95435,130321367,0.6875,0.09574468,-270.7197,1247.069,-0.00854522,0.03299004,0.060029984,0.0,0.0,0.0
1220.0819,460.1101,130321384,0.6875,0.09574468,-190.17657,1374.9271,-0.00854522,0.03299004,0.060029984,0.0,0.0,0.0
1217.2202,477.66223,130321401,0.6875,0.06382979,-133.76425,1262.5535,-0.00854522,0.03299004,0.060029984,0.0,0.0,0.0
1212.7563,503.61353,130321417,0.6875,0.10638297,-188.56033,1365.0531,-0.00854522,0.03299004,0.060029984,0.0,0.0,0.0
1206.6378,526.6179,130321434,0.7,0.07446808,-314.1625,1491.3789,-0.00854522,0.03299004,0.060029984,0.0,0.0,0.0
1199.3378,549.52563,130321451,0.6875,0.09574468,-461.89194,1528.3098,-0.00854522,0.03299004,0.060029984,0.0,0.0,0.0
1190.6367,571.79565,130321468,0.6875,0.11702127,-558.7902,1500.0367,-0.00854522,0.03299004,0.060029984,0.0,0.0,0.0
1183.6393,583.5565,130321484,0.6875,0.07446808,-589.1135,1102.8158,-0.00854522,0.03299004,0.060029984,0.0,0.0,0.0
1175.3413,593.69727,130321501,0.71250004,0.09574468,-528.2395,554.2459,-0.00854522,0.03299004,0.060029984,0.0,0.0,0.0
1165.4272,603.7665,130321518,0.725,0.10638297,-543.65186,327.622,-0.00854522,0.03299004,0.060029984,0.0,0.0,0.0
1155.3589,609.1637,130321534,0.71250004,0.12765957,-602.2571,150.58856,-0.00854522,0.03299004,0.060029984,0.0,0.0,0.0
1145.5399,611.4756,130321551,0.7375,0.12765957,-645.841,74.0892,-0.00854522,0.03299004,0.060029984,0.0,0.0,0.0
1137.2789,612.05505,130321568,0.725,0.12765957,-618.4112,-25.398937,-0.00854522,0.03299004,0.060029984,0.0,0.0,0.0
1130.0898,610.78064,130321584,0.75,0.10638297,-467.63968,-220.66908,0.009163812,0.01039204,-0.031975746,0.0,0.0,0.0
1124.3219,608.93115,130321601,0.725,0.08510638,-351.57144,-249.10625,0.009163812,0.01039204,-0.031975746,0.0,0.0,0.0
1119.1038,605.6509,130321618,0.725,0.08510638,-252.53264,-271.07846,0.009163812,0.01039204,-0.031975746,0.0,0.0,0.0
1114.632,602.11584,130321635,0.7375,0.06382979,-199.04247,-281.32254,0.009163812,0.01039204,-0.031975746,0.0,0.0,0.0
1111.2075,598.5397,130321651,0.725,0.06382979,-164.64464,-274.32727,0.009163812,0.01039204,-0.031975746,0.0,0.0,0.0
1107.9924,594.06335,130321668,0.7375,0.06382979,-143.92499,-269.15866,0.009163812,0.01039204,-0.031975746,0.0,0.0,0.0
1106.6475,589.949,130321685,0.725,0.06382979,-99.58345,-285.41684,0.009163812,0.01039204,-0.031975746,0.0,0.0,0.0
1106.6176,586.2406,130321701,0.7375,0.08510638,-0.05992441,-260.69034,0.009163812,0.01039204,-0.031975746,0.0,0.0,0.0
1106.6176,584.45874,130321718,0.7375,0.08510638,63.21151,-183.994,0.009163812,0.01039204,-0.031975746,0.0,0.0,0.0
1107.6947,582.5969,130321735,0.7375,0.09574468,105.773125,-97.61224,0.009163812,0.01039204,-0.031975746,0.0,0.0,0.0
1109.923,579.5243,130321752,0.725,0.09574468,150.44356,-75.481575,0.009163812,0.01039204,-0.031975746,0.0,0.0,0.0
1113.9934,575.73474,130321768,0.7375,0.12765957,215.49872,-152.81364,0.009163812,0.01039204,-0.031975746,0.0,0.0,0.0
1118.1677,572.3367,130321785,0.725,0.12765957,297.10257,-227.08623,0.009163812,0.01039204,-0.031975746,0.0,0.0,0.0
1125.1383,567.16785,130321802,0.71250004,0.12765957,415.6616,-307.6184,0.009163812,0.01039204,-0.031975746,0.0,0.0,0.0
1133.9242,561.6444,130321818,0.7,0.11702127,549.5074,-353.01413,0.009163812,0.01039204,-0.031975746,0.0,0.0,0.0
1142.241,556.10046,130321835,0.7,0.08510638,621.6147,-375.15668,0.009163812,0.01039204,-0.031975746,0.0,0.0,0.0
1151.7605,550.57544,130321852,0.7,0.06382979,635.16956,-377.3065,0.009163812,0.01039204,-0.031975746,0.0,0.0,0.0
1160.8258,545.7612,130321869,0.7,0.06382979,611.66437,-334.7888,0.009163812,0.01039204,-0.031975746,0.0,0.0,0.0
1171.541,540.35547,130321885,0.7,0.07446808,611.4533,-297.2388,0.009163812,0.01039204,-0.031975746,0.0,0.0,0.0
1183.5209,534.78723,130321902,0.7,0.08510638,691.7192,-308.44138,0.009163812,0.01039204,-0.031975746,0.0,0.0,0.0
1192.8733,530.12366,130321919,0.6875,0.08510638,697.4121,-302.14255,0.009163812,0.01039204,-0.031975746,0.0,0.0,0.0
1201.1621,525.48694,130321935,0.7,0.09574468,591.9205,-285.1052,0.009163812,0.01039204,-0.031975746,0.0,0.0,0.0
1209.565,520.99194,130321952,0.7,0.09574468,481.87912,-271.76047,0.009163812,0.01039204,-0.031975746,0.0,0.0,0.0
1217.2803,516.3767,130321969,0.7,0.10638297,396.50873,-256.70798,0.009163812,0.01039204,-0.031975746,0.0,0.0,0.0
1223.7449,511.65515,130321986,0.7,0.12765957,363.61234,-263.63657,0.009163812,0.01039204,-0.031975746,0.0,0.0,0.0
1229.6796,506.42847,130322002,0.6875,0.10638297,361.6252,-293.9427,0.009163812,0.01039204,-0.031975746,0.0,0.0,0.0
1234.6095,502.7395,130322019,0.7,0.09574468,287.822,-271.35275,0.009163812,0.01039204,-0.031975746,0.0,0.0,0.0
1238.7015,499.10242,130322036,0.6875,0.09574468,216.39543,-228.95634,0.009163812,0.01039204,-0.031975746,0.0,0.0,0.0
1242.0645,495.96265,130322052,0.6875,0.08510638,164.89374,-180.6298,0.009163812,0.01039204,-0.031975746,0.0,0.0,0.0
1244.8314,494.0985,130322069,0.6875,0.08510638,119.34703,-108.34719,0.009163812,0.01039204,-0.031975746,0.0,0.0,0.0
1246.4938,492.24634,130322086,0.7,0.08510638,93.020874,-79.09881,0.009163812,0.01039204,-0.031975746,0.0,0.0,0.0
1248.5203,491.21863,130322102,0.6875,0.08510638,61.387882,-45.802505,0.009163812,0.01039204,-0.031975746,0.0,0.0,0.0
1249.5875,490.3302,130322119,0.71250004,0.08510638,44.979954,-21.439772,-0.008668944,-0.0076863766,0.022418976,0.0,0.0,0.0
1250.3208,488.9973,130322131,0.71250004,0.08510638,32.222797,-25.951777,-0.008668944,-0.0076863766,0.022418976,0.0,0.0,0.0
1250.0709,487.49,130322153,0.71250004,0.08510638,-9.579297,-55.31691,-0.008668944,-0.0076863766,0.022418976,0.0,0.0,0.0
1250.0709,485.66663,130322169,0.71250004,0.08510638,-37.690132,-89.617905,-0.008668944,-0.0076863766,0.022418976,0.0,0.0,0.0
1250.7329,483.8224,130322186,0.7,0.07446808,-27.388735,-122.88505,-0.008668944,-0.0076863766,0.022418976,0.0,0.0,0.0
1251.282,483.73486,130322203,0.7,0.07446808,17.757519,-75.31371,-0.008668944,-0.0076863766,0.022418976,0.0,0.0,0.0
1252.0703,483.22217,130322219,0.725,0.07446808,62.609497,-28.189302,-0.008668944,-0.0076863766,0.022418976,0.0,0.0,0.0
1252.0703,483.22217,130322236,0.71250004,0.08510638,41.05389,24.999477,-0.008668944,-0.0076863766,0.022418976,0.0,0.0,0.0
1252.0703,483.22217,130322253,0.6875,0.07446808,2.7181423,32.22947,-0.008668944,-0.0076863766,0.022418976,0.0,0.0,0.0
1251.2001,483.22217,130322270,0.625,0.08510638,-41.498028,18.506847,-0.008668944,-0.0076863766,0.022418976,0.0,0.0,0.0
1251.0706,483.22217,130322272,0.4375,0.08510638,-47.239597,17.40322,-0.008668944,-0.0076863766,0.022418976,0.0,0.0,0.0
1251.0706,483.22217,130322280,0.4375,0.08510638,-47.239597,17.40322,-0.008668944,-0.0076863766,0.022418976,0.0,0.0,0.0
1315.5496,488.5531,130322855,0.675,0.07446808,0.0,0.0,0.009064838,-0.022149086,-0.030064583,0.0,0.0,0.0
1315.5496,488.5531,130322871,0.6625,0.07446808,-110.8413,-41.125237,0.009064838,-0.022149086,-0.030064583,0.0,0.0,0.0
1315.5496,488.5531,130322883,0.675,0.07446808,0.15390655,0.057573847,0.009064838,-0.022149086,-0.030064583,0.0,0.0,0.0
1315.5496,488.5531,130322905,0.6375,0.06382979,-0.0065514813,-0.0028963613,0.009064838,-0.022149086,-0.030064583,0.0,0.0,0.0
1325.5415,455.2506,130322921,0.65000004,0.10638297,428.42493,-1427.9513,0.009064838,-0.022149086,-0.030064583,0.0,0.0,0.0
1330.7394,441.8319,130322938,0.65000004,0.06382979,576.6279,-1790.5751,0.009064838,-0.022149086,-0.030064583,0.0,0.0,0.0
1335.6467,429.9829,130322955,0.6375,0.08510638,555.8283,-1611.3851,0.009064838,-0.022149086,-0.030064583,0.0,0.0,0.0
1344.4716,404.4298,130322971,0.6375,0.12765957,571.05475,-1498.737,0.009064838,-0.022149086,-0.030064583,0.0,0.0,0.0
1349.9524,382.12207,130322988,0.625,0.08510638,424.87103,-1280.4344,0.009064838,-0.022149086,-0.030064583,0.0,0.0,0.0
1353.8616,353.78528,130323005,0.65000004,0.12765957,303.20523,-1508.4109,0.009064838,-0.022149086,-0.030064583,0.0,0.0,0.0
1352.7168,324.65295,130323022,0.65000004,0.08510638,93.16501,-1977.4116,0.009064838,-0.022149086,-0.030064583,0.0,0.0,0.0
1346.6055,299.7041,130323038,0.6375,0.12765957,-328.38885,-1833.7577,0.009064838,-0.022149086,-0.030064583,0.0,0.0,0.0
1340.3353,284.82397,130323055,0.675,0.08510638,-604.8044,-1377.337,0.009064838,-0.022149086,-0.030064583,0.0,0.0,0.0
1334.6243,278.0498,130323072,0.6875,0.06382979,-655.38763,-643.7914,0.009064838,-0.022149086,-0.030064583,0.0,0.0,0.0
1327.8245,273.677,130323088,0.7,0.06382979,-558.9467,71.99477,0.009064838,-0.022149086,-0.030064583,0.0,0.0,0.0
1320.189,268.88013,130323105,0.71250004,0.08510638,-468.30228,217.1137,0.009064838,-0.022149086,-0.030064583,0.0,0.0,0.0
1311.6929,266.23682,130323122,0.71250004,0.08510638,-493.1017,148.39995,0.009064838,-0.022149086,-0.030064583,0.0,0.0,0.0
1305.68,264.39172,130323139,0.725,0.08510638,-480.1823,4.8089423,0.009064838,-0.022149086,-0.030064583,0.0,0.0,0.0
1302.6785,264.65027,130323155,0.7375,0.08510638,-333.26227,19.31348,0.009064838,-0.022149086,-0.030064583,0.0,0.0,0.0
1300.1058,266.33618,130323172,0.725,0.08510638,-112.47539,126.26163,0.009064838,-0.022149086,-0.030064583,0.0,0.0,0.0
1298.7893,271.39783,130323189,0.725,0.09574468,4.6185946,280.52603,0.0072518587,0.014280736,-0.008051872,0.0,0.0,0.0
1298.5552,278.9065,130323205,0.71250004,0.11702127,65.45018,473.5099,0.0072518587,0.014280736,-0.008051872,0.0,0.0,0.0
1299.7462,291.77734,130323222,0.725,0.12765957,98.784004,743.167,0.0072518587,0.014280736,-0.008051872,0.0,0.0,0.0
1301.824,305.6631,130323239,0.7,0.09574468,161.59091,991.23315,0.0072518587,0.014280736,-0.008051872,0.0,0.0,0.0
1303.814,321.2683,130323256,0.6875,0.08510638,196.90027,1119.3104,0.0072518587,0.014280736,-0.008051872,0.0,0.0,0.0
1305.9814,336.11255,130323272,0.7,0.11702127,196.49286,1119.1375,0.0072518587,0.014280736,-0.008051872,0.0,0.0,0.0
1308.9565,355.48926,130323289,0.7,0.11702127,187.7961,1115.1788,0.0072518587,0.014280736,-0.008051872,0.0,0.0,0.0
1311.1521,382.2119,130323306,0.6875,0.10638297,168.23288,1410.0598,0.0072518587,0.014280736,-0.008051872,0.0,0.0,0.0
1312.0508,409.7472,130323322,0.675,0.08510638,121.994774,1769.4604,0.0072518587,0.014280736,-0.008051872,0.0,0.0,0.0
1310.0514,428.1217,130323339,0.6875,0.08510638,-28.2993,1702.8419,0.0072518587,0.014280736,-0.008051872,0.0,0.0,0.0
1309.3915,440.50366,130323356,0.6875,0.11702127,-133.28113,1183.6013,0.0072518587,0.014280736,-0.008051872,0.0,0.0,0.0
1308.5519,451.78455,130323372,0.7,0.12765957,-163.47784,581.67865,0.0072518587,0.014280736,-0.008051872,0.0,0.0,0.0
1309.2937,458.28772,130323389,0.675,0.11702127,-76.82564,147.83694,0.0072518587,0.014280736,-0.008051872,0.0,0.0,0.0
1310.3381,465.20386,130323406,0.6875,0.08510638,76.70871,146.38658,0.0072518587,0.014280736,-0.008051872,0.0,0.0,0.0
1311.3768,470.74316,130323423,0.6875,0.07446808,116.343445,184.1022,0.0072518587,0.014280736,-0.008051872,0.0,0.0,0.0
1312.0508,475.6327,130323439,0.7,0.07446808,107.53964,200.02861,0.0072518587,0.014280736,-0.008051872,0.0,0.0,0.0
1312.0508,478.59595,130323456,0.6875,0.07446808,40.575035,187.5409,0.0072518587,0.014280736,-0.008051872,0.0,0.0,0.0
1312.0508,479.6681,130323473,0.7,0.07446808,-13.665436,76.798996,0.0072518587,0.014280736,-0.008051872,0.0,0.0,0.0
1312.0508,479.6681,130323489,0.7,0.07446808,-29.567669,-51.768745,0.0072518587,0.014280736,-0.008051872,0.0,0.0,0.0
1312.0508,478.7257,130323506,0.71250004,0.07446808,-20.285461,-132.09953,0.0072518587,0.014280736,-0.008051872,0.0,0.0,0.0
1310.9836,476.8828,130323523,0.7,0.08510638,-34.660156,-177.6955,0.0072518587,0.014280736,-0.008051872,0.0,0.0,0.0
1309.9406,471.96887,130323540,0.6875,0.11702127,-65.78041,-263.36807,0.0072518587,0.014280736,-0.008051872,0.0,0.0,0.0
1309.5515,466.23486,130323556,0.675,0.12765957,-73.263504,-378.732,0.0072518587,0.014280736,-0.008051872,0.0,0.0,0.0
1309.5515,458.82422,130323573,0.675,0.12765957,-39.21443,-501.82974,0.0072518587,0.014280736,-0.008051872,0.0,0.0,0.0
1310.2728,452.72058,130323590,0.675,0.08510638,34.623676,-520.3001,0.0072518587,0.014280736,-0.008051872,0.0,0.0,0.0
1312.3108,445.88098,130323606,0.6875,0.07446808,107.60394,-458.3003,0.0072518587,0.014280736,-0.008051872,0.0,0.0,0.0
1314.6624,441.26257,130323623,0.6875,0.06382979,175.975,-363.0873,0.0072518587,0.014280736,-0.008051872,0.0,0.0,0.0
1318.7731,436.06982,130323640,0.7,0.06382979,239.97968,-274.1241,0.0072518587,0.014280736,-0.008051872,0.0,0.0,0.0
1325.0719,432.12183,130323657,0.6875,0.06382979,349.50937,-227.00778,0.0072518587,0.014280736,-0.008051872,0.0,0.0,0.0
1331.5571,430.8004,130323673,0.6875,0.06382979,456.1692,-137.62659,0.0072518587,0.014280736,-0.008051872,0.0,0.0,0.0
1337.3335,431.62708,130323690,0.6875,0.07446808,482.90207,20.526358,0.0072518587,0.014280736,-0.008051872,0.0,0.0,0.0
1341.3776,435.09753,130323707,0.6625,0.07446808,396.2131,212.64896,0.0072518587,0.014280736,-0.008051872,0.0,0.0,0.0
1345.725,441.79175,130323723,0.675,0.12765957,249.93216,441.88684,-0.010198504,0.011424601,-0.0064411163,0.0,0.0,0.0
1351.3916,454.84412,130323740,0.6875,0.11702127,240.75092,740.1878,-0.010198504,0.011424601,-0.0064411163,0.0,0.0,0.0
1355.9053,462.99023,130323757,0.675,0.09574468,271.60233,831.43616,-0.010198504,0.011424601,-0.0064411163,0.0,0.0,0.0
1358.8926,470.74036,130323774,0.675,0.08510638,241.58397,733.40424,-0.010198504,0.011424601,-0.0064411163,0.0,0.0,0.0
1361.414,473.78552,130323790,0.7,0.07446808,170.93204,430.90427,-0.010198504,0.011424601,-0.0064411163,0.0,0.0,0.0
1365.0033,476.54492,130323807,0.6875,0.06382979,114.84453,96.78709,-0.010198504,0.011424601,-0.0064411163,0.0,0.0,0.0
1368.6,477.8911,130323824,0.6625,0.06382979,176.30502,-36.71148,-0.010198504,0.011424601,-0.0064411163,0.0,0.0,0.0
1372.0071,477.8911,130323840,0.65000004,0.06382979,221.19592,-94.4477,-0.010198504,0.011424601,-0.0064411163,0.0,0.0,0.0
1375.4692,475.72388,130323857,0.65000004,0.06382979,225.00726,-133.08792,-0.010198504,0.011424601,-0.0064411163,0.0,0.0,0.0
1381.0138,467.43762,130323874,0.6375,0.10638297,266.0762,-347.54916,-0.010198504,0.011424601,-0.0064411163,0.0,0.0,0.0
1388.5259,451.23596,130323884,0.4,0.08510638,369.1604,-714.1058,-0.010198504,0.011424601,-0.0064411163,0.0,0.0,0.0
1388.5259,451.23596,130323891,0.4,0.08510638,369.1604,-714.1058,-0.010198504,0.011424601,-0.0064411163,0.0,0.0,0.0
