x,y,timestamp,pressure,fingerarea,velocityx,velocityy,accelx,accely,accelz,gyrox,gyroy,gyroz
288.88382,146.47937,14692130,1.0875,0.09574468,0.0,0.0,-0.026921034,-0.019448683,-0.052560806,0.0,0.0,0.0
288.88382,146.47937,14692149,1.1,0.09574468,-0.023434386,-0.007869436,-0.026921034,-0.019448683,-0.052560806,0.0,0.0,0.0
292.9218,165.62048,14692165,1.1750001,0.12765957,371.9238,1763.0165,-0.026921034,-0.019448683,-0.052560806,0.0,0.0,0.0
301.77933,183.8927,14692182,1.2,0.12765957,661.7904,1759.6194,-0.026921034,-0.019448683,-0.052560806,0.0,0.0,0.0
312.95746,212.42163,14692199,1.2125,0.11702127,857.55304,2075.7178,-0.026921034,-0.019448683,-0.052560806,0.0,0.0,0.0
326.1647,239.93677,14692215,1.2125,0.12765957,972.92053,2181.7017,-0.026921034,-0.019448683,-0.052560806,0.0,0.0,0.0
342.97858,272.82593,14692232,1.2125,0.10638297,1103.0321,2112.0159,-0.026921034,-0.019448683,-0.052560806,0.0,0.0,0.0
357.56674,303.198,14692249,1.2,0.12765957,1104.3914,2064.2742,-0.005536832,-0.015558943,-0.010048866,0.0,0.0,0.0
368.04495,331.86658,14692265,1.1875,0.11702127,920.0674,1952.1426,-0.005536832,-0.015558943,-0.010048866,0.0,0.0,0.0
377.0084,355.24194,14692282,1.1625,0.12765957,634.04755,1649.7621,-0.005536832,-0.015558943,-0.010048866,0.0,0.0,0.0
385.31372,376.49365,14692299,1.1625,0.10638297,377.26212,1275.6821,-0.005536832,-0.015558943,-0.010048866,0.0,0.0,0.0
391.02237,388.45752,14692316,1.075,0.12765957,259.0024,795.5194,-0.005536832,-0.015558943,-0.010048866,0.0,0.0,0.0
393.98633,394.73633,14692332,0.975,0.10638297,163.60924,325.17807,-0.005536832,-0.015558943,-0.010048866,0.0,0.0,0.0
394.3495,398.35583,14692349,0.7375,0.10638297,9.298486,-41.725266,-0.005536832,-0.015558943,-0.010048866,0.0,0.0,0.0
394.3495,398.81433,14692357,0.32500002,0.14893617,-71.21916,-172.61757,-0.005536832,-0.015558943,-0.010048866,0.0,0.0,0.0
394.3495,398.81433,14692362,0.32500002,0.14893617,-71.21916,-172.61757,-0.005536832,-0.015558943,-0.010048866,0.0,0.0,0.0
213.90823,230.8872,14692524,0.6125,0.12765957,0.0,0.0,-0.005536832,-0.015558943,-0.010048866,0.0,0.0,0.0
216.07861,213.52576,14692533,1.1625,0.11702127,259.54648,-2074.0283,-0.005536832,-0.015558943,-0.010048866,0.0,0.0,0.0
214.74225,183.82239,14692550,1.2,0.12765957,-278.38843,-2508.7087,-0.005536832,-0.015558943,-0.010048866,0.0,0.0,0.0
220.72046,171.44604,14692566,1.2125,0.10638297,346.10843,-934.5059,-0.005536832,-0.015558943,-0.010048866,0.0,0.0,0.0
247.89587,144.09937,14692583,1.2125,0.12765957,1593.789,-1235.4838,-0.005536832,-0.015558943,-0.010048866,0.0,0.0,0.0
286.13092,128.90417,14692600,1.1750001,0.12765957,2564.1973,-1040.4215,-0.005536832,-0.015558943,-0.010048866,0.0,0.0,0.0
324.0655,120.76355,14692616,1.15,0.10638297,3073.7666,-664.59515,-0.005536832,-0.015558943,-0.010048866,0.0,0.0,0.0
357.4877,119.42639,14692633,1.1,0.11702127,3077.328,-39.4847,-0.005536832,-0.015558943,-0.010048866,0.0,0.0,0.0
381.6762,124.17505,14692650,1.1,0.12765957,2154.9504,526.3929,-0.005536832,-0.015558943,-0.010048866,0.0,0.0,0.0
399.44104,133.36499,14692666,1.1,0.12765957,1153.7478,892.4811,-0.005536832,-0.015558943,-0.010048866,0.0,0.0,0.0
410.52988,154.31262,14692683,1.1125001,0.11702127,399.23785,1203.0265,-0.005536832,-0.015558943,-0.010048866,0.0,0.0,0.0
412.59085,182.34119,14692700,1.1375,0.12765957,-31.88933,1777.9642,-0.005536832,-0.015558943,-0.010048866,0.0,0.0,0.0
400.79013,217.39917,14692717,1.1625,0.10638297,-632.4379,2372.5603,-0.005536832,-0.015558943,-0.010048866,0.0,0.0,0.0
389.86325,237.35364,14692733,1.15,0.12765957,-1220.9287,2379.1316,-0.005536832,-0.015558943,-0.010048866,0.0,0.0,0.0
368.70654,276.6626,14692750,1.1625,0.12765957,-1602.8956,2207.9805,-0.005536832,-0.015558943,-0.010048866,0.0,0.0,0.0
360.15427,291.67212,14692767,1.2125,0.12765957,-1379.5144,1577.255,-0.005536832,-0.015558943,-0.010048866,0.0,0.0,0.0
358.0535,300.396,14692783,1.2,0.10638297,-627.95,801.7453,0.011570536,-0.012447163,-0.0080394745,0.0,0.0,0.0
359.04495,303.18298,14692800,1.1875,0.11702127,54.30454,57.218353,0.011570536,-0.012447163,-0.0080394745,0.0,0.0,0.0
380.1783,302.6599,14692817,1.1875,0.12765957,877.58813,-452.79333,0.011570536,-0.012447163,-0.0080394745,0.0,0.0,0.0
420.96432,294.4414,14692834,1.1,0.12765957,2180.8757,-814.56647,0.011570536,-0.012447163,-0.0080394745,0.0,0.0,0.0
466.37592,287.1598,14692850,1.0500001,0.10638297,3388.4185,-801.0522,0.011570536,-0.012447163,-0.0080394745,0.0,0.0,0.0
508.24622,284.1974,14692867,1.0375,0.09574468,3764.3013,-672.6864,0.011570536,-0.012447163,-0.0080394745,0.0,0.0,0.0
539.2342,286.94824,14692884,1.025,0.11702127,2976.1145,-205.48683,0.011570536,-0.012447163,-0.0080394745,0.0,0.0,0.0
561.81934,295.4662,14692900,1.025,0.10638297,1701.259,430.6706,0.011570536,-0.012447163,-0.0080394745,0.0,0.0,0.0
573.3644,306.64832,14692917,1.025,0.11702127,689.87787,896.1102,0.011570536,-0.012447163,-0.0080394745,0.0,0.0,0.0
581.74963,332.71997,14692934,1.0375,0.11702127,48.512634,1433.3384,0.011570536,-0.012447163,-0.0080394745,0.0,0.0,0.0
578.1681,355.70972,14692951,1.0625,0.10638297,-433.93723,1783.8251,0.011570536,-0.012447163,-0.0080394745,0.0,0.0,0.0
565.64087,376.4867,14692967,1.075,0.10638297,-949.089,1792.3464,0.011570536,-0.012447163,-0.0080394745,0.0,0.0,0.0
542.4045,398.27832,14692984,1.1,0.12765957,-1558.5361,1556.2279,0.011570536,-0.012447163,-0.0080394745,0.0,0.0,0.0
513.7051,414.46814,14693001,1.1375,0.10638297,-2031.8174,1111.6326,0.011570536,-0.012447163,-0.0080394745,0.0,0.0,0.0
488.02264,419.10242,14693017,1.1375,0.11702127,-2271.884,579.68134,0.011570536,-0.012447163,-0.0080394745,0.0,0.0,0.0
468.287,416.70483,14693034,1.1125001,0.10638297,-1939.703,-26.388798,0.011570536,-0.012447163,-0.0080394745,0.0,0.0,0.0
451.31293,411.68958,14693051,1.1125001,0.12765957,-1300.2053,-622.8367,0.011570536,-0.012447163,-0.0080394745,0.0,0.0,0.0
442.64365,406.11316,14693068,1.0500001,0.12765957,-644.99963,-827.064,0.011570536,-0.012447163,-0.0080394745,0.0,0.0,0.0
440.3345,403.25684,14693079,0.35,0.15957446,-277.62823,-792.4053,0.011570536,-0.012447163,-0.0080394745,0.0,0.0,0.0
440.3345,403.25684,14693086,0.35,0.15957446,-277.62823,-792.4053,0.011570536,-0.012447163,-0.0080394745,0.0,0.0,0.0
692.7523,292.19397,14693570,0.90000004,0.12765957,0.0,0.0,0.00925643,0.006042272,0.041567802,0.0,0.0,0.0
692.7523,292.19397,14693602,1.0,0.12765957,0.038772777,0.01745418,0.00925643,0.006042272,0.041567802,0.0,0.0,0.0
670.8209,285.84753,14693619,1.075,0.10638297,-1464.9014,-423.90662,0.00925643,0.006042272,0.041567802,0.0,0.0,0.0
655.5786,284.1974,14693636,1.075,0.11702127,-1656.8746,-354.18378,0.00925643,0.006042272,0.041567802,0.0,0.0,0.0
641.49664,289.1244,14693652,1.1,0.12765957,-1466.7869,-1.435485,0.00925643,0.006042272,0.041567802,0.0,0.0,0.0
625.32996,297.7058,14693669,1.1,0.12765957,-1351.4973,349.57098,0.00925643,0.006042272,0.041567802,0.0,0.0,0.0
612.7651,309.38538,14693686,1.125,0.10638297,-966.19855,798.72705,0.00925643,0.006042272,0.041567802,0.0,0.0,0.0
601.90283,327.8694,14693703,1.125,0.12765957,-589.67285,1219.8553,0.00925643,0.006042272,0.041567802,0.0,0.0,0.0
598.04315,341.38196,14693719,1.1375,0.12765957,-408.4305,1223.6477,0.00925643,0.006042272,0.041567802,0.0,0.0,0.0
600.691,355.22803,14693736,1.1375,0.10638297,96.262276,1087.782,0.00925643,0.006042272,0.041567802,0.0,0.0,0.0
607.8144,364.92297,14693753,1.1375,0.10638297,560.5488,775.80505,0.00925643,0.006042272,0.041567802,0.0,0.0,0.0
622.14154,374.70203,14693769,1.1125001,0.10638297,1015.66614,494.4283,0.00925643,0.006042272,0.041567802,0.0,0.0,0.0
636.3735,377.49023,14693786,1.1,0.11702127,1259.9103,255.65321,0.00925643,0.006042272,0.041567802,0.0,0.0,0.0
651.8314,372.57422,14693803,1.0625,0.10638297,1248.5148,-144.5998,0.00925643,0.006042272,0.041567802,0.0,0.0,0.0
665.03265,361.71887,14693820,1.0625,0.12765957,1111.0972,-700.0161,0.00925643,0.006042272,0.041567802,0.0,0.0,0.0
673.9007,349.69397,14693836,1.075,0.10638297,747.6732,-1072.0994,-0.008594856,0.012833819,0.01725483,0.0,0.0,0.0
681.9014,324.22778,14693853,1.0875,0.10638297,471.707,-1518.2305,-0.008594856,0.012833819,0.01725483,0.0,0.0,0.0
682.7556,305.69495,14693870,1.1,0.12765957,125.35717,-1629.9175,-0.008594856,0.012833819,0.01725483,0.0,0.0,0.0
680.9856,297.69226,14693886,1.1125001,0.12765957,-219.94139,-1222.382,-0.008594856,0.012833819,0.01725483,0.0,0.0,0.0
679.0856,293.66675,14693903,1.125,0.12765957,-377.8741,-544.6794,-0.008594856,0.012833819,0.01725483,0.0,0.0,0.0
678.2571,292.19397,14693920,1.125,0.12765957,-359.75244,112.63805,-0.008594856,0.012833819,0.01725483,0.0,0.0,0.0
678.2571,293.07922,14693936,1.1125001,0.12765957,-105.53368,379.28583,-0.008594856,0.012833819,0.01725483,0.0,0.0,0.0
681.20605,303.93982,14693953,1.125,0.10638297,89.68508,541.8102,-0.008594856,0.012833819,0.01725483,0.0,0.0,0.0
687.7288,321.6809,14693970,1.125,0.11702127,333.36374,1042.13,-0.008594856,0.012833819,0.01725483,0.0,0.0,0.0
693.8132,332.52368,14693987,1.125,0.12765957,506.9771,1282.1096,-0.008594856,0.012833819,0.01725483,0.0,0.0,0.0
707.028,347.4403,14694003,1.1125001,0.12765957,711.6,1200.3135,-0.008594856,0.012833819,0.01725483,0.0,0.0,0.0
725.4445,359.8883,14694020,1.1,0.10638297,1042.3854,914.62885,-0.008594856,0.012833819,0.01725483,0.0,0.0,0.0
741.576,365.89587,14694037,1.1,0.11702127,1288.0254,557.6846,-0.008594856,0.012833819,0.01725483,0.0,0.0,0.0
754.60394,364.06104,14694053,1.1,0.12765957,1175.9868,95.54088,-0.008594856,0.012833819,0.01725483,0.0,0.0,0.0
765.3478,358.46497,14694070,1.1125001,0.12765957,854.07477,-419.30322,-0.008594856,0.012833819,0.01725483,0.0,0.0,0.0
774.48395,349.87256,14694087,1.1125001,0.12765957,510.25314,-821.95044,-0.008594856,0.012833819,0.01725483,0.0,0.0,0.0
781.9995,322.2754,14694104,1.1,0.10638297,334.17697,-1365.431,-0.008594856,0.012833819,0.01725483,0.0,0.0,0.0
781.3571,294.95593,14694120,1.1125001,0.12765957,118.36076,-1938.5901,-0.008594856,0.012833819,0.01725483,0.0,0.0,0.0
773.7618,260.61,14694137,1.075,0.10638297,-383.034,-2480.1292,-0.008594856,0.012833819,0.01725483,0.0,0.0,0.0
762.63574,229.2904,14694154,1.0875,0.11702127,-864.506,-2496.1106,-0.008594856,0.012833819,0.01725483,0.0,0.0,0.0
750.71173,199.66321,14694170,1.1125001,0.12765957,-1115.8044,-2149.2322,-0.008594856,0.012833819,0.01725483,0.0,0.0,0.0
739.5794,178.77563,14694187,1.1375,0.10638297,-1050.8425,-1599.9824,-0.008594856,0.012833819,0.01725483,0.0,0.0,0.0
729.05554,163.45349,14694204,1.125,0.10638297,-799.9426,-985.1958,-0.008594856,0.012833819,0.01725483,0.0,0.0,0.0
720.118,152.69849,14694221,1.15,0.12765957,-594.36993,-444.97406,-0.008594856,0.012833819,0.01725483,0.0,0.0,0.0
716.3465,149.23535,14694237,1.1875,0.12765957,-369.10898,-23.098808,-0.008594856,0.012833819,0.01725483,0.0,0.0,0.0
715.25256,150.02002,14694254,1.225,0.12765957,-81.68332,254.57457,-0.008594856,0.012833819,0.01725483,0.0,0.0,0.0
717.92163,165.83179,14694271,1.2125,0.12765957,212.72107,799.05914,-0.008594856,0.012833819,0.01725483,0.0,0.0,0.0
729.145,194.07019,14694287,1.1875,0.12765957,617.2387,1655.7721,-0.008594856,0.012833819,0.01725483,0.0,0.0,0.0
744.2895,230.19214,14694304,1.2,0.12765957,1027.7529,2516.793,-0.008594856,0.012833819,0.01725483,0.0,0.0,0.0
760.4686,271.5199,14694321,1.1625,0.11702127,1271.0558,3054.3982,-0.008594856,0.012833819,0.01725483,0.0,0.0,0.0
775.40265,295.08276,14694338,1.1375,0.12765957,1305.0459,2736.087,-0.008594856,0.012833819,0.01725483,0.0,0.0,0.0
795.26416,325.74463,14694354,1.15,0.12765957,1198.851,1908.9537,-0.008594856,0.012833819,0.01725483,0.0,0.0,0.0
813.4385,350.65125,14694371,1.1125001,0.12765957,1181.2573,1418.2919,-0.00687588,0.0022670478,-0.002196312,0.0,0.0,0.0
831.0904,370.82068,14694388,1.1,0.10638297,1189.5012,1155.4957,-0.00687588,0.0022670478,-0.002196312,0.0,0.0,0.0
844.02344,381.62732,14694404,0.9875,0.10638297,987.6355,790.0298,-0.00687588,0.0022670478,-0.002196312,0.0,0.0,0.0
848.2017,384.59827,14694415,0.625,0.12765957,782.4528,509.5951,-0.00687588,0.0022670478,-0.002196312,0.0,0.0,0.0
848.2017,384.59827,14694422,0.625,0.12765957,782.4528,509.5951,-0.00687588,0.0022670478,-0.002196312,0.0,0.0,0.0
954.66705,293.97095,14694664,0.9125,0.12765957,0.0,0.0,-0.00687588,0.0022670478,-0.002196312,0.0,0.0,0.0
954.66705,293.97095,14694688,1.0125,0.12765957,0.10960886,0.03609852,-0.00687588,0.0022670478,-0.002196312,0.0,0.0,0.0
931.4373,288.47607,14694705,1.1,0.12765957,-1784.4186,-421.6202,-0.00687588,0.0022670478,-0.002196312,0.0,0.0,0.0
918.61633,286.70557,14694722,1.0875,0.12765957,-1388.2064,-257.5606,-0.00687588,0.0022670478,-0.002196312,0.0,0.0,0.0
903.9827,289.07166,14694739,1.1,0.12765957,-1191.7507,-4.26348,-0.00687588,0.0022670478,-0.002196312,0.0,0.0,0.0
890.8215,293.29944,14694755,1.0875,0.12765957,-1047.2295,204.46431,-0.00687588,0.0022670478,-0.002196312,0.0,0.0,0.0
879.4488,301.9109,14694772,1.0500001,0.11702127,-655.0599,555.1406,-0.00687588,0.0022670478,-0.002196312,0.0,0.0,0.0
870.6849,316.45044,14694789,1.0625,0.11702127,-564.7494,819.7385,-0.00687588,0.0022670478,-0.002196312,0.0,0.0,0.0
864.66736,335.5183,14694805,1.0500001,0.12765957,-375.93402,1254.4198,-0.00687588,0.0022670478,-0.002196312,0.0,0.0,0.0
864.8243,353.19104,14694822,1.075,0.12765957,-58.257393,1433.4225,-0.00687588,0.0022670478,-0.002196312,0.0,0.0,0.0
869.57153,366.60913,14694839,1.0500001,0.11702127,321.33762,1274.205,-0.00687588,0.0022670478,-0.002196312,0.0,0.0,0.0
882.42346,380.36267,14694856,1.0375,0.10638297,756.9591,889.0562,-0.00687588,0.0022670478,-0.002196312,0.0,0.0,0.0
898.7066,389.58154,14694872,1.025,0.12765957,1205.9379,570.6107,-0.00687588,0.0022670478,-0.002196312,0.0,0.0,0.0
914.2424,391.7063,14694889,1.0500001,0.12765957,1350.5668,282.3585,-0.00687588,0.0022670478,-0.002196312,0.0,0.0,0.0
928.43726,387.1565,14694906,1.0625,0.10638297,1195.2727,-237.5912,0.010499299,0.0018136352,0.014243126,0.0,0.0,0.0
941.4041,375.84216,14694922,1.075,0.10638297,952.7354,-751.6669,0.010499299,0.0018136352,0.014243126,0.0,0.0,0.0
948.7315,364.05164,14694939,1.075,0.12765957,600.2597,-1132.9675,0.010499299,0.0018136352,0.014243126,0.0,0.0,0.0
954.73584,344.75427,14694956,1.0875,0.10638297,346.50385,-1326.6412,0.010499299,0.0018136352,0.014243126,0.0,0.0,0.0
951.91797,325.0686,14694972,1.1,0.10638297,-20.717352,-1413.5566,0.010499299,0.0018136352,0.014243126,0.0,0.0,0.0
946.24493,314.90173,14694989,1.075,0.12765957,-454.1204,-1209.203,0.010499299,0.0018136352,0.014243126,0.0,0.0,0.0
936.3068,304.28784,14695006,1.075,0.12765957,-787.42267,-774.3438,0.010499299,0.0018136352,0.014243126,0.0,0.0,0.0
925.28784,296.99854,14695023,1.0625,0.12765957,-954.5954,-403.5529,0.010499299,0.0018136352,0.014243126,0.0,0.0,0.0
917.2547,293.40088,14695039,1.0500001,0.12765957,-843.47375,-118.65621,0.010499299,0.0018136352,0.014243126,0.0,0.0,0.0
912.96063,292.19397,14695056,1.0500001,0.12765957,-512.69714,59.0628,0.010499299,0.0018136352,0.014243126,0.0,0.0,0.0
912.1809,293.6217,14695073,0.83750004,0.12765957,-120.20646,192.03394,0.010499299,0.0018136352,0.014243126,0.0,0.0,0.0
912.1809,294.85938,14695083,0.4375,0.12765957,68.40881,290.40622,0.010499299,0.0018136352,0.014243126,0.0,0.0,0.0
912.1809,294.85938,14695090,0.4375,0.12765957,68.40881,290.40622,0.010499299,0.0018136352,0.014243126,0.0,0.0,0.0
1064.1315,321.51453,14695259,0.425,0.08510638,0.0,0.0,0.010499299,0.0018136352,0.014243126,0.0,0.0,0.0
1048.1366,317.07202,14695273,1.0,0.10638297,838.2567,232.82283,0.010499299,0.0018136352,0.014243126,0.0,0.0,0.0
1035.1108,309.11267,14695290,1.0875,0.12765957,-450.82703,-523.34753,0.010499299,0.0018136352,0.014243126,0.0,0.0,0.0
1019.2877,301.364,14695307,1.1,0.12765957,-1023.6461,-672.6991,0.010499299,0.0018136352,0.014243126,0.0,0.0,0.0
1008.7737,298.438,14695323,1.1125001,0.12765957,-787.64703,-362.8454,0.010499299,0.0018136352,0.014243126,0.0,0.0,0.0
1001.3723,298.41345,14695340,1.125,0.12765957,-482.797,-48.4245,0.010499299,0.0018136352,0.014243126,0.0,0.0,0.0
994.67847,301.32043,14695357,1.0875,0.12765957,-327.00806,172.58282,0.010499299,0.0018136352,0.014243126,0.0,0.0,0.0
988.5292,308.04114,14695374,1.0875,0.11702127,-152.53767,514.6626,0.010499299,0.0018136352,0.014243126,0.0,0.0,0.0
980.24,328.67822,14695390,1.1125001,0.12765957,-308.6527,975.0563,0.010499299,0.0018136352,0.014243126,0.0,0.0,0.0
977.3386,343.9237,14695407,1.125,0.12765957,-309.77554,1310.7755,0.010499299,0.0018136352,0.014243126,0.0,0.0,0.0
980.01624,360.99048,14695424,1.1625,0.11702127,-5.8728576,1412.9202,0.010499299,0.0018136352,0.014243126,0.0,0.0,0.0
986.98364,374.4784,14695440,1.15,0.12765957,423.57275,1154.218,-0.023600563,-0.014549091,-0.020605087,0.0,0.0,0.0
999.2953,385.9762,14695457,1.1375,0.12765957,854.0328,742.8649,-0.023600563,-0.014549091,-0.020605087,0.0,0.0,0.0
1014.3751,392.90637,14695474,1.0875,0.12765957,1135.177,481.39157,-0.023600563,-0.014549091,-0.020605087,0.0,0.0,0.0
1030.6022,393.04797,14695491,1.075,0.12765957,1240.9138,83.99522,-0.023600563,-0.014549091,-0.020605087,0.0,0.0,0.0
1046.222,385.49646,14695507,1.0625,0.10638297,1203.4335,-416.0086,-0.023600563,-0.014549091,-0.020605087,0.0,0.0,0.0
1057.6769,374.54492,14695524,1.0500001,0.10638297,974.5337,-880.04865,-0.023600563,-0.014549091,-0.020605087,0.0,0.0,0.0
1064.1074,359.78137,14695541,1.0625,0.12765957,563.3371,-1168.8873,-0.023600563,-0.014549091,-0.020605087,0.0,0.0,0.0
1064.5917,343.09412,14695557,1.075,0.10638297,98.92122,-1286.6827,-0.023600563,-0.014549091,-0.020605087,0.0,0.0,0.0
1060.3665,328.84875,14695574,1.0875,0.10638297,-347.89545,-1217.0056,-0.023600563,-0.014549091,-0.020605087,0.0,0.0,0.0
1055.6936,320.9275,14695591,1.0875,0.11702127,-594.00757,-891.48627,-0.023600563,-0.014549091,-0.020605087,0.0,0.0,0.0
1051.6442,316.48987,14695607,1.1125001,0.11702127,-587.62427,-410.83255,-0.023600563,-0.014549091,-0.020605087,0.0,0.0,0.0
1048.7618,315.29504,14695624,1.125,0.11702127,-419.65234,43.704018,-0.023600563,-0.014549091,-0.020605087,0.0,0.0,0.0
1046.9103,318.68396,14695641,1.125,0.11702127,-142.42992,338.98984,-0.023600563,-0.014549091,-0.020605087,0.0,0.0,0.0
1047.9358,331.52075,14695658,1.0875,0.12765957,18.172672,682.75146,-0.023600563,-0.014549091,-0.020605087,0.0,0.0,0.0
1055.5101,351.36218,14695674,1.1,0.12765957,293.613,1201.9578,-0.023600563,-0.014549091,-0.020605087,0.0,0.0,0.0
1068.0875,377.7444,14695691,1.0875,0.11702127,730.6434,1803.9579,-0.023600563,-0.014549091,-0.020605087,0.0,0.0,0.0
1079.2433,395.94604,14695708,1.075,0.12765957,993.326,1856.5598,-0.023600563,-0.014549091,-0.020605087,0.0,0.0,0.0
1097.7705,423.72803,14695724,1.0625,0.10638297,1165.3629,1712.9559,-0.023600563,-0.014549091,-0.020605087,0.0,0.0,0.0
1116.4537,446.307,14695741,1.0500001,0.12765957,1296.6914,1582.1544,-0.023600563,-0.014549091,-0.020605087,0.0,0.0,0.0
1130.1345,463.7068,14695758,1.0625,0.11702127,1175.2115,1286.6758,-0.023600563,-0.014549091,-0.020605087,0.0,0.0,0.0
1139.3981,477.4552,14695775,1.0875,0.11702127,864.96344,969.23,-0.023600563,-0.014549091,-0.020605087,0.0,0.0,0.0
1143.936,484.55115,14695791,1.0875,0.12765957,365.3864,481.19583,-0.023600563,-0.014549091,-0.020605087,0.0,0.0,0.0
1146.7117,492.67834,14695808,1.1375,0.12765957,-28.94252,154.9144,-0.023600563,-0.014549091,-0.020605087,0.0,0.0,0.0
1145.9512,493.88416,14695825,1.125,0.12765957,-217.63867,-4.297793,-0.023600563,-0.014549091,-0.020605087,0.0,0.0,0.0
1136.3663,492.92407,14695841,1.075,0.11702127,-474.6823,-187.46188,-0.023600563,-0.014549091,-0.020605087,0.0,0.0,0.0
1113.4958,485.1682,14695858,1.075,0.10638297,-1157.9883,-463.744,-0.023600563,-0.014549091,-0.020605087,0.0,0.0,0.0
1091.6937,474.08313,14695875,1.0375,0.11702127,-1781.033,-819.2174,-0.023600563,-0.014549091,-0.020605087,0.0,0.0,0.0
1076.8488,463.54285,14695892,1.0125,0.12765957,-1737.2242,-952.8107,-0.023600563,-0.014549091,-0.020605087,0.0,0.0,0.0
1067.5374,454.97607,14695908,1.0,0.09574468,-1096.8152,-857.74994,-0.023600563,-0.014549091,-0.020605087,0.0,0.0,0.0
1053.6349,442.35095,14695919,0.2875,0.08510638,-838.68225,-876.3113,-0.023600563,-0.014549091,-0.020605087,0.0,0.0,0.0
1053.6349,442.35095,14695926,0.2875,0.08510638,-838.68225,-876.3113,-0.023600563,-0.014549091,-0.020605087,0.0,0.0,0.0
1103.1188,391.7063,14696031,1.0,0.10638297,0.0,0.0,0.013119549,0.02836071,0.015516281,0.0,0.0,0.0
1103.1188,391.7063,14696059,1.075,0.10638297,-0.09818719,-0.03545612,0.013119549,0.02836071,0.015516281,0.0,0.0,0.0
1103.1188,391.7063,14696075,1.0875,0.10638297,0.023753535,0.009199791,0.013119549,0.02836071,0.015516281,0.0,0.0,0.0
1103.1188,391.7063,14696092,1.0875,0.10638297,0.020250563,0.0059613464,0.013119549,0.02836071,0.015516281,0.0,0.0,0.0
1103.756,379.81238,14696109,1.0875,0.10638297,15.153937,-282.69583,0.013119549,0.02836071,0.015516281,0.0,0.0,0.0
1104.2611,359.33752,14696126,1.0375,0.12765957,45.838627,-1036.4199,0.013119549,0.02836071,0.015516281,0.0,0.0,0.0
1102.823,339.15906,14696142,1.025,0.10638297,2.557485,-1595.8043,0.013119549,0.02836071,0.015516281,0.0,0.0,0.0
1097.9968,313.96753,14696159,1.0125,0.10638297,-156.93088,-1930.0416,0.013119549,0.02836071,0.015516281,0.0,0.0,0.0
1090.8124,291.81104,14696176,1.0125,0.12765957,-403.6866,-1795.2722,0.013119549,0.02836071,0.015516281,0.0,0.0,0.0
1081.0325,266.18762,14696192,1.0125,0.11702127,-657.55786,-1558.1704,0.013119549,0.02836071,0.015516281,0.0,0.0,0.0
1071.6473,244.05737,14696209,0.9875,0.12765957,-745.54443,-1535.9341,0.013119549,0.02836071,0.015516281,0.0,0.0,0.0
1061.6774,224.57812,14696226,1.025,0.08510638,-734.1651,-1274.4513,0.013119549,0.02836071,0.015516281,0.0,0.0,0.0
1054.2101,210.58545,14696242,1.0375,0.10638297,-609.936,-985.38806,0.013119549,0.02836071,0.015516281,0.0,0.0,0.0
1051.6045,207.15698,14696259,1.0625,0.12765957,-344.05255,-428.52087,0.013119549,0.02836071,0.015516281,0.0,0.0,0.0
1050.4281,205.1206,14696276,1.1,0.12765957,-70.92178,73.59908,0.013119549,0.02836071,0.015516281,0.0,0.0,0.0
1050.381,206.86255,14696293,1.125,0.11702127,146.32655,391.494,0.013119549,0.02836071,0.015516281,0.0,0.0,0.0
1054.3065,221.22949,14696309,1.1,0.12765957,273.3904,780.6665,0.013119549,0.02836071,0.015516281,0.0,0.0,0.0
1063.7186,247.53711,14696326,1.0875,0.12765957,493.96518,1430.9308,0.013119549,0.02836071,0.015516281,0.0,0.0,0.0
1072.1602,278.08923,14696343,1.1,0.12765957,734.85004,2249.087,0.013119549,0.02836071,0.015516281,0.0,0.0,0.0
1079.4536,308.1195,14696359,1.1,0.11702127,744.9929,2541.1995,0.013119549,0.02836071,0.015516281,0.0,0.0,0.0
1086.7103,332.79846,14696376,1.0875,0.11702127,586.29083,2228.1711,0.013119549,0.02836071,0.015516281,0.0,0.0,0.0
1093.4838,354.00354,14696393,1.0625,0.12765957,400.56396,1555.6417,0.013119549,0.02836071,0.015516281,0.0,0.0,0.0
1099.6912,370.58484,14696410,1.1,0.10638297,345.13678,991.7745,0.013119549,0.02836071,0.015516281,0.0,0.0,0.0
1103.2992,379.69495,14696426,1.1,0.12765957,284.41064,555.75116,0.013119549,0.02836071,0.015516281,0.0,0.0,0.0
1104.7128,382.98926,14696443,1.15,0.12765957,123.55694,102.05892,0.013119549,0.02836071,0.015516281,0.0,0.0,0.0
1104.6183,382.8213,14696460,1.1750001,0.12765957,-48.299988,-247.89731,0.013119549,0.02836071,0.015516281,0.0,0.0,0.0
1104.6183,378.24927,14696476,1.125,0.11702127,-139.20445,-526.917,0.013119549,0.02836071,0.015516281,0.0,0.0,0.0
1103.1936,361.65173,14696493,1.075,0.12765957,-160.38676,-915.6055,0.013119549,0.02836071,0.015516281,0.0,0.0,0.0
1101.875,342.96436,14696510,1.0500001,0.10638297,-134.91637,-1336.4998,-0.0055043623,-0.0013114214,0.044413567,0.0,0.0,0.0
1101.9121,322.16052,14696527,1.0375,0.10638297,-89.25076,-1656.458,-0.0055043623,-0.0013114214,0.044413567,0.0,0.0,0.0
1104.1199,309.66382,14696543,1.0375,0.12765957,32.059917,-1444.0305,-0.0055043623,-0.0013114214,0.044413567,0.0,0.0,0.0
1106.7195,304.4519,14696560,1.0375,0.12765957,184.93707,-699.90076,-0.0055043623,-0.0013114214,0.044413567,0.0,0.0,0.0
1112.8878,300.51367,14696577,1.0500001,0.12765957,337.88156,-78.78267,-0.0055043623,-0.0013114214,0.044413567,0.0,0.0,0.0
1122.5612,301.77148,14696593,1.075,0.12765957,544.0297,304.64508,-0.0055043623,-0.0013114214,0.044413567,0.0,0.0,0.0
1134.9492,310.72205,14696610,1.0625,0.11702127,780.05194,572.55884,-0.0055043623,-0.0013114214,0.044413567,0.0,0.0,0.0
1153.1466,325.5266,14696627,1.0625,0.12765957,1093.2059,944.9242,-0.0055043623,-0.0013114214,0.044413567,0.0,0.0,0.0
1171.2197,341.1123,14696644,1.1125001,0.14893617,1303.0062,1268.3728,-0.0055043623,-0.0013114214,0.044413567,0.0,0.0,0.0
1187.2704,355.43677,14696660,1.1375,0.12765957,1276.1625,1304.659,-0.0055043623,-0.0013114214,0.044413567,0.0,0.0,0.0
1200.8824,368.30078,14696677,1.125,0.12765957,1074.0204,1075.1556,-0.0055043623,-0.0013114214,0.044413567,0.0,0.0,0.0
1213.0106,378.15857,14696694,1.1625,0.12765957,793.26605,746.3889,-0.0055043623,-0.0013114214,0.044413567,0.0,0.0,0.0
1221.4729,383.52832,14696710,1.1,0.12765957,490.63348,367.46075,-0.0055043623,-0.0013114214,0.044413567,0.0,0.0,0.0
1228.1486,385.48682,14696727,1.0625,0.12765957,323.3912,83.18771,-0.0055043623,-0.0013114214,0.044413567,0.0,0.0,0.0
1233.5796,384.9525,14696744,0.96250004,0.11702127,200.72885,-173.7634,-0.0055043623,-0.0013114214,0.044413567,0.0,0.0,0.0
1241.0739,381.0443,14696755,0.7,0.11702127,221.46858,-331.93683,-0.0055043623,-0.0013114214,0.044413567,0.0,0.0,0.0
1241.0739,381.0443,14696762,0.7,0.11702127,221.46858,-331.93683,-0.0055043623,-0.0013114214,0.044413567,0.0,0.0,0.0
