x,y,timestamp,pressure,fingerarea,velocityx,velocityy,accelx,accely,accelz,gyrox,gyroy,gyroz
335.36868,320.62598,78076229,0.7375,0.06382979,0.0,0.0,-0.03187214,-0.084284425,-0.19059944,0.0,0.0,0.0
335.36868,320.62598,78076251,0.75,0.06382979,-0.049124744,-0.05035144,-0.03187214,-0.084284425,-0.19059944,0.0,0.0,0.0
335.36868,320.62598,78076264,0.7875,0.08510638,-0.0046018427,-0.004383208,-0.03187214,-0.084284425,-0.19059944,0.0,0.0,0.0
335.36868,320.62598,78076284,0.8125,0.08510638,-0.005507936,-0.0058545996,-0.03187214,-0.084284425,-0.19059944,0.0,0.0,0.0
335.36868,320.62598,78076301,0.8125,0.08510638,0.009544632,0.009161643,-0.03187214,-0.084284425,-0.19059944,0.0,0.0,0.0
329.8378,341.5183,78076335,0.825,0.12765957,-153.30391,579.1324,-0.03187214,-0.084284425,-0.19059944,0.0,0.0,0.0
329.37064,352.90002,78076352,0.85,0.10638297,-192.13547,970.30194,-0.03187214,-0.084284425,-0.19059944,0.0,0.0,0.0
328.37097,374.30896,78076368,0.85,0.08510638,-130.72116,1490.1593,-0.03187214,-0.084284425,-0.19059944,0.0,0.0,0.0
328.65756,396.68298,78076385,0.825,0.12765957,-32.22516,1655.6375,-0.03187214,-0.084284425,-0.19059944,0.0,0.0,0.0
330.46744,425.0736,78076402,0.8125,0.08510638,159.1733,1641.9753,-0.03187214,-0.084284425,-0.19059944,0.0,0.0,0.0
332.94482,451.0171,78076418,0.825,0.12765957,217.5374,1787.417,-0.03187214,-0.084284425,-0.19059944,0.0,0.0,0.0
336.44037,482.0852,78076435,0.825,0.06382979,254.43712,1877.0359,-0.03187214,-0.084284425,-0.19059944,0.0,0.0,0.0
340.10693,508.91614,78076452,0.8,0.10638297,289.30832,1843.1387,-0.03187214,-0.084284425,-0.19059944,3.355443E-6,0.0,0.0
344.29453,537.8346,78076469,0.7875,0.06382979,295.3926,1800.4563,-0.03187214,-0.084284425,-0.19059944,3.355443E-6,0.0,0.0
347.4544,552.844,78076485,0.75,0.10638297,254.75888,1351.9976,-0.03187214,-0.084284425,-0.19059944,3.355443E-6,0.0,0.0
350.5074,562.80945,78076502,0.5375,0.12765957,215.71329,742.1191,-0.03187214,-0.084284425,-0.19059944,3.355443E-6,0.0,0.0
350.86365,564.0759,78076509,0.25,0.12765957,179.25017,414.80423,-0.03187214,-0.084284425,-0.19059944,3.355443E-6,0.0,0.0
350.86365,564.0759,78076516,0.25,0.12765957,179.25017,414.80423,-0.03187214,-0.084284425,-0.19059944,3.355443E-6,0.0,0.0
245.39798,373.93628,78076799,0.6,0.06382979,0.0,0.0,0.022502288,0.020572454,0.09552097,0.0,0.0,0.0
245.39798,373.93628,78076819,0.6875,0.06382979,-0.003282844,0.0025662174,0.022502288,0.020572454,0.09552097,0.0,0.0,0.0
245.39798,373.93628,78076836,0.77500004,0.06382979,0.0048161675,0.005623064,0.022502288,0.020572454,0.09552097,0.0,0.0,0.0
245.39798,373.93628,78076853,0.8,0.08510638,0.018700128,0.028912652,0.022502288,0.020572454,0.09552097,0.0,0.0,0.0
245.39798,373.93628,78076868,0.825,0.08510638,-0.0026766467,-0.0059640496,0.022502288,0.020572454,0.09552097,0.0,0.0,0.0
257.8747,366.78186,78076886,0.825,0.09574468,278.67606,-159.78882,0.022502288,0.020572454,0.09552097,0.0,0.0,0.0
287.1477,354.16187,78076903,0.825,0.10638297,1294.916,-637.0537,0.022502288,0.020572454,0.09552097,0.0,0.0,0.0
313.55386,342.10413,78076920,0.825,0.11702127,2069.6143,-949.68,0.022502288,0.020572454,0.09552097,0.0,0.0,0.0
351.8518,321.21753,78076936,0.83750004,0.09574468,2648.6624,-1282.7086,0.022502288,0.020572454,0.09552097,0.0,0.0,0.0
391.15292,298.71912,78076953,0.83750004,0.12765957,2817.4377,-1518.0376,0.022502288,0.020572454,0.09552097,0.0,0.0,0.0
430.06586,279.5077,78076970,0.8125,0.08510638,2619.7737,-1474.7668,0.022502288,0.020572454,0.09552097,0.0,0.0,0.0
470.70465,257.7754,78076987,0.8125,0.09574468,2744.4104,-1515.488,0.022502288,0.020572454,0.09552097,0.0,0.0,0.0
513.81055,241.54932,78077002,0.75,0.10638297,2616.956,-1242.1404,0.022502288,0.020572454,0.09552097,0.0,0.0,0.0
520.8083,238.88379,78077011,0.6,0.12765957,2354.1929,-991.6405,0.022502288,0.020572454,0.09552097,0.0,0.0,0.0
520.8083,238.88379,78077016,0.6,0.12765957,2354.1929,-991.6405,0.022502288,0.020572454,0.09552097,0.0,0.0,0.0
490.81805,477.00256,78079219,0.625,0.07446808,0.0,0.0,-0.023628056,0.030011594,0.026820183,0.0,0.0,0.0
490.81805,477.00256,78079242,0.675,0.07446808,-0.029069453,-0.02849328,-0.023628056,0.030011594,0.026820183,0.0,0.0,0.0
490.81805,477.00256,78079259,0.7,0.08510638,0.028981118,0.028566126,-0.023628056,0.030011594,0.026820183,0.0,0.0,0.0
490.81805,477.00256,78079276,0.725,0.08510638,-0.0118778,-0.01022043,-0.023628056,0.030011594,0.026820183,0.0,0.0,0.0
490.81805,477.00256,78079309,0.75,0.09574468,0.0023693203,0.0022394517,-0.023628056,0.030011594,0.026820183,0.0,0.0,0.0
490.81805,477.00256,78079326,0.7625,0.11702127,0.014611606,0.018369332,-0.023628056,0.030011594,0.026820183,0.0,0.0,0.0
490.81805,477.00256,78079343,0.75,0.11702127,-0.0024914828,-0.004026262,-0.023628056,0.030011594,0.026820183,0.0,0.0,0.0
480.87616,473.58215,78079359,0.7875,0.10638297,-176.72067,-60.779823,-0.023628056,0.030011594,0.026820183,0.0,0.0,0.0
466.40442,469.28662,78079376,0.7875,0.09574468,-994.3145,-323.6727,-0.023628056,0.030011594,0.026820183,0.0,0.0,0.0
455.133,469.0061,78079393,0.77500004,0.08510638,-1099.3654,-260.50107,-0.023628056,0.030011594,0.026820183,0.0,0.0,0.0
445.34418,471.46973,78079409,0.7875,0.08510638,-1045.3455,-65.40523,-0.023628056,0.030011594,0.026820183,0.0,0.0,0.0
435.95966,476.0409,78079426,0.77500004,0.09574468,-590.7881,321.08664,-0.023628056,0.030011594,0.026820183,0.0,0.0,0.0
428.6502,481.58826,78079443,0.77500004,0.08510638,-383.03873,490.563,-0.023628056,0.030011594,0.026820183,0.0,0.0,0.0
421.30734,489.02698,78079460,0.8,0.08510638,-387.51404,539.2901,-0.023628056,0.030011594,0.026820183,0.0,0.0,0.0
414.0776,496.43835,78079476,0.7875,0.10638297,-359.2424,556.4006,-0.023628056,0.030011594,0.026820183,0.0,0.0,0.0
406.50455,507.55286,78079493,0.8,0.09574468,-381.68774,611.0298,-0.023628056,0.030011594,0.026820183,0.0,0.0,0.0
401.9119,521.4209,78079510,0.7875,0.08510638,-352.00665,796.03864,-0.023628056,0.030011594,0.026820183,0.0,0.0,0.0
403.8048,534.53357,78079526,0.77500004,0.06382979,-92.67381,967.22876,-0.023628056,0.030011594,0.026820183,0.0,0.0,0.0
405.64737,543.2877,78079543,0.7875,0.08510638,203.96327,862.70557,-0.023628056,0.030011594,0.026820183,0.0,0.0,0.0
408.57663,547.9475,78079560,0.7875,0.10638297,369.49588,465.00424,-0.023628056,0.030011594,0.026820183,0.0,0.0,0.0
414.40836,552.86035,78079577,0.77500004,0.11702127,448.22354,113.841705,-0.023628056,0.030011594,0.026820183,0.0,0.0,0.0
423.20538,556.5198,78079593,0.7625,0.12765957,520.8454,14.490387,-0.023628056,0.030011594,0.026820183,0.0,0.0,0.0
435.86932,559.49023,78079610,0.7875,0.12765957,746.5294,66.701454,-0.023628056,0.030011594,0.026820183,0.0,0.0,0.0
446.93103,559.6334,78079627,0.77500004,0.09574468,901.8491,49.10136,-0.023628056,0.030011594,0.026820183,0.0,0.0,0.0
456.88196,557.84705,78079643,0.77500004,0.10638297,818.2985,-104.62881,-0.023628056,0.030011594,0.026820183,0.0,0.0,0.0
465.18207,556.00037,78079660,0.7875,0.09574468,629.0519,-213.45547,-0.023628056,0.030011594,0.026820183,0.0,0.0,0.0
471.24664,553.2639,78079677,0.7625,0.09574468,402.87018,-266.6453,-0.023628056,0.030011594,0.026820183,0.0,0.0,0.0
476.30957,549.42737,78079694,0.7625,0.07446808,244.30983,-274.20245,-0.023628056,0.030011594,0.026820183,0.0,0.0,0.0
480.95996,545.7384,78079710,0.7625,0.07446808,179.30127,-267.58218,-0.023628056,0.030011594,0.026820183,0.0,0.0,0.0
484.7317,543.27466,78079727,0.75,0.07446808,151.78899,-238.32497,-0.0029024482,-0.03199072,-0.04254341,0.0,0.0,0.0
487.55536,540.10266,78079744,0.77500004,0.07446808,143.12178,-180.95271,-0.0029024482,-0.03199072,-0.04254341,0.0,0.0,0.0
490.17108,537.2991,78079760,0.7625,0.07446808,121.29294,-155.41924,-0.0029024482,-0.03199072,-0.04254341,0.0,0.0,0.0
492.44714,534.1959,78079777,0.77500004,0.08510638,97.320755,-167.12006,-0.0029024482,-0.03199072,-0.04254341,0.0,0.0,0.0
494.1729,531.4574,78079794,0.77500004,0.08510638,85.43017,-180.77382,-0.0029024482,-0.03199072,-0.04254341,0.0,0.0,0.0
496.11096,528.90076,78079811,0.7875,0.08510638,84.530815,-159.3569,-0.0029024482,-0.03199072,-0.04254341,0.0,0.0,0.0
497.75378,526.869,78079827,0.77500004,0.09574468,81.33575,-127.00422,-0.0029024482,-0.03199072,-0.04254341,0.0,0.0,0.0
499.27527,525.01733,78079844,0.7875,0.09574468,77.71306,-104.60237,-0.0029024482,-0.03199072,-0.04254341,0.0,0.0,0.0
500.85785,523.1665,78079861,0.7875,0.09574468,84.77483,-94.126945,-0.0029024482,-0.03199072,-0.04254341,0.0,0.0,0.0
501.87585,521.3187,78079877,0.7875,0.09574468,74.13385,-93.00495,-0.0029024482,-0.03199072,-0.04254341,0.0,0.0,0.0
502.9118,519.4772,78079894,0.7625,0.10638297,57.325996,-98.22748,-0.0029024482,-0.03199072,-0.04254341,0.0,0.0,0.0
503.81384,517.63293,78079911,0.7875,0.10638297,51.104004,-110.55792,-0.0029024482,-0.03199072,-0.04254341,0.0,0.0,0.0
504.31366,515.7814,78079927,0.8,0.10638297,28.960215,-110.0362,-0.0029024482,-0.03199072,-0.04254341,0.0,0.0,0.0
504.81354,513.93506,78079944,0.7625,0.10638297,18.601807,-110.54207,-0.0029024482,-0.03199072,-0.04254341,0.0,0.0,0.0
505.07104,512.5427,78079961,0.7875,0.10638297,6.4626403,-103.05088,-0.0029024482,-0.03199072,-0.04254341,0.0,0.0,0.0
506.11133,512.0128,78079978,0.7875,0.10638297,25.66782,-52.03983,-0.0029024482,-0.03199072,-0.04254341,0.0,0.0,0.0
506.31305,511.05762,78079994,0.7875,0.10638297,38.49002,-21.78915,-0.0029024482,-0.03199072,-0.04254341,0.0,0.0,0.0
506.31305,510.76575,78080009,0.77500004,0.10638297,21.356676,-11.12808,-0.0029024482,-0.03199072,-0.04254341,0.0,0.0,0.0
506.99982,510.76575,78080028,0.7875,0.10638297,13.254629,5.1983213,-0.0029024482,-0.03199072,-0.04254341,0.0,0.0,0.0
506.81287,509.8772,78080044,0.8,0.10638297,-4.8466783,-15.79932,-0.0029024482,-0.03199072,-0.04254341,0.0,0.0,0.0
506.81287,508.54456,78080058,0.7875,0.10638297,-8.995665,-39.54469,-0.0029024482,-0.03199072,-0.04254341,0.0,0.0,0.0
506.81287,508.98877,78080077,0.8,0.10638297,-2.986707,-30.598557,-0.0029024482,-0.03199072,-0.04254341,0.0,0.0,0.0
506.81287,508.10022,78080095,0.77500004,0.10638297,-8.716065,-38.90572,-0.0029024482,-0.03199072,-0.04254341,0.0,0.0,0.0
506.81287,508.10022,78080111,0.77500004,0.10638297,1.2304616,-0.7168968,-0.0029024482,-0.03199072,-0.04254341,0.0,0.0,0.0
506.81287,507.21167,78080128,0.7875,0.10638297,0.013921952,-21.594616,-0.0029024482,-0.03199072,-0.04254341,0.0,0.0,0.0
506.81287,507.21167,78080145,0.7875,0.10638297,-0.03440829,-19.346529,-0.0029024482,-0.03199072,-0.04254341,0.0,0.0,0.0
506.81287,507.21167,78080161,0.8,0.10638297,0.019033793,-1.8731216,-0.0029024482,-0.03199072,-0.04254341,0.0,0.0,0.0
506.81287,507.21167,78080178,0.77500004,0.10638297,-0.008017736,4.6353226,-0.0029024482,-0.03199072,-0.04254341,0.0,0.0,0.0
506.81287,507.21167,78080195,0.77500004,0.09574468,0.027360562,16.920639,-0.0029024482,-0.03199072,-0.04254341,0.0,0.0,0.0
506.81287,507.21167,78080212,0.7875,0.10638297,-0.01573703,-0.013875138,-0.0029024482,-0.03199072,-0.04254341,0.0,0.0,0.0
506.81287,507.21167,78080228,0.77500004,0.10638297,-0.017609809,-0.016494239,-0.0029024482,-0.03199072,-0.04254341,0.0,0.0,0.0
506.81287,507.21167,78080238,0.7875,0.10638297,-0.001351863,-0.0012061524,-0.0029024482,-0.03199072,-0.04254341,0.0,0.0,0.0
506.81287,507.21167,78080262,0.77500004,0.10638297,0.014756879,0.014542406,-0.018321961,0.014407426,0.10196495,0.0,0.0,0.0
506.81287,507.21167,78080274,0.77500004,0.10638297,-0.0125489915,-0.015811758,-0.018321961,0.014407426,0.10196495,0.0,0.0,0.0
506.81287,507.21167,78080294,0.7875,0.10638297,0.007325342,0.0075158225,-0.018321961,0.014407426,0.10196495,0.0,0.0,0.0
506.81287,507.21167,78080310,0.7625,0.10638297,-0.018866802,-0.018890768,-0.018321961,0.014407426,0.10196495,0.0,0.0,0.0
506.81287,507.21167,78080329,0.7875,0.10638297,0.026140824,0.024719985,-0.018321961,0.014407426,0.10196495,0.0,0.0,0.0
506.81287,507.21167,78080345,0.8,0.10638297,-0.04563331,-0.04586754,-0.018321961,0.014407426,0.10196495,0.0,0.0,0.0
506.81287,507.21167,78080355,0.7875,0.10638297,-0.019073155,-0.019588772,-0.018321961,0.014407426,0.10196495,0.0,0.0,0.0
506.81287,507.21167,78080395,0.77500004,0.10638297,0.020528466,0.01799636,-0.018321961,0.014407426,0.10196495,0.0,0.0,0.0
506.81287,507.21167,78080411,0.8,0.10638297,-0.00617885,-0.0063928,-0.018321961,0.014407426,0.10196495,0.0,0.0,0.0
506.81287,507.21167,78080429,0.7875,0.10638297,-0.0013469378,9.104828E-4,-0.018321961,0.014407426,0.10196495,0.0,0.0,0.0
506.81287,507.21167,78080445,0.77500004,0.10638297,-0.006660986,-0.0054704007,-0.018321961,0.014407426,0.10196495,0.0,0.0,0.0
506.81287,507.21167,78080462,0.7875,0.10638297,-0.001409587,-4.0548115E-5,-0.018321961,0.014407426,0.10196495,0.0,0.0,0.0
506.81287,507.21167,78080479,0.7875,0.10638297,0.018879179,0.018058024,-0.018321961,0.014407426,0.10196495,0.0,0.0,0.0
506.81287,507.21167,78080483,0.8,0.10638297,0.03912313,0.038857296,-0.018321961,0.014407426,0.10196495,0.0,0.0,0.0
506.81287,507.21167,78080504,0.7875,0.10638297,-0.009306237,-0.011254005,-0.018321961,0.014407426,0.10196495,0.0,0.0,0.0
506.81287,507.21167,78080546,0.7875,0.10638297,-0.007992029,-0.006384006,-0.018321961,0.014407426,0.10196495,0.0,0.0,0.0
506.81287,507.21167,78080562,0.77500004,0.09574468,0.022582665,0.023956725,-0.018321961,0.014407426,0.10196495,0.0,0.0,0.0
506.81287,507.21167,78080579,0.7875,0.09574468,-0.005322597,-0.0069669974,-0.018321961,0.014407426,0.10196495,0.0,0.0,0.0
506.81287,507.21167,78080596,0.7875,0.09574468,-0.011775245,-0.0108602755,-0.018321961,0.014407426,0.10196495,0.0,0.0,0.0
506.81287,506.32324,78080613,0.7875,0.09574468,-0.0056460197,-35.13453,-0.018321961,0.014407426,0.10196495,0.0,0.0,0.0
506.81287,506.32324,78080629,0.77500004,0.09574468,-0.011124158,-34.162266,-0.018321961,0.014407426,0.10196495,0.0,0.0,0.0
506.81287,506.32324,78080636,0.7875,0.10638297,0.036008816,-28.705128,-0.018321961,0.014407426,0.10196495,0.0,0.0,0.0
506.81287,506.32324,78080696,0.7875,0.09574468,0.0,0.0,-0.018321961,0.014407426,0.10196495,0.0,0.0,0.0
506.81287,506.32324,78080713,0.77500004,0.10638297,0.035936963,0.03456043,-0.018321961,0.014407426,0.10196495,0.0,0.0,0.0
506.81287,506.32324,78080730,0.7875,0.10638297,0.0408267,0.042333774,-0.018321961,0.014407426,0.10196495,0.0,0.0,0.0
506.81287,506.32324,78080763,0.7875,0.12765957,-0.014383149,-0.013459706,-0.018321961,0.014407426,0.10196495,0.0,0.0,0.0
506.81287,506.32324,78080773,0.7875,0.10638297,0.010157842,0.009274896,-0.018321961,0.014407426,0.10196495,0.0,0.0,0.0
506.81287,506.32324,78080796,0.7875,0.10638297,-0.014305266,-0.01289194,-0.014657557,-0.020474046,0.009572029,0.0,0.0,0.0
506.81287,506.32324,78080813,0.7875,0.10638297,-0.01083273,-0.011701184,-0.014657557,-0.020474046,0.009572029,0.0,0.0,0.0
506.81287,506.32324,78080830,0.8,0.10638297,-0.014264725,-0.014527533,-0.014657557,-0.020474046,0.009572029,0.0,0.0,0.0
506.81287,506.32324,78080847,0.7875,0.10638297,-0.016156884,-0.016259557,-0.014657557,-0.020474046,0.009572029,0.0,0.0,0.0
506.81287,506.32324,78080863,0.7875,0.10638297,0.016376713,0.019127602,-0.014657557,-0.020474046,0.009572029,0.0,0.0,0.0
506.81287,506.32324,78080880,0.8125,0.10638297,0.01953734,0.02132687,-0.014657557,-0.020474046,0.009572029,0.0,0.0,0.0
506.81287,506.32324,78080897,0.77500004,0.10638297,0.0034865064,0.0067875823,-0.014657557,-0.020474046,0.009572029,0.0,0.0,0.0
506.81287,506.32324,78080913,0.7875,0.10638297,0.06328958,0.063023135,-0.014657557,-0.020474046,0.009572029,0.0,0.0,0.0
506.81287,506.32324,78080925,0.8,0.10638297,0.017464021,0.0201157,-0.014657557,-0.020474046,0.009572029,0.0,0.0,0.0
506.81287,506.32324,78080947,0.8,0.10638297,0.047472596,0.046310302,-0.014657557,-0.020474046,0.009572029,0.0,0.0,0.0
506.81287,506.32324,78080957,0.7875,0.10638297,-0.0020079098,-2.1015292E-4,-0.014657557,-0.020474046,0.009572029,0.0,0.0,0.0
506.81287,506.32324,78080997,0.8,0.10638297,-0.021519624,-0.024067132,-0.014657557,-0.020474046,0.009572029,0.0,0.0,0.0
506.81287,506.32324,78081014,0.7875,0.10638297,-0.012074663,-0.011898323,-0.014657557,-0.020474046,0.009572029,0.0,0.0,0.0
506.81287,506.32324,78081030,0.8,0.10638297,-0.0123802,-0.013548624,-0.014657557,-0.020474046,0.009572029,0.0,0.0,0.0
506.81287,506.32324,78081047,0.7875,0.10638297,-0.004691302,-0.0035246888,-0.014657557,-0.020474046,0.009572029,0.0,0.0,0.0
506.81287,506.32324,78081064,0.77500004,0.10638297,0.0053667934,0.0031143925,-0.014657557,-0.020474046,0.009572029,0.0,0.0,0.0
506.81287,506.32324,78081070,0.7875,0.10638297,0.02579318,0.025783367,-0.014657557,-0.020474046,0.009572029,0.0,0.0,0.0
506.81287,506.32324,78081097,0.8,0.10638297,-0.016910957,-0.016748384,-0.014657557,-0.020474046,0.009572029,0.0,0.0,0.0
506.81287,506.32324,78081114,0.77500004,0.10638297,-2.9015928E-4,0.0012402369,-0.014657557,-0.020474046,0.009572029,0.0,0.0,0.0
506.81287,506.32324,78081131,0.7875,0.10638297,-0.023166977,-0.024446324,-0.014657557,-0.020474046,0.009572029,0.0,0.0,0.0
506.81287,506.32324,78081147,0.77500004,0.10638297,0.004185417,0.005062082,-0.014657557,-0.020474046,0.009572029,0.0,0.0,0.0
506.81287,506.32324,78081164,0.8,0.10638297,0.020819284,0.019344322,-0.014657557,-0.020474046,0.009572029,0.0,0.0,0.0
506.81287,506.32324,78081181,0.7875,0.10638297,-0.0030453526,-0.0039297813,-0.014657557,-0.020474046,0.009572029,0.0,0.0,0.0
506.81287,506.32324,78081197,0.7875,0.10638297,-0.038948886,-0.040011585,-0.014657557,-0.020474046,0.009572029,0.0,0.0,0.0
506.81287,506.32324,78081214,0.7875,0.12765957,-0.010894254,-0.010560852,-0.014657557,-0.020474046,0.009572029,0.0,0.0,0.0
506.81287,506.32324,78081231,0.77500004,0.10638297,-0.036123008,-0.039080605,-0.014657557,-0.020474046,0.009572029,0.0,0.0,0.0
506.81287,506.32324,78081248,0.8,0.10638297,-0.01996925,-0.019039925,-0.014657557,-0.020474046,0.009572029,0.0,0.0,0.0
506.81287,506.32324,78081263,0.77500004,0.10638297,-0.03251521,-0.03022102,-0.014657557,-0.020474046,0.009572029,0.0,0.0,0.0
506.81287,506.32324,78081281,0.8,0.10638297,0.036704052,0.034771193,-0.014657557,-0.020474046,0.009572029,0.0,0.0,0.0
506.81287,506.32324,78081287,0.7875,0.10638297,0.017754372,0.015923005,-0.014657557,-0.020474046,0.009572029,0.0,0.0,0.0
506.81287,506.32324,78081314,0.77500004,0.10638297,0.005954822,0.005027404,0.004273966,-0.016379237,-0.04034233,0.0,0.0,0.0
506.81287,506.32324,78081331,0.77500004,0.10638297,0.011014985,0.010581928,0.004273966,-0.016379237,-0.04034233,0.0,0.0,0.0
506.81287,506.32324,78081348,0.8,0.10638297,-0.011218237,-0.009437134,0.004273966,-0.016379237,-0.04034233,0.0,0.0,0.0
506.81287,506.32324,78081365,0.8,0.10638297,0.00332799,0.0014928702,0.004273966,-0.016379237,-0.04034233,0.0,0.0,0.0
506.81287,506.32324,78081381,0.77500004,0.10638297,-0.016960355,-0.01720475,0.004273966,-0.016379237,-0.04034233,0.0,0.0,0.0
506.81287,506.32324,78081398,0.7875,0.10638297,-0.015096346,-0.017654505,0.004273966,-0.016379237,-0.04034233,0.0,0.0,0.0
506.81287,506.32324,78081415,0.7875,0.10638297,-0.019228688,-0.021560589,0.004273966,-0.016379237,-0.04034233,0.0,0.0,0.0
506.81287,506.32324,78081431,0.7875,0.10638297,-0.029627824,-0.030213336,0.004273966,-0.016379237,-0.04034233,0.0,0.0,0.0
506.81287,506.32324,78081448,0.7875,0.10638297,-0.0089947935,-0.008899821,0.004273966,-0.016379237,-0.04034233,0.0,0.0,0.0
506.81287,506.32324,78081465,0.8,0.10638297,-0.018262533,-0.018910326,0.004273966,-0.016379237,-0.04034233,0.0,0.0,0.0
506.81287,506.32324,78081482,0.77500004,0.10638297,-0.035652116,-0.036160227,0.004273966,-0.016379237,-0.04034233,0.0,0.0,0.0
506.81287,506.32324,78081498,0.7875,0.10638297,0.03077748,0.027758535,0.004273966,-0.016379237,-0.04034233,0.0,0.0,0.0
506.81287,506.32324,78081513,0.7875,0.10638297,0.0036909897,0.005207624,0.004273966,-0.016379237,-0.04034233,0.0,0.0,0.0
506.81287,506.32324,78081532,0.8,0.10638297,-0.027368693,-0.02944994,0.004273966,-0.016379237,-0.04034233,0.0,0.0,0.0
507.32953,506.32324,78081548,0.7875,0.10638297,13.449252,-0.013278994,0.004273966,-0.016379237,-0.04034233,0.0,0.0,0.0
507.31268,506.32324,78081565,0.77500004,0.10638297,17.614317,0.0011219552,0.004273966,-0.016379237,-0.04034233,0.0,0.0,0.0
507.31268,506.32324,78081582,0.77500004,0.10638297,12.303047,5.059535E-4,0.004273966,-0.016379237,-0.04034233,0.0,0.0,0.0
507.9449,507.4469,78081598,0.7875,0.10638297,17.95391,26.517937,0.004273966,-0.016379237,-0.04034233,0.0,0.0,0.0
508.31238,509.2948,78081615,0.77500004,0.10638297,29.818684,99.38983,0.004273966,-0.016379237,-0.04034233,0.0,0.0,0.0
508.31238,510.26038,78081632,0.7875,0.10638297,21.964996,119.40411,0.004273966,-0.016379237,-0.04034233,0.0,0.0,0.0
508.5619,511.20923,78081649,0.7875,0.10638297,5.623157,92.32908,0.004273966,-0.016379237,-0.04034233,0.0,0.0,0.0
508.8122,513.0637,78081665,0.77500004,0.09574468,4.6259604,81.69747,0.004273966,-0.016379237,-0.04034233,0.0,0.0,0.0
508.8122,514.8723,78081682,0.7875,0.09574468,1.6246735,89.78356,0.004273966,-0.016379237,-0.04034233,0.0,0.0,0.0
508.8122,515.9675,78081699,0.7875,0.09574468,6.201006,109.18645,0.004273966,-0.016379237,-0.04034233,0.0,0.0,0.0
508.8122,516.9852,78081715,0.7875,0.09574468,-5.387733,88.213615,0.004273966,-0.016379237,-0.04034233,0.0,0.0,0.0
508.8122,518.64233,78081732,0.7875,0.08510638,-8.672188,63.143494,0.004273966,-0.016379237,-0.04034233,0.0,0.0,0.0
508.8122,520.5211,78081749,0.7875,0.08510638,-0.017624673,82.29895,0.004273966,-0.016379237,-0.04034233,0.0,0.0,0.0
508.8122,522.3788,78081766,0.77500004,0.08510638,0.031493343,121.41065,0.004273966,-0.016379237,-0.04034233,0.0,0.0,0.0
510.42255,525.37585,78081799,0.77500004,0.06382979,45.334797,91.14837,0.004273966,-0.016379237,-0.04034233,0.0,0.0,0.0
510.9588,527.90906,78081816,0.7875,0.06382979,63.825466,117.34763,0.004273966,-0.016379237,-0.04034233,0.0,0.0,0.0
512.00275,530.9935,78081832,0.77500004,0.06382979,71.46162,171.39383,0.004273966,-0.016379237,-0.04034233,0.0,0.0,0.0
513.0328,534.6555,78081849,0.7625,0.06382979,67.19296,243.85782,-0.012580842,0.050896585,-2.7370453E-4,0.0,0.0,0.0
514.08093,537.4934,78081866,0.77500004,0.07446808,63.761078,204.0306,-0.012580842,0.050896585,-2.7370453E-4,0.0,0.0,0.0
515.11304,541.1627,78081883,0.77500004,0.07446808,65.58352,210.84491,-0.012580842,0.050896585,-2.7370453E-4,0.0,0.0,0.0
516.15826,544.2595,78081899,0.7875,0.08510638,67.63152,215.47218,-0.012580842,0.050896585,-2.7370453E-4,0.0,0.0,0.0
516.69104,545.20654,78081916,0.8,0.08510638,46.946537,123.354416,-0.012580842,0.050896585,-2.7370453E-4,0.0,0.0,0.0
518.21497,547.027,78081933,0.77500004,0.08510638,56.871998,67.136154,-0.012580842,0.050896585,-2.7370453E-4,0.0,0.0,0.0
519.732,548.9032,78081949,0.77500004,0.08510638,77.47866,46.867867,-0.012580842,0.050896585,-2.7370453E-4,0.0,0.0,0.0
521.81274,550.7527,78081966,0.7625,0.08510638,119.372765,77.481895,-0.012580842,0.050896585,-2.7370453E-4,0.0,0.0,0.0
522.8518,550.7484,78081983,0.77500004,0.08510638,118.39358,65.86726,-0.012580842,0.050896585,-2.7370453E-4,0.0,0.0,0.0
523.8927,550.7484,78082000,0.75,0.08510638,85.496666,5.3665876,-0.012580842,0.050896585,-2.7370453E-4,0.0,0.0,0.0
526.0533,550.5292,78082016,0.75,0.09574468,83.52107,-47.920746,-0.012580842,0.050896585,-2.7370453E-4,0.0,0.0,0.0
528.6256,548.40295,78082033,0.75,0.08510638,120.14131,-108.05463,-0.012580842,0.050896585,-2.7370453E-4,0.0,0.0,0.0
531.91315,543.4475,78082050,0.7375,0.08510638,184.94545,-227.4893,-0.012580842,0.050896585,-2.7370453E-4,0.0,0.0,0.0
535.77277,537.906,78082066,0.7375,0.07446808,253.74985,-391.4166,-0.012580842,0.050896585,-2.7370453E-4,0.0,0.0,0.0
539.711,531.864,78082083,0.75,0.10638297,272.67584,-473.4351,-0.012580842,0.050896585,-2.7370453E-4,0.0,0.0,0.0
543.5866,524.474,78082100,0.7625,0.12765957,275.5955,-502.52246,-0.012580842,0.050896585,-2.7370453E-4,0.0,0.0,0.0
547.731,516.47107,78082116,0.7625,0.09574468,261.40906,-509.04614,-0.012580842,0.050896585,-2.7370453E-4,0.0,0.0,0.0
554.5439,503.60205,78082133,0.75,0.08510638,313.61182,-634.798,-0.012580842,0.050896585,-2.7370453E-4,0.0,0.0,0.0
560.9628,488.49158,78082150,0.75,0.06382979,413.1373,-906.327,-0.012580842,0.050896585,-2.7370453E-4,0.0,0.0,0.0
565.2194,474.64563,78082167,0.7375,0.08510638,412.78986,-1045.6261,-0.012580842,0.050896585,-2.7370453E-4,0.0,0.0,0.0
568.34485,463.4901,78082183,0.75,0.10638297,275.3763,-937.72943,-0.012580842,0.050896585,-2.7370453E-4,0.0,0.0,0.0
570.9633,453.2926,78082200,0.75,0.08510638,127.628685,-701.0904,-0.012580842,0.050896585,-2.7370453E-4,0.0,0.0,0.0
572.8881,443.26794,78082217,0.75,0.07446808,47.413616,-522.26984,-0.012580842,0.050896585,-2.7370453E-4,0.0,0.0,0.0
574.92426,431.39087,78082233,0.75,0.07446808,59.743286,-560.06396,-0.012580842,0.050896585,-2.7370453E-4,0.0,0.0,0.0
577.3396,419.63623,78082250,0.75,0.10638297,83.52952,-639.503,-0.012580842,0.050896585,-2.7370453E-4,0.0,0.0,0.0
578.5085,409.80713,78082267,0.75,0.12765957,85.26287,-667.0218,-0.012580842,0.050896585,-2.7370453E-4,0.0,0.0,0.0
579.0471,399.18945,78082284,0.7625,0.08510638,48.707397,-641.97687,-0.012580842,0.050896585,-2.7370453E-4,0.0,0.0,0.0
579.7891,389.43616,78082300,0.7375,0.07446808,22.82653,-590.18414,-0.012580842,0.050896585,-2.7370453E-4,0.0,0.0,0.0
580.1154,379.03284,78082317,0.75,0.07446808,-6.4433784,-592.99524,-0.012580842,0.050896585,-2.7370453E-4,0.0,0.0,0.0
581.1108,370.75854,78082334,0.7375,0.08510638,7.627309,-532.30176,-0.012580842,0.050896585,-2.7370453E-4,0.0,0.0,0.0
581.78845,363.10083,78082350,0.7625,0.11702127,46.841003,-456.9773,-0.012580842,0.050896585,-2.7370453E-4,0.0,0.0,0.0
582.2883,356.54907,78082367,0.75,0.12765957,47.896416,-374.44894,-0.012580842,0.050896585,-2.7370453E-4,0.0,0.0,0.0
582.2883,349.9978,78082384,0.725,0.10638297,23.649427,-313.63596,0.021935329,-0.007282734,-2.193451E-4,0.0,0.0,0.0
581.78845,342.63696,78082401,0.3625,0.08510638,-27.693848,-367.69244,0.021935329,-0.007282734,-2.193451E-4,0.0,0.0,0.0
578.7894,337.50757,78082408,0.175,0.06382979,-87.84321,-417.71353,0.021935329,-0.007282734,-2.193451E-4,0.0,0.0,0.0
578.7894,337.50757,78082415,0.175,0.06382979,-87.84321,-417.71353,0.021935329,-0.007282734,-2.193451E-4,0.0,0.0,0.0
664.7615,274.42383,78084467,0.55,0.06382979,0.0,0.0,-0.011169106,0.009711236,0.022927284,0.0,0.0,0.0
664.7615,274.42383,78084489,0.6375,0.06382979,-0.090248734,-0.040222615,-0.011169106,0.009711236,0.022927284,0.0,0.0,0.0
664.7615,274.42383,78084506,0.6875,0.06382979,0.041420616,0.014527343,-0.011169106,0.009711236,0.022927284,0.0,0.0,0.0
664.7615,274.42383,78084523,0.71250004,0.06382979,-0.007715287,-0.0036431572,-0.008935273,-0.024231017,0.018342018,0.0,0.0,0.0
664.7615,274.42383,78084540,0.71250004,0.06382979,-0.008268203,-0.0032293797,-0.008935273,-0.024231017,0.018342018,0.0,0.0,0.0
664.7615,274.42383,78084556,0.7375,0.07446808,-0.0067771613,-0.004117024,-0.008935273,-0.024231017,0.018342018,0.0,0.0,0.0
664.7615,274.42383,78084573,0.725,0.08510638,0.026600875,0.01105244,-0.008935273,-0.024231017,0.018342018,0.0,0.0,0.0
664.7615,274.42383,78084588,0.7375,0.09574468,-0.009793626,-0.005177352,-0.008935273,-0.024231017,0.018342018,0.0,0.0,0.0
664.7615,274.42383,78084606,0.75,0.09574468,-0.022440733,-0.009902682,-0.008935273,-0.024231017,0.018342018,0.0,0.0,0.0
651.9166,275.21118,78084623,0.77500004,0.09574468,-248.45505,15.22643,-0.008935273,-0.024231017,0.018342018,0.0,0.0,0.0
640.3978,277.06396,78084640,0.75,0.08510638,-770.9627,74.79723,-0.008935273,-0.024231017,0.018342018,0.0,0.0,0.0
629.0913,279.80872,78084657,0.77500004,0.09574468,-1029.8508,171.05144,-0.008935273,-0.024231017,0.018342018,0.0,0.0,0.0
618.08545,284.53235,78084673,0.77500004,0.12765957,-966.48175,268.77386,-0.008935273,-0.024231017,0.018342018,0.0,0.0,0.0
605.8489,290.2223,78084690,0.77500004,0.12765957,-700.95245,377.62378,-0.008935273,-0.024231017,0.018342018,0.0,0.0,0.0
597.6711,295.93372,78084707,0.77500004,0.11702127,-520.1387,419.2639,-0.008935273,-0.024231017,0.018342018,0.0,0.0,0.0
588.53625,305.07715,78084723,0.77500004,0.08510638,-525.9438,497.94568,-0.008935273,-0.024231017,0.018342018,0.0,0.0,0.0
580.96124,315.9536,78084740,0.7625,0.08510638,-438.76343,658.6751,-0.008935273,-0.024231017,0.018342018,0.0,0.0,0.0
573.1753,325.6416,78084757,0.7875,0.09574468,-429.18243,760.9085,-0.008935273,-0.024231017,0.018342018,0.0,0.0,0.0
566.1165,333.74524,78084773,0.7875,0.10638297,-445.31833,694.1635,-0.008935273,-0.024231017,0.018342018,0.0,0.0,0.0
560.7669,344.38672,78084790,0.77500004,0.10638297,-350.86005,583.2544,-0.008935273,-0.024231017,0.018342018,0.0,0.0,0.0
559.2958,350.0719,78084807,0.7875,0.09574468,-150.25673,416.37735,-0.008935273,-0.024231017,0.018342018,0.0,0.0,0.0
559.7189,355.005,78084824,0.7875,0.08510638,59.695087,306.15997,-0.008935273,-0.024231017,0.018342018,0.0,0.0,0.0
561.7233,358.70422,78084840,0.7875,0.08510638,233.20091,179.20998,-0.008935273,-0.024231017,0.018342018,0.0,0.0,0.0
569.3578,365.09753,78084857,0.77500004,0.08510638,433.40894,175.45482,-0.008935273,-0.024231017,0.018342018,0.0,0.0,0.0
579.28394,369.66943,78084874,0.7875,0.08510638,662.82214,243.23395,-0.008935273,-0.024231017,0.018342018,0.0,0.0,0.0
591.3643,374.37878,78084890,0.7875,0.07446808,857.5746,302.32657,-0.008935273,-0.024231017,0.018342018,0.0,0.0,0.0
608.3689,378.8429,78084907,0.7625,0.06382979,1089.5037,295.72675,-0.008935273,-0.024231017,0.018342018,0.0,0.0,0.0
623.7105,381.37732,78084924,0.77500004,0.08510638,1171.5315,206.9555,-0.008935273,-0.024231017,0.018342018,0.0,0.0,0.0
636.7083,384.95923,78084941,0.7625,0.09574468,1057.7089,153.25722,-0.008935273,-0.024231017,0.018342018,0.0,0.0,0.0
649.9387,388.1311,78084957,0.7875,0.08510638,851.4483,146.98816,-0.008935273,-0.024231017,0.018342018,0.0,0.0,0.0
663.43475,391.31982,78084974,0.7875,0.09574468,726.7945,163.56711,-0.008935273,-0.024231017,0.018342018,0.0,0.0,0.0
674.231,393.14404,78084991,0.77500004,0.10638297,686.14136,157.79576,-0.008935273,-0.024231017,0.018342018,0.0,0.0,0.0
681.54083,395.0061,78085007,0.77500004,0.12765957,545.6274,103.088875,-0.008935273,-0.024231017,0.018342018,0.0,0.0,0.0
685.84454,396.85522,78085024,0.75,0.12765957,265.14685,71.65632,-0.008935273,-0.024231017,0.018342018,0.0,0.0,0.0
688.6298,398.70422,78085041,0.75,0.12765957,37.118534,70.12565,-0.008935273,-0.024231017,0.018342018,0.0,0.0,0.0
690.7157,400.5581,78085058,0.7625,0.12765957,-62.799183,101.29584,0.008851796,-0.027384833,-0.0013256073,0.0,0.0,0.0
691.7527,401.47986,78085074,0.77500004,0.11702127,-40.78149,87.897896,0.008851796,-0.027384833,-0.0013256073,0.0,0.0,0.0
692.2525,404.25623,78085091,0.77500004,0.11702127,-34.85023,107.48499,0.008851796,-0.027384833,-0.0013256073,0.0,0.0,0.0
692.2525,406.099,78085108,0.77500004,0.10638297,-46.981472,119.33365,0.008851796,-0.027384833,-0.0013256073,0.0,0.0,0.0
689.9527,408.85498,78085124,0.77500004,0.08510638,-113.19648,151.8603,0.008851796,-0.027384833,-0.0013256073,0.0,0.0,0.0
686.64905,411.61194,78085141,0.7875,0.08510638,-207.97325,179.36978,0.008851796,-0.027384833,-0.0013256073,0.0,0.0,0.0
680.2154,416.8695,78085158,0.7875,0.08510638,-347.07944,242.25894,0.008851796,-0.027384833,-0.0013256073,0.0,0.0,0.0
671.96857,421.93604,78085175,0.77500004,0.08510638,-538.3097,343.38367,0.008851796,-0.027384833,-0.0013256073,0.0,0.0,0.0
663.25964,426.95154,78085191,0.7875,0.08510638,-636.35974,366.5279,0.008851796,-0.027384833,-0.0013256073,0.0,0.0,0.0
654.71484,432.49963,78085208,0.7875,0.09574468,-659.9741,376.7239,0.008851796,-0.027384833,-0.0013256073,0.0,0.0,0.0
647.7397,438.05627,78085225,0.8,0.09574468,-548.7724,350.2488,0.008851796,-0.027384833,-0.0013256073,0.0,0.0,0.0
640.83093,442.90674,78085241,0.7875,0.10638297,-426.9268,326.15555,0.008851796,-0.027384833,-0.0013256073,0.0,0.0,0.0
634.10065,447.48706,78085258,0.77500004,0.12765957,-362.8328,300.17422,0.008851796,-0.027384833,-0.0013256073,0.0,0.0,0.0
628.30536,452.97888,78085275,0.77500004,0.12765957,-322.6744,267.95102,0.008851796,-0.027384833,-0.0013256073,0.0,0.0,0.0
620.4509,459.52124,78085292,0.7875,0.08510638,-381.42023,331.30762,0.008851796,-0.027384833,-0.0013256073,0.0,0.0,0.0
611.4818,467.93726,78085308,0.7875,0.08510638,-477.0356,454.19308,0.008851796,-0.027384833,-0.0013256073,0.0,0.0,0.0
604.5419,477.20874,78085325,0.7875,0.09574468,-523.28784,589.3014,0.008851796,-0.027384833,-0.0013256073,0.0,0.0,0.0
596.5338,487.47412,78085342,0.77500004,0.09574468,-520.1283,676.93774,0.008851796,-0.027384833,-0.0013256073,0.0,0.0,0.0
591.5111,494.02734,78085358,0.7875,0.12765957,-412.04196,606.2189,0.008851796,-0.027384833,-0.0013256073,0.0,0.0,0.0
586.61786,501.23486,78085375,0.8,0.12765957,-261.28238,424.1774,0.008851796,-0.027384833,-0.0013256073,0.0,0.0,0.0
584.0269,509.06592,78085392,0.8,0.10638297,-165.1477,389.27774,0.008851796,-0.027384833,-0.0013256073,0.0,0.0,0.0
584.3953,515.59094,78085408,0.7875,0.09574468,-9.041101,374.1276,0.008851796,-0.027384833,-0.0013256073,0.0,0.0,0.0
587.90436,522.2643,78085425,0.8125,0.09574468,206.07564,394.95294,0.008851796,-0.027384833,-0.0013256073,0.0,0.0,0.0
598.00446,532.40796,78085442,0.77500004,0.07446808,528.63214,452.65698,0.008851796,-0.027384833,-0.0013256073,0.0,0.0,0.0
615.2588,542.89075,78085459,0.7875,0.08510638,983.5131,589.8721,0.008851796,-0.027384833,-0.0013256073,0.0,0.0,0.0
632.27026,549.6926,78085475,0.77500004,0.09574468,1343.7435,648.6936,0.008851796,-0.027384833,-0.0013256073,0.0,0.0,0.0
655.4846,554.3458,78085492,0.7875,0.09574468,1555.3489,427.26794,0.008851796,-0.027384833,-0.0013256073,0.0,0.0,0.0
682.17786,557.155,78085509,0.7625,0.11702127,1749.071,169.22789,0.008851796,-0.027384833,-0.0013256073,0.0,0.0,0.0
711.6753,559.95874,78085525,0.7625,0.09574468,1898.621,10.242231,0.008851796,-0.027384833,-0.0013256073,0.0,0.0,0.0
748.891,562.7943,78085542,0.55,0.12765957,2223.8467,34.19053,0.008851796,-0.027384833,-0.0013256073,0.0,0.0,0.0
748.891,562.7943,78085548,0.55,0.12765957,2223.8467,34.19053,0.008851796,-0.027384833,-0.0013256073,0.0,0.0,0.0
823.20984,496.54968,78086877,0.675,0.08510638,0.0,0.0,-0.021707878,-0.023621023,-0.026918411,0.0,0.0,0.0
823.20984,496.54968,78086896,0.71250004,0.08510638,-0.04066405,-0.02366506,-0.021707878,-0.023621023,-0.026918411,0.0,0.0,0.0
823.20984,496.54968,78086912,0.7375,0.08510638,-0.059143793,-0.035590142,-0.021707878,-0.023621023,-0.026918411,0.0,0.0,0.0
823.20984,496.54968,78086929,0.75,0.08510638,0.055564106,0.03149803,-0.021707878,-0.023621023,-0.026918411,0.0,0.0,0.0
823.20984,496.54968,78086945,0.75,0.07446808,-0.038930114,-0.023323499,-0.021707878,-0.023621023,-0.026918411,0.0,0.0,0.0
823.20984,496.54968,78086979,0.7625,0.07446808,-0.06684143,-0.040906064,-0.021707878,-0.023621023,-0.026918411,0.0,0.0,0.0
823.20984,496.54968,78086996,0.75,0.08510638,0.017363103,0.009945224,-0.021707878,-0.023621023,-0.026918411,0.0,0.0,0.0
823.20984,496.54968,78087009,0.7625,0.09574468,-0.009228996,-0.0058812355,-0.021707878,-0.023621023,-0.026918411,0.0,0.0,0.0
807.387,484.75476,78087029,0.77500004,0.08510638,-448.14642,-334.06094,-0.021707878,-0.023621023,-0.026918411,0.0,0.0,0.0
793.5522,479.48572,78087046,0.77500004,0.08510638,-1097.7725,-643.71204,-0.021707878,-0.023621023,-0.026918411,0.0,0.0,0.0
780.0182,478.77966,78087063,0.7875,0.08510638,-1210.5027,-462.22153,-0.021707878,-0.023621023,-0.026918411,0.0,0.0,0.0
768.2933,481.90857,78087079,0.8,0.09574468,-1132.6176,-70.61211,-0.021707878,-0.023621023,-0.026918411,0.0,0.0,0.0
758.4816,487.81226,78087096,0.77500004,0.09574468,-794.1553,398.4062,-0.021707878,-0.023621023,-0.026918411,0.0,0.0,0.0
750.7971,495.34265,78087113,0.77500004,0.10638297,-364.9117,728.78455,-0.021707878,-0.023621023,-0.026918411,0.0,0.0,0.0
744.2935,504.8745,78087130,0.7875,0.12765957,-319.8519,680.55664,-0.021707878,-0.023621023,-0.026918411,0.0,0.0,0.0
738.89465,518.31287,78087146,0.7875,0.08510638,-253.614,823.30615,-0.021707878,-0.023621023,-0.026918411,0.0,0.0,0.0
737.23785,531.1018,78087163,0.77500004,0.06382979,-129.64752,936.93616,-0.021707878,-0.023621023,-0.026918411,0.0,0.0,0.0
737.95557,539.084,78087180,0.77500004,0.08510638,63.618275,812.54425,-0.021707878,-0.023621023,-0.026918411,0.0,0.0,0.0
740.4314,544.87476,78087196,0.7875,0.08510638,247.4381,490.95697,-0.0013663173,0.013103187,-0.005534172,0.0,0.0,0.0
743.4839,547.859,78087213,0.7625,0.09574468,343.1821,132.02924,-0.0013663173,0.013103187,-0.005534172,0.0,0.0,0.0
749.9979,551.5171,78087230,0.77500004,0.11702127,405.26205,-5.1617894,-0.0013663173,0.013103187,-0.005534172,0.0,0.0,0.0
757.89856,552.5254,78087246,0.77500004,0.08510638,519.4145,-7.938664,-0.0013663173,0.013103187,-0.005534172,0.0,0.0,0.0
767.29956,551.52405,78087263,0.77500004,0.08510638,637.4749,-66.5547,-0.0013663173,0.013103187,-0.005534172,0.0,0.0,0.0
778.8148,546.6659,78087280,0.7625,0.06382979,759.37,-243.48859,-0.0013663173,0.013103187,-0.005534172,0.0,0.0,0.0
788.2796,539.79944,78087297,0.7625,0.07446808,755.71185,-461.8067,-0.0013663173,0.013103187,-0.005534172,0.0,0.0,0.0
796.61127,531.4314,78087313,0.75,0.09574468,642.4884,-640.212,-0.0013663173,0.013103187,-0.005534172,0.0,0.0,0.0
804.9409,521.7942,78087330,0.7625,0.12765957,523.01117,-711.4011,-0.0013663173,0.013103187,-0.005534172,0.0,0.0,0.0
814.0164,510.7024,78087347,0.7625,0.10638297,445.329,-733.01276,-0.0013663173,0.013103187,-0.005534172,0.0,0.0,0.0
821.97766,500.15186,78087363,0.77500004,0.08510638,483.5144,-743.73346,-0.0013663173,0.013103187,-0.005534172,0.0,0.0,0.0
827.5411,492.99658,78087380,0.7625,0.06382979,424.73615,-624.6945,-0.0013663173,0.013103187,-0.005534172,0.0,0.0,0.0
829.9425,489.0243,78087397,0.77500004,0.06382979,227.28894,-363.52032,-0.0013663173,0.013103187,-0.005534172,0.0,0.0,0.0
831.1124,486.9447,78087413,0.7625,0.06382979,5.439221,-73.72708,-0.0013663173,0.013103187,-0.005534172,0.0,0.0,0.0
831.7071,485.08752,78087430,0.77500004,0.06382979,-113.034004,75.42728,-0.0013663173,0.013103187,-0.005534172,0.0,0.0,0.0
831.7071,484.99915,78087447,0.77500004,0.08510638,-119.98947,102.73239,-0.0013663173,0.013103187,-0.005534172,0.0,0.0,0.0
831.68445,489.56238,78087464,0.7875,0.08510638,-70.77235,204.80617,-0.0013663173,0.013103187,-0.005534172,0.0,0.0,0.0
830.6373,497.04822,78087480,0.7875,0.12765957,-70.17291,434.66895,-0.0013663173,0.013103187,-0.005534172,0.0,0.0,0.0
830.8186,506.62012,78087497,0.77500004,0.12765957,-60.647472,665.0846,-0.0013663173,0.013103187,-0.005534172,0.0,0.0,0.0
833.7076,516.98926,78087514,0.7875,0.08510638,49.224136,800.6132,-0.0013663173,0.013103187,-0.005534172,0.0,0.0,0.0
836.88556,523.5249,78087531,0.77500004,0.08510638,186.05453,712.0839,-0.0013663173,0.013103187,-0.005534172,0.0,0.0,0.0
843.37024,532.4286,78087547,0.77500004,0.07446808,384.84537,524.87396,-0.0013663173,0.013103187,-0.005534172,0.0,0.0,0.0
850.65356,540.68494,78087564,0.7625,0.09574468,516.3953,481.7285,-0.0013663173,0.013103187,-0.005534172,0.0,0.0,0.0
860.63617,546.3667,78087581,0.7625,0.09574468,627.06793,401.81628,-0.0013663173,0.013103187,-0.005534172,0.0,0.0,0.0
874.2932,549.45703,78087598,0.75,0.08510638,793.0167,256.29388,-0.0013663173,0.013103187,-0.005534172,0.0,0.0,0.0
885.83716,549.3513,78087614,0.75,0.08510638,876.6166,19.62607,-0.0013663173,0.013103187,-0.005534172,0.0,0.0,0.0
894.9976,546.4807,78087631,0.7375,0.07446808,780.8133,-250.4401,-0.0013663173,0.013103187,-0.005534172,0.0,0.0,0.0
901.0757,541.95996,78087648,0.71250004,0.07446808,540.66565,-396.05957,-0.0013663173,0.013103187,-0.005534172,0.0,0.0,0.0
902.684,540.0863,78087660,0.275,0.09574468,279.12747,-433.14474,-0.0013663173,0.013103187,-0.005534172,-3.355443E-6,0.0,0.0
902.684,540.0863,78087663,0.275,0.09574468,279.12747,-433.14474,-0.0013663173,0.013103187,-0.005534172,-3.355443E-6,0.0,0.0
994.1542,466.34058,78089120,0.625,0.09574468,0.0,0.0,-0.006459564,-0.02209118,-0.066833496,0.0,0.0,0.0
994.1542,466.34058,78089135,0.6875,0.09574468,2.4053292,1.1963197,-0.006459564,-0.02209118,-0.066833496,0.0,0.0,0.0
994.1542,466.34058,78089152,0.725,0.10638297,0.013322161,0.0064369515,-0.006459564,-0.02209118,-0.066833496,0.0,0.0,0.0
994.1542,466.34058,78089169,0.7375,0.12765957,0.012769041,0.0064149867,-0.006459564,-0.02209118,-0.066833496,0.0,0.0,0.0
994.1542,466.34058,78089181,0.725,0.12765957,-0.0040017935,-1.271734E-4,-0.006459564,-0.02209118,-0.066833496,3.355443E-6,0.0,0.0
994.1542,466.34058,78089199,0.75,0.12765957,-0.020817323,-0.010137361,-0.006459564,-0.02209118,-0.066833496,3.355443E-6,0.0,0.0
994.1542,466.34058,78089218,0.7375,0.12765957,0.018228704,0.0072100805,-0.006459564,-0.02209118,-0.066833496,3.355443E-6,0.0,0.0
976.7357,456.92676,78089252,0.75,0.11702127,-537.2,-292.619,-0.006459564,-0.02209118,-0.066833496,0.0,0.0,0.0
964.9331,453.37964,78089269,0.75,0.10638297,-832.6204,-379.50262,-0.006459564,-0.02209118,-0.066833496,0.0,0.0,0.0
951.8557,453.62378,78089285,0.75,0.10638297,-949.0658,-138.46893,-0.006459564,-0.02209118,-0.066833496,0.0,0.0,0.0
937.4392,457.7162,78089302,0.75,0.12765957,-944.6045,202.1401,-0.006459564,-0.02209118,-0.066833496,0.0,0.0,0.0
922.9521,463.95947,78089319,0.75,0.11702127,-925.98413,523.1524,0.010832354,0.014327049,-0.021466255,3.355443E-6,0.0,0.0
908.58093,475.72754,78089335,0.75,0.07446808,-957.4027,760.7735,0.010832354,0.014327049,-0.021466255,3.355443E-6,0.0,0.0
898.6591,487.69568,78089352,0.75,0.09574468,-782.1033,915.6863,0.010832354,0.014327049,-0.021466255,3.355443E-6,0.0,0.0
890.2716,502.703,78089369,0.75,0.12765957,-535.90857,1010.07825,0.010832354,0.014327049,-0.021466255,3.355443E-6,0.0,0.0
887.51355,514.36646,78089385,0.75,0.08510638,-225.45134,976.6134,0.010832354,0.014327049,-0.021466255,0.0,0.0,0.0
892.3952,524.7073,78089402,0.75,0.07446808,200.87912,803.21765,0.010832354,0.014327049,-0.021466255,0.0,0.0,0.0
909.19037,539.3904,78089419,0.7375,0.09574468,817.64264,736.7623,0.010832354,0.014327049,-0.021466255,0.0,0.0,0.0
934.8108,550.40247,78089436,0.7375,0.08510638,1581.888,720.65063,0.010832354,0.014327049,-0.021466255,0.0,0.0,0.0
961.4971,555.166,78089452,0.7375,0.11702127,2196.1206,511.83215,0.010832354,0.014327049,-0.021466255,0.0,0.0,0.0
986.0979,556.07935,78089469,0.7375,0.10638297,2163.1006,145.2413,0.010832354,0.014327049,-0.021466255,0.0,0.0,0.0
1004.65686,554.0398,78089486,0.7,0.08510638,1648.2418,-267.71683,0.010832354,0.014327049,-0.021466255,0.0,0.0,0.0
1010.6488,552.5254,78089497,0.2125,0.09574468,1235.2992,-437.911,0.010832354,0.014327049,-0.021466255,0.0,0.0,0.0
1010.6488,552.5254,78089504,0.2125,0.09574468,1235.2992,-437.911,0.010832354,0.014327049,-0.021466255,0.0,0.0,0.0
1097.1207,458.344,78091029,0.675,0.12765957,0.0,0.0,0.0055461675,-0.022104561,0.08244896,0.0,0.0,0.0
1097.1207,458.344,78091057,0.7,0.12765957,-0.18146732,-0.07490307,0.0055461675,-0.022104561,0.08244896,0.0,0.0,0.0
1097.1207,458.344,78091073,0.7,0.12765957,-0.01625923,-0.0068526505,0.0055461675,-0.022104561,0.08244896,0.0,0.0,0.0
1081.5096,462.5669,78091090,0.725,0.12765957,-571.096,154.49898,0.0055461675,-0.022104561,0.08244896,0.0,0.0,0.0
1053.1866,472.75916,78091107,0.7375,0.08510638,-1703.5768,534.168,0.0055461675,-0.022104561,0.08244896,0.0,0.0,0.0
1026.0958,488.71643,78091123,0.725,0.09574468,-2178.0488,897.2176,0.0055461675,-0.022104561,0.08244896,0.0,0.0,0.0
994.6981,506.02576,78091140,0.7375,0.10638297,-2557.0542,1312.9436,0.0055461675,-0.022104561,0.08244896,0.0,0.0,0.0
968.6561,522.64026,78091157,0.75,0.06382979,-2195.109,1369.3749,0.0055461675,-0.022104561,0.08244896,0.0,0.0,0.0
949.1707,540.13684,78091173,0.75,0.08510638,-1502.7965,1245.5608,0.0055461675,-0.022104561,0.08244896,0.0,0.0,0.0
936.3251,551.5856,78091190,0.75,0.12765957,-975.131,971.11774,0.0055461675,-0.022104561,0.08244896,0.0,0.0,0.0
930.8703,558.3976,78091207,0.75,0.11702127,-294.2921,544.7221,0.0055461675,-0.022104561,0.08244896,0.0,0.0,0.0
928.3494,568.86523,78091224,0.75,0.08510638,154.90991,365.04028,0.0055461675,-0.022104561,0.08244896,0.0,0.0,0.0
932.6282,574.50415,78091240,0.75,0.08510638,465.31696,234.97836,0.0055461675,-0.022104561,0.08244896,0.0,0.0,0.0
951.139,580.5303,78091257,0.725,0.07446808,964.79944,288.55237,0.0055461675,-0.022104561,0.08244896,0.0,0.0,0.0
978.60266,579.89795,78091274,0.7625,0.09574468,1718.1677,133.79498,0.0055461675,-0.022104561,0.08244896,0.0,0.0,0.0
1010.0763,574.7201,78091290,0.75,0.10638297,2407.3167,-282.3206,0.0055461675,-0.022104561,0.08244896,0.0,0.0,0.0
1042.2997,570.8225,78091307,0.7375,0.12765957,2542.8733,-512.6082,0.0055461675,-0.022104561,0.08244896,0.0,0.0,0.0
1068.1519,569.407,78091324,0.71250004,0.12765957,2243.2893,-473.14893,0.0055461675,-0.022104561,0.08244896,3.355443E-6,0.0,0.0
1087.2809,571.89624,78091341,0.7375,0.12765957,1548.128,-128.59218,0.0055461675,-0.022104561,0.08244896,3.355443E-6,0.0,0.0
1098.1085,574.73486,78091357,0.75,0.09574468,817.9549,242.23322,0.0055461675,-0.022104561,0.08244896,3.355443E-6,0.0,0.0
1102.1926,576.58044,78091374,0.75,0.08510638,119.21355,322.27548,0.0055461675,-0.022104561,0.08244896,3.355443E-6,0.0,0.0
1102.6189,579.3944,78091391,0.75,0.08510638,-336.5277,260.90585,0.0055461675,-0.022104561,0.08244896,0.0,0.0,0.0
1094.7198,587.67993,78091407,0.75,0.08510638,-622.9645,332.2058,0.0055461675,-0.022104561,0.08244896,0.0,0.0,0.0
1068.3506,601.22437,78091424,0.75,0.08510638,-1306.1652,646.99084,0.0055461675,-0.022104561,0.08244896,0.0,0.0,0.0
1032.9763,610.78296,78091441,0.75,0.11702127,-2229.2195,877.89325,0.0055461675,-0.022104561,0.08244896,0.0,0.0,0.0
995.6647,618.15356,78091458,0.75,0.12765957,-2988.335,765.3117,-0.027563065,0.01431635,0.03395939,3.355443E-6,0.0,0.0
966.43506,625.16943,78091474,0.7375,0.10638297,-2796.9778,456.95428,-0.027563065,0.01431635,0.03395939,3.355443E-6,0.0,0.0
940.278,632.9409,78091491,0.75,0.08510638,-2023.8673,310.4136,-0.027563065,0.01431635,0.03395939,3.355443E-6,0.0,0.0
925.5633,640.2123,78091508,0.4625,0.08510638,-1075.3339,328.10965,-0.027563065,0.01431635,0.03395939,3.355443E-6,0.0,0.0
922.6775,642.26416,78091510,0.2125,0.09574468,-1006.36176,361.87177,-0.027563065,0.01431635,0.03395939,3.355443E-6,0.0,0.0
922.6775,642.26416,78091518,0.2125,0.09574468,-1006.36176,361.87177,-0.027563065,0.01431635,0.03395939,3.355443E-6,0.0,0.0
