x,y,timestamp,pressure,fingerarea,velocityx,velocityy,accelx,accely,accelz,gyrox,gyroy,gyroz
360.36053,281.53186,78123239,0.35,0.10638297,0.0,0.0,0.02306208,0.025387704,0.19373894,0.0,0.0,0.0
360.36053,281.53186,78123255,0.16250001,0.07446808,-0.0041286713,-0.0024931554,0.02306208,0.025387704,0.19373894,0.0,0.0,0.0
360.36053,281.53186,78123262,0.16250001,0.07446808,-0.0041286713,-0.0024931554,0.02306208,0.025387704,0.19373894,0.0,0.0,0.0
317.37454,301.07898,78124894,0.3,0.07446808,0.0,0.0,-0.0093122125,-0.0010814965,0.036794662,0.0,0.0,0.0
318.3742,323.2915,78124911,0.4375,0.08510638,-71.79999,-1595.0492,-0.0093122125,-0.0010814965,0.036794662,0.0,0.0,0.0
318.3742,323.2915,78124928,0.6125,0.08510638,-39.88903,-886.87854,-0.0093122125,-0.0010814965,0.036794662,0.0,0.0,0.0
318.3742,323.2915,78124945,0.71250004,0.09574468,-27.24065,-604.8897,-0.0093122125,-0.0010814965,0.036794662,0.0,0.0,0.0
316.45554,348.9712,78124962,0.7375,0.09574468,-99.70815,580.4762,-0.0093122125,-0.0010814965,0.036794662,0.0,0.0,0.0
313.3925,383.5321,78124978,0.77500004,0.09574468,-193.69719,1941.7219,-0.0093122125,-0.0010814965,0.036794662,0.0,0.0,0.0
311.57416,395.98328,78124995,0.825,0.12765957,-215.44771,2313.401,-0.0093122125,-0.0010814965,0.036794662,0.0,0.0,0.0
309.2034,427.3606,78125012,0.8,0.07446808,-200.69518,2026.3485,-0.0093122125,-0.0010814965,0.036794662,0.0,0.0,0.0
308.37747,450.08777,78125028,0.8125,0.12765957,-118.111305,1556.2788,-0.0093122125,-0.0010814965,0.036794662,0.0,0.0,0.0
308.28735,474.59985,78125045,0.8,0.08510638,-13.687592,1241.6654,-0.0093122125,-0.0010814965,0.036794662,0.0,0.0,0.0
308.87732,492.40247,78125062,0.7875,0.08510638,60.08238,1452.7214,-0.0093122125,-0.0010814965,0.036794662,0.0,0.0,0.0
308.87732,492.9956,78125063,0.7375,0.10638297,61.327774,1391.1139,-0.0093122125,-0.0010814965,0.036794662,0.0,0.0,0.0
308.87732,492.9956,78125070,0.7375,0.10638297,61.327774,1391.1139,-0.0093122125,-0.0010814965,0.036794662,0.0,0.0,0.0
198.91312,365.9397,78125546,0.725,0.08510638,0.0,0.0,0.056550205,-0.056865185,-0.058564186,0.0,0.0,0.0
198.91312,365.9397,78125563,0.7625,0.11702127,-0.12259204,-0.22080472,0.056550205,-0.056865185,-0.058564186,0.0,0.0,0.0
208.85895,357.90356,78125580,0.8,0.12765957,918.54553,-742.131,0.056550205,-0.056865185,-0.058564186,0.0,0.0,0.0
231.17847,342.0995,78125597,0.83750004,0.08510638,1703.9802,-1249.6584,0.056550205,-0.056865185,-0.058564186,0.0,0.0,0.0
255.25012,325.50098,78125613,0.8125,0.09574468,1941.6317,-1371.5762,0.056550205,-0.056865185,-0.058564186,0.0,0.0,0.0
290.9869,309.0028,78125630,0.825,0.10638297,2383.9128,-1363.3224,0.056550205,-0.056865185,-0.058564186,0.0,0.0,0.0
329.889,295.3473,78125647,0.825,0.12765957,2634.9207,-1071.3749,-0.002759844,-0.021492153,0.07314873,0.0,0.0,0.0
368.24167,282.8678,78125663,0.83750004,0.09574468,2750.1277,-797.85175,-0.002759844,-0.021492153,0.07314873,0.0,0.0,0.0
407.36578,267.30664,78125680,0.8125,0.08510638,2742.3994,-744.3876,-0.002759844,-0.021492153,0.07314873,0.0,0.0,0.0
442.1639,255.0459,78125697,0.8125,0.08510638,2373.1384,-754.8237,-0.002759844,-0.021492153,0.07314873,0.0,0.0,0.0
460.82782,247.7688,78125706,0.575,0.12765957,2171.989,-746.6006,-0.002759844,-0.021492153,0.07314873,0.0,0.0,0.0
460.82782,247.7688,78125714,0.575,0.12765957,2171.989,-746.6006,-0.002759844,-0.021492153,0.07314873,0.0,0.0,0.0
446.8324,448.57056,78127883,0.65000004,0.09574468,0.0,0.0,-0.010474443,0.0046367943,0.044938087,0.0,0.0,0.0
446.8324,448.57056,78127903,0.6875,0.09574468,0.086293995,0.08421144,-0.010474443,0.0046367943,0.044938087,0.0,0.0,0.0
446.8324,448.57056,78127919,0.725,0.08510638,0.015392449,0.011855825,-0.010474443,0.0046367943,0.044938087,0.0,0.0,0.0
446.8324,448.57056,78127936,0.75,0.08510638,-0.017405955,-0.016860368,-0.010474443,0.0046367943,0.044938087,0.0,0.0,0.0
446.8324,448.57056,78127953,0.7875,0.08510638,-7.05974E-5,0.0024614313,-0.010474443,0.0046367943,0.044938087,0.0,0.0,0.0
446.8324,448.57056,78127958,0.77500004,0.08510638,-0.018139891,-0.015908109,-0.010474443,0.0046367943,0.044938087,0.0,0.0,0.0
446.8324,448.57056,78127986,0.8,0.07446808,-0.005509842,-0.0038069787,-0.010474443,0.0046367943,0.044938087,0.0,0.0,0.0
446.8324,448.57056,78128003,0.8,0.09574468,0.023188846,0.022733362,-0.010474443,0.0046367943,0.044938087,0.0,0.0,0.0
429.12048,431.7788,78128020,0.8125,0.08510638,-452.96683,-429.43213,-0.010474443,0.0046367943,0.044938087,0.0,0.0,0.0
422.2884,427.43384,78128036,0.8,0.08510638,-847.2975,-743.97235,-0.010474443,0.0046367943,0.044938087,0.0,0.0,0.0
415.11353,424.21692,78128053,0.8125,0.08510638,-884.199,-678.32074,-0.010474443,0.0046367943,0.044938087,0.0,0.0,0.0
406.26712,423.69238,78128070,0.8,0.08510638,-673.8627,-242.01198,-0.010474443,0.0046367943,0.044938087,0.0,0.0,0.0
396.8841,425.4568,78128086,0.8,0.08510638,-440.03885,247.61868,-0.010474443,0.0046367943,0.044938087,0.0,0.0,0.0
388.0723,429.6537,78128103,0.8125,0.08510638,-456.52618,451.38928,-0.010474443,0.0046367943,0.044938087,0.0,0.0,0.0
380.8997,435.20227,78128120,0.8125,0.09574468,-533.568,456.37326,-0.010474443,0.0046367943,0.044938087,0.0,0.0,0.0
375.1643,440.74414,78128137,0.8125,0.11702127,-383.32465,482.87622,-0.010474443,0.0046367943,0.044938087,0.0,0.0,0.0
369.95526,446.79675,78128153,0.8,0.12765957,-250.91798,446.52206,-0.010474443,0.0046367943,0.044938087,0.0,0.0,0.0
366.46957,454.3954,78128170,0.8,0.12765957,-185.69817,453.4555,-0.010474443,0.0046367943,0.044938087,0.0,0.0,0.0
365.35892,462.68286,78128187,0.825,0.11702127,-89.527885,511.08212,-0.010474443,0.0046367943,0.044938087,0.0,0.0,0.0
366.89417,472.71887,78128203,0.8125,0.09574468,82.167274,609.0511,-0.010474443,0.0046367943,0.044938087,0.0,0.0,0.0
369.48505,479.00623,78128220,0.8,0.09574468,243.85133,573.6606,-0.010474443,0.0046367943,0.044938087,0.0,0.0,0.0
375.4597,484.64734,78128237,0.8,0.08510638,398.05582,412.2817,-0.010474443,0.0046367943,0.044938087,0.0,0.0,0.0
384.15463,490.21277,78128253,0.7875,0.08510638,548.9782,283.2816,-0.010474443,0.0046367943,0.044938087,0.0,0.0,0.0
394.87814,492.10718,78128270,0.7875,0.08510638,717.566,140.77823,-0.010474443,0.0046367943,0.044938087,0.0,0.0,0.0
404.37247,490.44373,78128287,0.77500004,0.07446808,785.7468,-36.33091,-0.010474443,0.0046367943,0.044938087,0.0,0.0,0.0
411.42413,486.27844,78128304,0.8,0.09574468,636.0199,-278.12775,-0.010474443,0.0046367943,0.044938087,0.0,0.0,0.0
417.9325,480.2107,78128320,0.8,0.09574468,423.58536,-503.6999,-0.024379551,-0.036290556,-0.044049263,0.0,0.0,0.0
423.55377,473.39832,78128337,0.8,0.11702127,274.91406,-591.0962,-0.024379551,-0.036290556,-0.044049263,0.0,0.0,0.0
427.35852,467.19397,78128354,0.7875,0.12765957,195.72375,-534.02936,-0.024379551,-0.036290556,-0.044049263,0.0,0.0,0.0
431.5111,461.44434,78128370,0.8,0.12765957,169.92554,-443.61826,-0.024379551,-0.036290556,-0.044049263,0.0,0.0,0.0
433.75775,456.70728,78128387,0.8,0.10638297,123.24143,-341.5482,-0.024379551,-0.036290556,-0.044049263,0.0,0.0,0.0
435.84238,453.0017,78128404,0.8125,0.08510638,82.17614,-227.26334,-0.024379551,-0.036290556,-0.044049263,0.0,0.0,0.0
437.37845,449.30615,78128421,0.8125,0.08510638,58.773365,-176.40056,-0.024379551,-0.036290556,-0.044049263,0.0,0.0,0.0
437.83533,447.5393,78128437,0.8125,0.08510638,15.392664,-106.93337,-0.024379551,-0.036290556,-0.044049263,0.0,0.0,0.0
438.33517,445.69702,78128454,0.8,0.08510638,-14.731767,-67.50473,-0.024379551,-0.036290556,-0.044049263,0.0,0.0,0.0
438.33517,443.85193,78128471,0.8125,0.08510638,-26.60324,-55.305454,-0.024379551,-0.036290556,-0.044049263,0.0,0.0,0.0
438.33517,441.98035,78128487,0.8125,0.08510638,-36.275585,-62.57339,-0.024379551,-0.036290556,-0.044049263,0.0,0.0,0.0
438.33517,442.35095,78128504,0.8,0.08510638,-14.810775,-36.7998,-0.024379551,-0.036290556,-0.044049263,0.0,0.0,0.0
438.33517,442.35095,78128521,0.8125,0.08510638,-9.137098,21.065947,-0.024379551,-0.036290556,-0.044049263,0.0,0.0,0.0
438.33517,442.35095,78128537,0.8125,0.08510638,-8.003888,49.38544,-0.024379551,-0.036290556,-0.044049263,0.0,0.0,0.0
438.835,442.35095,78128554,0.8125,0.08510638,16.65976,41.08568,-0.024379551,-0.036290556,-0.044049263,0.0,0.0,0.0
438.835,442.35095,78128571,0.8125,0.10638297,18.25367,8.98365,-0.024379551,-0.036290556,-0.044049263,0.0,0.0,0.0
439.7655,444.89355,78128588,0.8125,0.10638297,33.165035,76.03351,-0.024379551,-0.036290556,-0.044049263,0.0,0.0,0.0
441.28214,447.58948,78128604,0.8125,0.12765957,68.76173,160.84581,-0.024379551,-0.036290556,-0.044049263,0.0,0.0,0.0
442.868,452.18555,78128621,0.8125,0.12765957,109.42094,282.56937,-0.024379551,-0.036290556,-0.044049263,0.0,0.0,0.0
443.88803,455.87268,78128638,0.8125,0.09574468,116.65562,321.68823,-0.024379551,-0.036290556,-0.044049263,0.0,0.0,0.0
446.03766,458.52612,78128655,0.825,0.09574468,119.90822,269.84567,-0.024379551,-0.036290556,-0.044049263,0.0,0.0,0.0
447.73303,461.4845,78128671,0.825,0.08510638,109.95956,184.53082,-0.024379551,-0.036290556,-0.044049263,0.0,0.0,0.0
450.84045,464.86536,78128688,0.8125,0.08510638,151.28658,159.83705,-0.024379551,-0.036290556,-0.044049263,0.0,0.0,0.0
454.68958,467.99292,78128705,0.825,0.08510638,218.18501,163.59024,-0.024379551,-0.036290556,-0.044049263,0.0,0.0,0.0
458.0979,470.35022,78128721,0.8125,0.08510638,262.6103,182.56134,-0.024379551,-0.036290556,-0.044049263,0.0,0.0,0.0
461.0053,472.1947,78128738,0.825,0.08510638,237.11073,133.41585,-0.024379551,-0.036290556,-0.044049263,0.0,0.0,0.0
464.65955,473.4486,78128755,0.8,0.08510638,202.09486,67.81517,-0.024379551,-0.036290556,-0.044049263,0.0,0.0,0.0
468.82812,473.4486,78128772,0.8,0.09574468,216.24823,4.182076,-0.024379551,-0.036290556,-0.044049263,0.0,0.0,0.0
472.55225,473.4486,78128788,0.7875,0.09574468,243.74606,-48.84131,-0.024379551,-0.036290556,-0.044049263,0.0,0.0,0.0
475.67017,471.7621,78128805,0.7875,0.09574468,237.38225,-92.422844,-0.024379551,-0.036290556,-0.044049263,0.0,0.0,0.0
479.29706,469.90552,78128822,0.8,0.09574468,200.89165,-149.57806,-0.024379551,-0.036290556,-0.044049263,0.0,0.0,0.0
482.92847,468.0537,78128838,0.8,0.12765957,200.86061,-162.9319,0.028496355,0.010967523,0.07676029,0.0,0.0,0.0
488.1621,463.30908,78128855,0.7875,0.12765957,257.86163,-235.37154,0.028496355,0.010967523,0.07676029,0.0,0.0,0.0
491.26215,459.52905,78128872,0.8,0.12765957,269.30154,-284.844,0.028496355,0.010967523,0.07676029,0.0,0.0,0.0
494.11432,454.886,78128888,0.7875,0.08510638,222.55054,-321.5566,0.028496355,0.010967523,0.07676029,0.0,0.0,0.0
497.19537,446.69543,78128905,0.7875,0.07446808,155.62328,-417.55276,0.028496355,0.010967523,0.07676029,0.0,0.0,0.0
500.78296,434.5244,78128922,0.7875,0.06382979,157.00345,-644.2008,0.028496355,0.010967523,0.07676029,0.0,0.0,0.0
502.58423,423.95874,78128939,0.7875,0.08510638,157.46204,-825.3687,0.028496355,0.010967523,0.07676029,0.0,0.0,0.0
504.62494,413.265,78128955,0.7875,0.12765957,126.34203,-830.7444,0.028496355,0.010967523,0.07676029,0.0,0.0,0.0
504.81354,402.82092,78128972,0.7875,0.09574468,43.15786,-727.0465,0.028496355,0.010967523,0.07676029,0.0,0.0,0.0
504.81354,391.3474,78128989,0.8,0.08510638,-44.875374,-622.309,0.028496355,0.010967523,0.07676029,0.0,0.0,0.0
504.81354,379.96228,78129005,0.7875,0.06382979,-55.438843,-670.68604,0.028496355,0.010967523,0.07676029,0.0,0.0,0.0
504.34753,371.51172,78129022,0.8,0.08510638,-60.231606,-636.86176,0.028496355,0.010967523,0.07676029,0.0,0.0,0.0
504.31366,365.90308,78129039,0.8125,0.10638297,-39.806274,-430.57883,0.028496355,0.010967523,0.07676029,0.0,0.0,0.0
503.76465,360.3463,78129056,0.8,0.12765957,-26.068384,-261.0687,0.028496355,0.010967523,0.07676029,0.0,0.0,0.0
503.31403,354.8058,78129072,0.8125,0.12765957,-36.854347,-179.12035,0.028496355,0.010967523,0.07676029,0.0,0.0,0.0
503.31403,349.27844,78129089,0.8,0.10638297,-23.194633,-229.4413,0.028496355,0.010967523,0.07676029,0.0,0.0,0.0
503.153,343.75696,78129106,0.8125,0.08510638,-5.9903574,-298.5607,0.028496355,0.010967523,0.07676029,0.0,0.0,0.0
502.1065,338.17615,78129122,0.8125,0.08510638,-24.541552,-331.00613,0.028496355,0.010967523,0.07676029,0.0,0.0,0.0
501.5683,333.96667,78129139,0.8,0.08510638,-43.72043,-298.95932,0.028496355,0.010967523,0.07676029,0.0,0.0,0.0
501.31464,330.27148,78129156,0.8,0.08510638,-52.288105,-231.42932,0.028496355,0.010967523,0.07676029,0.0,0.0,0.0
501.31464,328.04456,78129173,0.8125,0.08510638,-16.125696,-144.16385,0.028496355,0.010967523,0.07676029,0.0,0.0,0.0
500.4477,326.193,78129189,0.825,0.08510638,-3.5097888,-65.28465,0.028496355,0.010967523,0.07676029,0.0,0.0,0.0
500.315,324.6244,78129204,0.825,0.08510638,-13.575842,-37.739655,0.028496355,0.010967523,0.07676029,0.0,0.0,0.0
499.81512,325.0686,78129239,0.825,0.08510638,-21.679659,51.765816,0.028496355,0.010967523,0.07676029,0.0,0.0,0.0
499.81512,325.0686,78129252,0.83750004,0.08510638,-3.2566447,58.298283,0.028496355,0.010967523,0.07676029,0.0,0.0,0.0
499.81512,326.95605,78129273,0.83750004,0.08510638,12.2387705,97.32294,0.028496355,0.010967523,0.07676029,0.0,0.0,0.0
499.81512,330.7776,78129290,0.83750004,0.10638297,6.7007723,179.17712,0.028496355,0.010967523,0.07676029,0.0,0.0,0.0
499.81512,333.5808,78129306,0.85,0.10638297,-0.026243279,256.90546,0.028496355,0.010967523,0.07676029,0.0,0.0,0.0
499.81512,337.36267,78129323,0.8125,0.12765957,0.010644501,279.88632,0.028496355,0.010967523,0.07676029,0.0,0.0,0.0
499.09656,339.67334,78129340,0.85,0.12765957,-21.034653,231.46333,0.028496355,0.010967523,0.07676029,0.0,0.0,0.0
498.3156,342.87122,78129356,0.83750004,0.12765957,-50.489315,171.66595,0.028496355,0.010967523,0.07676029,0.0,0.0,0.0
498.02808,346.52637,78129373,0.825,0.12765957,-47.94135,188.07736,-0.009202898,-0.015225962,0.029408455,0.0,0.0,0.0
497.8158,351.6847,78129390,0.825,0.10638297,-31.181885,245.33992,-0.009202898,-0.015225962,0.029408455,0.0,0.0,0.0
498.69165,357.28296,78129407,0.8125,0.08510638,21.920383,350.72375,-0.009202898,-0.015225962,0.029408455,0.0,0.0,0.0
500.54675,363.52734,78129423,0.8,0.08510638,86.559006,411.25885,-0.009202898,-0.015225962,0.029408455,0.0,0.0,0.0
501.31464,365.9397,78129435,0.2875,0.08510638,124.43566,395.63058,-0.009202898,-0.015225962,0.029408455,0.0,0.0,0.0
501.31464,365.9397,78129440,0.2875,0.08510638,124.43566,395.63058,-0.009202898,-0.015225962,0.029408455,0.0,0.0,0.0
545.30035,279.75488,78131194,0.5375,0.08510638,0.0,0.0,-0.01815191,0.020364314,0.024017334,0.0,0.0,0.0
545.30035,279.75488,78131211,0.625,0.08510638,-0.18745328,-0.08746557,-0.01815191,0.020364314,0.024017334,0.0,0.0,0.0
545.30035,279.75488,78131228,0.675,0.08510638,-0.05529111,-0.027887886,-0.01815191,0.020364314,0.024017334,0.0,0.0,0.0
545.30035,279.75488,78131245,0.7,0.08510638,0.026723843,0.0138815995,-0.01815191,0.020364314,0.024017334,0.0,0.0,0.0
545.30035,279.75488,78131261,0.71250004,0.08510638,-0.040170863,-0.019901412,-0.01815191,0.020364314,0.024017334,0.0,0.0,0.0
545.30035,279.75488,78131278,0.7375,0.07446808,0.0063613914,0.0034239623,-0.01815191,0.020364314,0.024017334,0.0,0.0,0.0
545.30035,279.75488,78131295,0.7625,0.08510638,-0.002677884,-0.0010395704,-0.01815191,0.020364314,0.024017334,0.0,0.0,0.0
545.30035,279.75488,78131310,0.7625,0.08510638,0.035208806,0.018437527,-0.01815191,0.020364314,0.024017334,0.0,0.0,0.0
545.30035,279.75488,78131330,0.7875,0.08510638,-0.008292826,-0.0023273602,-0.01815191,0.020364314,0.024017334,0.0,0.0,0.0
545.30035,279.75488,78131363,0.7875,0.09574468,0.022800762,0.010556656,-0.01815191,0.020364314,0.024017334,0.0,0.0,0.0
545.30035,279.75488,78131391,0.77500004,0.09574468,-0.009358173,-0.004136615,-0.01815191,0.020364314,0.024017334,0.0,0.0,0.0
545.30035,279.75488,78131412,0.7875,0.11702127,-0.007868631,-0.0030709868,-0.01815191,0.020364314,0.024017334,0.0,0.0,0.0
545.30035,279.75488,78131428,0.7875,0.12765957,9.757115E-4,5.449731E-4,-0.01815191,0.020364314,0.024017334,0.0,0.0,0.0
532.24884,296.36023,78131462,0.77500004,0.08510638,-423.5388,535.67694,-0.01815191,0.020364314,0.024017334,0.0,0.0,0.0
526.3628,306.2849,78131479,0.8,0.08510638,-553.46643,764.0763,-0.01815191,0.020364314,0.024017334,0.0,0.0,0.0
520.9388,318.24365,78131495,0.8,0.08510638,-467.1627,889.35925,-0.01815191,0.020364314,0.024017334,0.0,0.0,0.0
519.00934,326.30945,78131512,0.8,0.08510638,-244.2075,729.7368,0.017478466,0.01629147,0.051213264,0.0,0.0,0.0
518.80896,332.35522,78131529,0.8,0.10638297,52.39411,380.33746,0.017478466,0.01629147,0.051213264,0.0,0.0,0.0
520.10785,336.26245,78131545,0.8,0.10638297,163.94856,221.02478,0.017478466,0.01629147,0.051213264,0.0,0.0,0.0
521.23566,338.2672,78131562,0.77500004,0.12765957,227.48828,16.644367,0.017478466,0.01629147,0.051213264,0.0,0.0,0.0
524.20905,340.12952,78131579,0.7875,0.12765957,219.51047,-19.549988,0.017478466,0.01629147,0.051213264,0.0,0.0,0.0
528.3976,341.99084,78131596,0.7875,0.12765957,267.48694,-6.1664133,0.017478466,0.01629147,0.051213264,0.0,0.0,0.0
534.20636,342.83862,78131612,0.8,0.12765957,357.13272,20.513771,0.017478466,0.01629147,0.051213264,0.0,0.0,0.0
543.7558,342.83862,78131629,0.7875,0.10638297,530.60315,4.0934067,0.017478466,0.01629147,0.051213264,0.0,0.0,0.0
557.343,341.60193,78131646,0.8,0.10638297,758.29553,-56.44225,0.017478466,0.01629147,0.051213264,0.0,0.0,0.0
568.9775,340.1731,78131662,0.8,0.10638297,902.74664,-133.94164,0.017478466,0.01629147,0.051213264,0.0,0.0,0.0
581.2375,338.88904,78131679,0.7875,0.09574468,951.1452,-149.7402,0.017478466,0.01629147,0.051213264,0.0,0.0,0.0
593.5969,337.0548,78131696,0.77500004,0.08510638,836.50867,-131.98183,0.017478466,0.01629147,0.051213264,0.0,0.0,0.0
607.9239,335.7306,78131713,0.7875,0.08510638,797.733,-116.410484,0.017478466,0.01629147,0.051213264,0.0,0.0,0.0
622.7527,335.7306,78131729,0.7875,0.08510638,871.1288,-47.16235,0.017478466,0.01629147,0.051213264,0.0,0.0,0.0
633.0585,335.7306,78131746,0.77500004,0.09574468,816.97534,8.948218,0.017478466,0.01629147,0.051213264,0.0,0.0,0.0
640.14716,336.61914,78131763,0.77500004,0.11702127,577.8367,77.03116,0.017478466,0.01629147,0.051213264,0.0,0.0,0.0
646.813,338.2616,78131779,0.77500004,0.10638297,308.05463,114.04729,0.017478466,0.01629147,0.051213264,0.0,0.0,0.0
651.25366,339.28455,78131796,0.7875,0.10638297,131.08295,122.884026,0.017478466,0.01629147,0.051213264,0.0,0.0,0.0
653.30457,340.1731,78131813,0.7875,0.12765957,71.5534,97.78368,0.017478466,0.01629147,0.051213264,0.0,0.0,0.0
654.7648,340.1731,78131824,0.7875,0.12765957,37.009865,61.00293,0.017478466,0.01629147,0.051213264,0.0,0.0,0.0
654.2649,342.17322,78131846,0.77500004,0.12765957,-89.467384,39.05192,0.017478466,0.01629147,0.051213264,0.0,0.0,0.0
652.2336,344.64392,78131863,0.77500004,0.12765957,-177.26022,96.89676,0.017478466,0.01629147,0.051213264,0.0,0.0,0.0
644.89404,350.39014,78131880,0.7875,0.10638297,-327.99997,234.10007,0.017478466,0.01629147,0.051213264,0.0,0.0,0.0
635.6449,357.12927,78131896,0.7875,0.08510638,-618.3493,450.8647,0.017478466,0.01629147,0.051213264,0.0,0.0,0.0
613.57294,370.66772,78131913,0.7875,0.08510638,-1149.5563,736.8595,0.017478466,0.01629147,0.051213264,0.0,0.0,0.0
598.06067,381.0586,78131930,0.7875,0.09574468,-1413.7072,879.9234,0.017478466,0.01629147,0.051213264,0.0,0.0,0.0
581.54126,391.06616,78131946,0.77500004,0.10638297,-1315.6152,813.60565,0.017478466,0.01629147,0.051213264,0.0,0.0,0.0
565.68915,400.35718,78131963,0.77500004,0.10638297,-1053.6069,619.9759,0.017478466,0.01629147,0.051213264,0.0,0.0,0.0
555.58905,407.1715,78131980,0.7875,0.10638297,-770.91223,457.80396,0.017478466,0.01629147,0.051213264,0.0,0.0,0.0
548.9306,412.89026,78131997,0.7875,0.09574468,-495.2185,333.69644,0.017478466,0.01629147,0.051213264,0.0,0.0,0.0
543.2295,423.88293,78132013,0.7875,0.09574468,-212.82227,404.94794,0.017478466,0.01629147,0.051213264,0.0,0.0,0.0
541.20264,432.0409,78132030,0.7875,0.09574468,6.471622,505.71362,0.017478466,0.01629147,0.051213264,0.0,0.0,0.0
541.30164,438.39673,78132047,0.8,0.11702127,120.25927,515.8857,0.013982773,-0.002966851,0.040970802,0.0,0.0,0.0
542.45233,444.04468,78132063,0.8,0.10638297,186.28334,410.77496,0.013982773,-0.002966851,0.040970802,0.0,0.0,0.0
544.21313,446.63794,78132080,0.77500004,0.12765957,237.85304,181.2213,0.013982773,-0.002966851,0.040970802,0.0,0.0,0.0
548.1585,451.11084,78132097,0.77500004,0.12765957,282.709,94.16687,0.013982773,-0.002966851,0.040970802,0.0,0.0,0.0
553.067,454.8036,78132114,0.8,0.10638297,331.9771,166.54912,0.013982773,-0.002966851,0.040970802,0.0,0.0,0.0
558.7503,458.48926,78132130,0.8125,0.09574468,408.54605,208.53064,0.013982773,-0.002966851,0.040970802,0.0,0.0,0.0
564.49243,462.1256,78132147,0.8,0.09574468,425.57318,223.97136,0.013982773,-0.002966851,0.040970802,0.0,0.0,0.0
570.9488,464.31384,78132164,0.8,0.10638297,420.25034,161.60144,0.013982773,-0.002966851,0.040970802,0.0,0.0,0.0
576.72,466.17175,78132180,0.8,0.09574468,396.89493,102.27267,0.013982773,-0.002966851,0.040970802,0.0,0.0,0.0
581.0057,467.99182,78132197,0.8125,0.09574468,324.72644,65.2972,0.013982773,-0.002966851,0.040970802,0.0,0.0,0.0
587.698,469.87488,78132214,0.7875,0.09574468,300.3994,59.54999,0.013982773,-0.002966851,0.040970802,0.0,0.0,0.0
597.66187,472.62732,78132231,0.7875,0.08510638,451.48734,119.1523,0.013982773,-0.002966851,0.040970802,0.0,0.0,0.0
611.17816,474.45996,78132247,0.77500004,0.08510638,735.8036,144.44336,0.013982773,-0.002966851,0.040970802,0.0,0.0,0.0
624.6562,476.30298,78132264,0.7875,0.08510638,958.5605,130.23091,0.013982773,-0.002966851,0.040970802,0.0,0.0,0.0
644.06744,476.11414,78132281,0.7375,0.08510638,1156.008,53.2949,0.013982773,-0.002966851,0.040970802,0.0,0.0,0.0
652.7654,475.2256,78132287,0.4625,0.08510638,1239.189,2.2835586,0.013982773,-0.002966851,0.040970802,0.0,0.0,0.0
652.7654,475.2256,78132294,0.4625,0.08510638,1239.189,2.2835586,0.013982773,-0.002966851,0.040970802,0.0,0.0,0.0
742.7361,425.46936,78133367,0.6875,0.07446808,0.0,0.0,-0.01345101,-0.0018987954,-0.0025787354,0.0,0.0,0.0
742.7361,425.46936,78133384,0.7,0.07446808,-0.54856515,-0.31979337,-0.01345101,-0.0018987954,-0.0025787354,0.0,0.0,0.0
742.7361,425.46936,78133400,0.7375,0.08510638,-0.008842854,-0.0049401606,-0.01345101,-0.0018987954,-0.0025787354,0.0,0.0,0.0
742.7361,425.46936,78133434,0.75,0.08510638,0.03524124,0.023350041,-0.01345101,-0.0018987954,-0.0025787354,0.0,0.0,0.0
742.7361,425.46936,78133443,0.7625,0.08510638,-0.009334034,-0.004865583,-0.01345101,-0.0018987954,-0.0025787354,0.0,0.0,0.0
742.7361,425.46936,78133464,0.7625,0.08510638,0.008371073,0.0032871931,-0.01345101,-0.0018987954,-0.0025787354,0.0,0.0,0.0
733.6109,421.5238,78133484,0.7625,0.09574468,-168.3944,-72.80733,-0.01345101,-0.0018987954,-0.0025787354,0.0,0.0,0.0
714.97815,413.9441,78133500,0.77500004,0.11702127,-1131.266,-471.7317,-0.01345101,-0.0018987954,-0.0025787354,0.0,0.0,0.0
706.4766,412.14185,78133517,0.77500004,0.11702127,-1108.1262,-418.85474,-0.01345101,-0.0018987954,-0.0025787354,0.0,0.0,0.0
696.8679,412.14185,78133534,0.77500004,0.10638297,-980.07996,-234.21039,-0.01345101,-0.0018987954,-0.0025787354,0.0,0.0,0.0
687.0893,414.68823,78133551,0.8,0.08510638,-586.6153,128.07692,-0.01345101,-0.0018987954,-0.0025787354,0.0,0.0,0.0
677.1865,419.29187,78133567,0.7875,0.08510638,-406.5235,413.92825,-0.01345101,-0.0018987954,-0.0025787354,0.0,0.0,0.0
666.9547,426.57544,78133584,0.77500004,0.08510638,-608.8979,494.0685,-0.01345101,-0.0018987954,-0.0025787354,0.0,0.0,0.0
661.46643,432.00464,78133601,0.8,0.08510638,-486.12802,527.144,-0.01345101,-0.0018987954,-0.0025787354,0.0,0.0,0.0
655.731,441.88892,78133617,0.7875,0.10638297,-318.2381,539.10077,-0.01345101,-0.0018987954,-0.0025787354,0.0,0.0,0.0
654.5148,447.2378,78133634,0.8,0.12765957,-114.019264,504.03763,-0.01345101,-0.0018987954,-0.0025787354,0.0,0.0,0.0
655.6611,452.82935,78133651,0.77500004,0.12765957,96.541954,439.50192,-0.026760802,0.014480978,-0.0020627975,0.0,0.0,0.0
660.33795,457.31738,78133668,0.77500004,0.09574468,291.50055,324.93167,-0.026760802,0.014480978,-0.0020627975,0.0,0.0,0.0
671.1091,463.27917,78133684,0.7625,0.09574468,620.4686,267.8137,-0.026760802,0.014480978,-0.0020627975,0.0,0.0,0.0
684.23956,466.34058,78133701,0.77500004,0.09574468,962.9167,217.84781,-0.026760802,0.014480978,-0.0020627975,0.0,0.0,0.0
694.6914,466.34058,78133718,0.75,0.11702127,1009.28296,78.60578,-0.026760802,0.014480978,-0.0020627975,0.0,0.0,0.0
706.0802,464.05237,78133734,0.7625,0.12765957,875.96515,-129.78036,-0.026760802,0.014480978,-0.0020627975,0.0,0.0,0.0
716.7306,457.91223,78133751,0.7375,0.10638297,709.77637,-394.35458,-0.026760802,0.014480978,-0.0020627975,0.0,0.0,0.0
725.44995,448.91614,78133768,0.77500004,0.08510638,532.2034,-592.59174,-0.026760802,0.014480978,-0.0020627975,0.0,0.0,0.0
733.3167,435.99353,78133785,0.75,0.08510638,471.3338,-838.9857,-0.026760802,0.014480978,-0.0020627975,0.0,0.0,0.0
738.46606,426.8402,78133801,0.7625,0.10638297,343.3538,-893.9245,-0.026760802,0.014480978,-0.0020627975,0.0,0.0,0.0
740.93146,420.50745,78133818,0.7625,0.11702127,157.66943,-681.9715,-0.026760802,0.014480978,-0.0020627975,0.0,0.0,0.0
742.9979,416.1189,78133835,0.75,0.12765957,28.192463,-364.78177,-0.026760802,0.014480978,-0.0020627975,0.0,0.0,0.0
743.2359,413.61816,78133851,0.7625,0.11702127,-80.90498,-70.88415,-0.026760802,0.014480978,-0.0020627975,0.0,0.0,0.0
743.2359,412.14185,78133868,0.7875,0.11702127,-108.51619,51.46523,-0.026760802,0.014480978,-0.0020627975,0.0,0.0,0.0
743.2359,412.59045,78133885,0.7875,0.08510638,-71.44043,77.7886,-0.026760802,0.014480978,-0.0020627975,0.0,0.0,0.0
741.6619,418.75854,78133902,0.77500004,0.08510638,-90.95981,257.5654,-0.026760802,0.014480978,-0.0020627975,0.0,0.0,0.0
739.9032,429.917,78133918,0.7875,0.08510638,-129.88481,622.5687,-0.026760802,0.014480978,-0.0020627975,0.0,0.0,0.0
738.86755,439.6482,78133935,0.7875,0.10638297,-132.40822,886.6553,-0.026760802,0.014480978,-0.0020627975,0.0,0.0,0.0
740.4238,446.94043,78133952,0.77500004,0.12765957,-47.96661,821.13824,-0.026760802,0.014480978,-0.0020627975,0.0,0.0,0.0
743.62756,452.8208,78133968,0.75,0.12765957,148.90242,542.5111,-0.026760802,0.014480978,-0.0020627975,0.0,0.0,0.0
747.68463,457.40247,78133985,0.77500004,0.11702127,305.60846,230.57008,-0.026760802,0.014480978,-0.0020627975,0.0,0.0,0.0
754.9857,463.84412,78134002,0.7625,0.08510638,445.58447,214.76773,-0.026760802,0.014480978,-0.0020627975,0.0,0.0,0.0
765.9515,470.24487,78134018,0.7625,0.08510638,639.61816,308.4178,-0.026760802,0.014480978,-0.0020627975,0.0,0.0,0.0
777.4819,473.85474,78134035,0.77500004,0.08510638,799.1947,302.41586,-0.026760802,0.014480978,-0.0020627975,0.0,0.0,0.0
789.32996,474.33704,78134052,0.7625,0.08510638,900.8886,163.53412,-0.026760802,0.014480978,-0.0020627975,0.0,0.0,0.0
798.5142,472.7904,78134069,0.75,0.09574468,795.3707,-74.65428,-0.026760802,0.014480978,-0.0020627975,0.0,0.0,0.0
805.0491,470.37585,78134085,0.7625,0.11702127,480.70877,-281.58664,-0.026760802,0.014480978,-0.0020627975,0.0,0.0,0.0
810.5511,467.64246,78134102,0.71250004,0.10638297,273.95242,-307.70084,-0.026760802,0.014480978,-0.0020627975,0.0,0.0,0.0
813.21313,466.34058,78134114,0.3625,0.12765957,176.95998,-289.13846,-0.026760802,0.014480978,-0.0020627975,0.0,0.0,0.0
813.21313,466.34058,78134121,0.3625,0.12765957,176.95998,-289.13846,-0.026760802,0.014480978,-0.0020627975,0.0,0.0,0.0
866.69574,397.92578,78135219,0.65000004,0.11702127,0.0,0.0,0.0020730793,-0.019532159,0.011480331,0.0,0.0,0.0
866.69574,397.92578,78135238,0.675,0.11702127,0.096477345,0.047933273,0.0020730793,-0.019532159,0.011480331,0.0,0.0,0.0
866.69574,397.92578,78135254,0.71250004,0.11702127,0.012940448,0.0066731246,0.03365846,0.04037428,0.041184425,0.0,0.0,0.0
866.69574,397.92578,78135272,0.725,0.11702127,-0.021897947,-0.012432481,0.03365846,0.04037428,0.041184425,0.0,0.0,0.0
866.69574,397.92578,78135288,0.725,0.10638297,-0.0119301025,-0.004419961,0.03365846,0.04037428,0.041184425,0.0,0.0,0.0
866.69574,397.92578,78135305,0.7625,0.10638297,0.037514996,0.01585666,0.03365846,0.04037428,0.041184425,0.0,0.0,0.0
866.69574,397.92578,78135322,0.75,0.10638297,-0.049242884,-0.02382076,0.03365846,0.04037428,0.041184425,0.0,0.0,0.0
866.69574,397.92578,78135339,0.7375,0.10638297,-0.022767149,-0.0124464035,0.03365846,0.04037428,0.041184425,0.0,0.0,0.0
866.69574,397.92578,78135355,0.7625,0.08510638,-0.02976332,-0.0144551955,0.03365846,0.04037428,0.041184425,0.0,0.0,0.0
866.69574,397.92578,78135372,0.7625,0.09574468,-0.022392169,-0.009935103,0.03365846,0.04037428,0.041184425,0.0,0.0,0.0
866.69574,397.92578,78135395,0.75,0.09574468,0.0210494,0.011933683,0.03365846,0.04037428,0.041184425,3.355443E-6,0.0,0.0
866.69574,397.92578,78135422,0.7625,0.09574468,0.022992656,0.0101265265,0.03365846,0.04037428,0.041184425,3.355443E-6,0.0,0.0
866.69574,397.92578,78135439,0.7625,0.08510638,0.045442667,0.023932295,0.03365846,0.04037428,0.041184425,3.355443E-6,0.0,0.0
855.8339,396.4015,78135456,0.75,0.08510638,-273.60327,-38.39809,0.03365846,0.04037428,0.041184425,0.0,0.0,0.0
836.81287,395.26025,78135472,0.75,0.10638297,-1186.0339,-114.59995,0.03365846,0.04037428,0.041184425,0.0,0.0,0.0
826.4079,396.80054,78135489,0.7625,0.12765957,-1246.5576,-36.940414,0.03365846,0.04037428,0.041184425,0.0,0.0,0.0
818.3005,401.13098,78135506,0.7625,0.12765957,-941.318,184.31712,0.03365846,0.04037428,0.041184425,0.0,0.0,0.0
812.0061,406.49878,78135522,0.7625,0.11702127,-500.43463,364.18762,0.03365846,0.04037428,0.041184425,0.0,0.0,0.0
806.3055,413.79065,78135539,0.7625,0.08510638,-25.078209,534.02936,0.03365846,0.04037428,0.041184425,0.0,0.0,0.0
799.12445,431.0902,78135556,0.7625,0.08510638,-257.92648,855.0279,0.03365846,0.04037428,0.041184425,0.0,0.0,0.0
797.0958,440.12097,78135573,0.7625,0.10638297,-208.7295,941.8268,0.03365846,0.04037428,0.041184425,0.0,0.0,0.0
798.40735,447.46655,78135589,0.75,0.12765957,-17.0378,763.48785,0.03365846,0.04037428,0.041184425,0.0,0.0,0.0
801.0076,452.64087,78135606,0.75,0.11702127,226.86612,439.6193,0.03365846,0.04037428,0.041184425,0.0,0.0,0.0
809.41095,459.68396,78135623,0.77500004,0.10638297,505.78296,195.23157,0.03365846,0.04037428,0.041184425,0.0,0.0,0.0
828.6203,467.12463,78135639,0.77500004,0.08510638,955.68146,246.33475,0.03365846,0.04037428,0.041184425,0.0,0.0,0.0
848.9254,469.0061,78135656,0.7375,0.08510638,1449.2698,293.31363,0.03365846,0.04037428,0.041184425,3.355443E-6,0.0,0.0
870.3379,468.46948,78135673,0.75,0.10638297,1687.4248,56.607185,0.03365846,0.04037428,0.041184425,3.355443E-6,0.0,0.0
891.9746,466.02295,78135689,0.75,0.09574468,1645.1864,-219.69153,0.03365846,0.04037428,0.041184425,3.355443E-6,0.0,0.0
907.7562,463.88623,78135706,0.7375,0.11702127,1297.8746,-368.74408,0.03365846,0.04037428,0.041184425,3.355443E-6,0.0,0.0
919.33734,462.7865,78135723,0.7375,0.12765957,856.93884,-261.83725,0.03365846,0.04037428,0.041184425,0.0,0.0,0.0
931.13855,461.97742,78135740,0.7,0.12765957,524.8149,-108.56094,0.03365846,0.04037428,0.041184425,0.0,0.0,0.0
934.17377,461.89807,78135748,0.26250002,0.12765957,395.79663,-56.723686,0.03365846,0.04037428,0.041184425,0.0,0.0,0.0
934.17377,461.89807,78135756,0.26250002,0.12765957,395.79663,-56.723686,0.03365846,0.04037428,0.041184425,0.0,0.0,0.0
978.6593,397.03735,78136889,0.6625,0.11702127,0.0,0.0,0.020433128,-0.013248384,0.009566307,0.0,0.0,0.0
978.6593,397.03735,78136909,0.6875,0.11702127,-0.08952402,-0.04092671,0.020433128,-0.013248384,0.009566307,0.0,0.0,0.0
978.6593,397.03735,78136926,0.725,0.11702127,-0.05105149,-0.019096121,0.020433128,-0.013248384,0.009566307,0.0,0.0,0.0
978.6593,397.03735,78136943,0.7375,0.09574468,0.030124161,0.0113847945,0.020433128,-0.013248384,0.009566307,0.0,0.0,0.0
978.6593,397.03735,78136960,0.7375,0.08510638,-0.0075960835,-0.0018912997,0.020433128,-0.013248384,0.009566307,0.0,0.0,0.0
955.9275,395.974,78136976,0.7375,0.09574468,-645.17804,-30.17479,0.020433128,-0.013248384,0.009566307,0.0,0.0,0.0
941.3426,398.4126,78136993,0.7375,0.12765957,-1299.5186,30.901205,0.020433128,-0.013248384,0.009566307,0.0,0.0,0.0
925.66425,403.32495,78137010,0.7375,0.12765957,-1518.7302,181.74661,0.020433128,-0.013248384,0.009566307,0.0,0.0,0.0
911.09753,411.43335,78137026,0.75,0.08510638,-1398.3519,422.7016,0.020433128,-0.013248384,0.009566307,0.0,0.0,0.0
895.5548,423.365,78137043,0.7625,0.06382979,-894.8154,751.665,0.020433128,-0.013248384,0.009566307,0.0,0.0,0.0
880.1644,437.48804,78137060,0.75,0.10638297,-778.15247,989.50616,0.020433128,-0.013248384,0.009566307,0.0,0.0,0.0
868.3241,448.61084,78137077,0.75,0.12765957,-823.1886,991.1398,0.020433128,-0.013248384,0.009566307,0.0,0.0,0.0
859.06104,459.02588,78137093,0.7625,0.08510638,-651.7627,820.03094,0.020433128,-0.013248384,0.009566307,0.0,0.0,0.0
850.09735,472.7444,78137110,0.7375,0.06382979,-415.5684,672.5086,0.020433128,-0.013248384,0.009566307,0.0,0.0,0.0
847.2021,485.39124,78137127,0.7375,0.08510638,-222.50572,716.0782,0.020433128,-0.013248384,0.009566307,0.0,0.0,0.0
849.1914,491.2008,78137143,0.7625,0.08510638,68.275154,640.2635,0.020433128,-0.013248384,0.009566307,0.0,0.0,0.0
856.55133,496.73743,78137160,0.75,0.11702127,459.4525,374.0308,0.020433128,-0.013248384,0.009566307,0.0,0.0,0.0
874.0235,501.25476,78137177,0.7375,0.09574468,1012.6965,150.08665,0.020433128,-0.013248384,0.009566307,0.0,0.0,0.0
896.5197,503.86133,78137194,0.75,0.10638297,1556.6893,11.753525,0.020433128,-0.013248384,0.009566307,0.0,0.0,0.0
914.0768,505.7008,78137210,0.7375,0.11702127,1671.9246,25.769829,0.020433128,-0.013248384,0.009566307,0.0,0.0,0.0
932.56274,507.55383,78137227,0.725,0.10638297,1526.3907,29.702534,0.020433128,-0.013248384,0.009566307,0.0,0.0,0.0
947.9876,510.7119,78137244,0.725,0.12765957,1060.9556,68.35497,0.020433128,-0.013248384,0.009566307,0.0,0.0,0.0
956.2523,513.9136,78137260,0.7375,0.10638297,659.9402,178.06403,0.020433128,-0.013248384,0.009566307,0.0,0.0,0.0
959.60693,515.766,78137277,0.75,0.10638297,230.81967,193.90834,0.020433128,-0.013248384,0.009566307,0.0,0.0,0.0
961.1649,519.7578,78137294,0.7375,0.08510638,-144.84938,187.60286,0.020433128,-0.013248384,0.009566307,0.0,0.0,0.0
957.7163,526.6697,78137310,0.75,0.07446808,-396.36356,284.73468,0.020433128,-0.013248384,0.009566307,0.0,0.0,0.0
946.3311,535.7584,78137327,0.7375,0.06382979,-639.22925,487.9217,0.020433128,-0.013248384,0.009566307,0.0,0.0,0.0
927.2725,546.87634,78137344,0.75,0.09574468,-1102.4961,733.46356,0.020433128,-0.013248384,0.009566307,0.0,0.0,0.0
903.4506,557.0635,78137361,0.7625,0.10638297,-1648.972,799.3292,0.020433128,-0.013248384,0.009566307,0.0,0.0,0.0
878.54944,564.44507,78137377,0.725,0.12765957,-1934.9196,664.0265,0.020433128,-0.013248384,0.009566307,0.0,0.0,0.0
863.93256,569.8883,78137394,0.7,0.10638297,-1620.1403,433.0846,-0.015653491,0.021401286,0.02365303,0.0,0.0,0.0
851.20074,573.8495,78137409,0.32500002,0.09574468,-1251.7649,275.36038,-0.015653491,0.021401286,0.02365303,0.0,0.0,0.0
851.20074,573.8495,78137416,0.32500002,0.09574468,-1251.7649,275.36038,-0.015653491,0.021401286,0.02365303,0.0,0.0,0.0
