x,y,timestamp,pressure,fingerarea,velocityx,velocityy,accelx,accely,accelz,gyrox,gyroy,gyroz
370.3573,277.9779,13867734,0.65000004,0.09574468,0.0,0.0,-0.010124251,-0.044818163,-0.014848709,0.0,0.0,0.0
370.3573,277.9779,13867767,0.6875,0.09574468,-0.028485365,-0.022840884,-0.010124251,-0.044818163,-0.014848709,0.0,0.0,0.0
370.3573,277.9779,13867783,0.7625,0.09574468,-0.006519793,-0.004434727,-0.010124251,-0.044818163,-0.014848709,0.0,0.0,0.0
370.3573,277.9779,13867833,0.77500004,0.09574468,0.0048968866,7.3524326E-4,-0.010124251,-0.044818163,-0.014848709,0.0,0.0,0.0
370.3573,277.9779,13867850,0.75,0.09574468,-0.027585832,-0.020565724,-0.010124251,-0.044818163,-0.014848709,0.0,0.0,0.0
370.3573,277.9779,13867867,0.7625,0.11702127,0.0056826416,0.00363916,-0.010124251,-0.044818163,-0.014848709,0.0,0.0,0.0
370.3573,277.9779,13867884,0.77500004,0.11702127,-0.008536357,-0.007252181,-0.010124251,-0.044818163,-0.014848709,0.0,0.0,0.0
370.3573,277.9779,13867900,0.77500004,0.12765957,0.018848883,0.013900589,0.0319006,0.01214546,-0.011878967,0.0,0.0,0.0
370.3573,277.9779,13867917,0.7625,0.12765957,-0.02830835,-0.019163802,0.0319006,0.01214546,-0.011878967,0.0,0.0,0.0
370.3573,277.9779,13867923,0.77500004,0.12765957,-0.020954806,-0.014753149,0.0319006,0.01214546,-0.011878967,0.0,0.0,0.0
367.41302,296.14978,13867950,0.7875,0.11702127,-97.76697,586.5168,0.0319006,0.01214546,-0.011878967,0.0,0.0,0.0
366.3781,303.6056,13867967,0.77500004,0.09574468,-129.13991,830.2684,0.0319006,0.01214546,-0.011878967,0.0,0.0,0.0
365.3376,310.07776,13867984,0.7875,0.09574468,-92.842705,627.8677,0.0319006,0.01214546,-0.011878967,0.0,0.0,0.0
365.35892,316.5266,13868001,0.8,0.09574468,-33.255775,434.29782,0.0319006,0.01214546,-0.011878967,0.0,0.0,0.0
364.85907,323.09033,13868017,0.7875,0.09574468,3.4368005,284.40732,0.0319006,0.01214546,-0.011878967,0.0,0.0,0.0
363.72226,330.48633,13868034,0.77500004,0.10638297,-23.96843,383.4426,0.0319006,0.01214546,-0.011878967,0.0,0.0,0.0
363.35956,339.95813,13868051,0.7625,0.12765957,-33.998405,490.10498,0.0319006,0.01214546,-0.011878967,0.0,0.0,0.0
361.646,353.37122,13868067,0.77500004,0.08510638,-69.54265,685.7335,0.0319006,0.01214546,-0.011878967,0.0,0.0,0.0
359.8936,365.76416,13868084,0.7625,0.08510638,-103.58992,889.18945,0.0319006,0.01214546,-0.011878967,0.0,0.0,0.0
359.36087,377.8241,13868101,0.77500004,0.08510638,-94.42563,898.5949,0.0319006,0.01214546,-0.011878967,0.0,0.0,0.0
358.86102,386.10193,13868118,0.77500004,0.10638297,-58.635128,706.06757,0.0319006,0.01214546,-0.011878967,0.0,0.0,0.0
358.86102,396.54846,13868134,0.77500004,0.12765957,-1.1414115,511.99542,0.0319006,0.01214546,-0.011878967,0.0,0.0,0.0
359.36087,408.7223,13868151,0.7625,0.10638297,47.56176,529.412,0.0319006,0.01214546,-0.011878967,0.0,0.0,0.0
359.81113,422.1869,13868168,0.77500004,0.08510638,55.871113,735.6983,0.0319006,0.01214546,-0.011878967,0.0,0.0,0.0
360.36053,433.39673,13868184,0.7875,0.08510638,60.235355,845.16986,0.0319006,0.01214546,-0.011878967,0.0,0.0,0.0
360.86038,441.70532,13868201,0.8,0.12765957,49.845833,681.773,0.0319006,0.01214546,-0.011878967,0.0,0.0,0.0
361.4349,449.10144,13868218,0.77500004,0.12765957,34.95717,450.37106,0.0319006,0.01214546,-0.011878967,0.0,0.0,0.0
361.86005,456.4535,13868235,0.7625,0.10638297,31.459074,317.6235,0.0319006,0.01214546,-0.011878967,0.0,0.0,0.0
363.01065,465.01636,13868251,0.75,0.08510638,43.84499,346.14383,0.0319006,0.01214546,-0.011878967,0.0,0.0,0.0
363.35956,477.22034,13868268,0.7625,0.09574468,49.684723,556.55975,0.0319006,0.01214546,-0.011878967,0.0,0.0,0.0
364.35925,484.823,13868285,0.7625,0.09574468,54.593075,654.27545,0.0319006,0.01214546,-0.011878967,0.0,0.0,0.0
364.85907,490.838,13868301,0.7625,0.09574468,38.51655,511.50253,0.0319006,0.01214546,-0.011878967,0.0,0.0,0.0
364.85907,494.4314,13868318,0.77500004,0.11702127,15.187205,263.71402,0.0319006,0.01214546,-0.011878967,0.0,0.0,0.0
364.85907,495.66113,13868335,0.8,0.11702127,-7.5497518,6.5305476,0.0319006,0.01214546,-0.011878967,0.0,0.0,0.0
364.85907,495.66113,13868351,0.8,0.11702127,-19.097246,-112.94959,0.0319006,0.01214546,-0.011878967,0.0,0.0,0.0
364.85907,495.66113,13868368,0.8125,0.11702127,-15.299185,-156.42464,0.0319006,0.01214546,-0.011878967,0.0,0.0,0.0
364.85907,495.66113,13868385,0.8125,0.11702127,-5.628919,-118.86284,0.0319006,0.01214546,-0.011878967,0.0,0.0,0.0
364.85907,495.66113,13868402,0.8125,0.09574468,0.025722915,-46.464703,0.0319006,0.01214546,-0.011878967,0.0,0.0,0.0
364.31665,493.80847,13868418,0.8125,0.08510638,-13.693391,-62.633873,0.0319006,0.01214546,-0.011878967,0.0,0.0,0.0
363.2776,490.92712,13868435,0.8,0.08510638,-48.50466,-141.68411,-0.014479518,0.009716362,-0.009503365,0.0,0.0,0.0
362.2349,486.1095,13868452,0.77500004,0.08510638,-78.79296,-270.63507,-0.014479518,0.009716362,-0.009503365,0.0,0.0,0.0
361.2036,478.55432,13868468,0.77500004,0.08510638,-90.160255,-442.07297,-0.014479518,0.009716362,-0.009503365,0.0,0.0,0.0
360.6626,466.54504,13868485,0.75,0.12765957,-69.83397,-666.9136,-0.014479518,0.009716362,-0.009503365,0.0,0.0,0.0
360.36053,451.87964,13868502,0.7625,0.08510638,-24.29246,-941.37134,-0.014479518,0.009716362,-0.009503365,0.0,0.0,0.0
360.36053,435.75122,13868519,0.7625,0.08510638,6.3824635,-1136.3182,-0.014479518,0.009716362,-0.009503365,0.0,0.0,0.0
360.04446,420.08606,13868535,0.75,0.10638297,17.05887,-1167.112,-0.014479518,0.009716362,-0.009503365,0.0,0.0,0.0
358.14505,405.27393,13868552,0.77500004,0.12765957,-41.085358,-1058.1718,-0.014479518,0.009716362,-0.009503365,0.0,0.0,0.0
356.07507,389.8567,13868569,0.7625,0.08510638,-125.76322,-926.95996,-0.014479518,0.009716362,-0.009503365,0.0,0.0,0.0
355.36218,373.24402,13868585,0.77500004,0.08510638,-147.52028,-920.8413,-0.014479518,0.009716362,-0.009503365,0.0,0.0,0.0
356.80945,358.36108,13868602,0.7625,0.12765957,-40.69261,-935.9702,-0.014479518,0.009716362,-0.009503365,0.0,0.0,0.0
359.37637,340.92395,13868619,0.77500004,0.08510638,147.73985,-997.8185,-0.014479518,0.009716362,-0.009503365,0.0,0.0,0.0
362.49924,320.60632,13868636,0.7625,0.08510638,262.87476,-1135.9941,-0.014479518,0.009716362,-0.009503365,0.0,0.0,0.0
365.0496,305.94385,13868652,0.7625,0.12765957,271.3893,-1103.6603,-0.014479518,0.009716362,-0.009503365,0.0,0.0,0.0
367.60776,292.1969,13868669,0.7875,0.11702127,213.29565,-965.903,-0.014479518,0.009716362,-0.009503365,0.0,0.0,0.0
371.02927,276.17883,13868686,0.7625,0.09574468,180.5696,-843.6984,-0.014479518,0.009716362,-0.009503365,0.0,0.0,0.0
375.95776,263.22327,13868702,0.77500004,0.10638297,242.99477,-768.01624,-0.014479518,0.009716362,-0.009503365,0.0,0.0,0.0
381.8153,254.03918,13868719,0.7625,0.12765957,342.1452,-650.67615,-0.014479518,0.009716362,-0.009503365,0.0,0.0,0.0
389.90512,244.35864,13868736,0.7625,0.10638297,479.08148,-499.64066,-0.014479518,0.009716362,-0.009503365,0.0,0.0,0.0
397.81165,238.60925,13868753,0.77500004,0.09574468,569.7327,-322.04416,-0.014479518,0.009716362,-0.009503365,0.0,0.0,0.0
402.314,236.45496,13868769,0.7625,0.10638297,482.52515,-119.757256,-0.014479518,0.009716362,-0.009503365,0.0,0.0,0.0
406.8121,236.91711,13868786,0.77500004,0.12765957,314.41586,62.78556,-0.014479518,0.009716362,-0.009503365,0.0,0.0,0.0
410.71548,240.43213,13868803,0.77500004,0.12765957,170.62045,323.91544,-0.014479518,0.009716362,-0.009503365,0.0,0.0,0.0
416.25616,257.9713,13868819,0.77500004,0.09574468,179.25546,730.9455,-0.014479518,0.009716362,-0.009503365,0.0,0.0,0.0
418.86197,280.15442,13868836,0.75,0.12765957,216.30571,1410.0896,-0.014479518,0.009716362,-0.009503365,0.0,0.0,0.0
419.8412,301.58057,13868853,0.75,0.09574468,127.552284,1770.8542,-0.014479518,0.009716362,-0.009503365,0.0,0.0,0.0
419.8412,325.32788,13868869,0.7625,0.09574468,-19.84563,1867.6097,-0.014479518,0.009716362,-0.009503365,0.0,0.0,0.0
422.99963,341.52124,13868886,0.75,0.12765957,-25.050758,1452.0879,-0.014479518,0.009716362,-0.009503365,0.0,0.0,0.0
425.90842,350.74402,13868903,0.7625,0.11702127,77.05698,840.81604,-0.014479518,0.009716362,-0.009503365,0.0,0.0,0.0
428.7111,356.44092,13868920,0.77500004,0.08510638,204.43301,361.25775,-0.014479518,0.009716362,-0.009503365,0.0,0.0,0.0
435.12332,362.41504,13868936,0.7625,0.08510638,333.70953,-12.572965,-0.014479518,0.009716362,-0.009503365,0.0,0.0,0.0
445.87982,367.87878,13868953,0.77500004,0.08510638,534.27057,63.36183,-0.014479518,0.009716362,-0.009503365,0.0,0.0,0.0
457.33923,368.0381,13868970,0.75,0.08510638,790.9432,38.76215,0.012416393,-0.008226901,-0.0076026917,0.0,0.0,0.0
469.77716,361.85876,13868986,0.7375,0.11702127,927.071,-211.89989,0.012416393,-0.008226901,-0.0076026917,0.0,0.0,0.0
482.17645,350.1532,13869003,0.7375,0.12765957,903.10156,-691.8067,0.012416393,-0.008226901,-0.0076026917,0.0,0.0,0.0
492.8147,334.05762,13869020,0.75,0.08510638,773.30786,-1140.4532,0.012416393,-0.008226901,-0.0076026917,0.0,0.0,0.0
505.69482,307.54834,13869037,0.7375,0.09574468,695.018,-1558.5017,0.012416393,-0.008226901,-0.0076026917,2.5165823E-6,0.0,0.0
513.7864,288.34485,13869053,0.75,0.08510638,591.0454,-1664.7039,0.012416393,-0.008226901,-0.0076026917,2.5165823E-6,0.0,0.0
518.07776,269.79614,13869070,0.75,0.08510638,389.38855,-1572.3671,0.012416393,-0.008226901,-0.0076026917,2.5165823E-6,0.0,0.0
521.0345,255.24634,13869087,0.7375,0.12765957,164.83075,-1210.935,0.012416393,-0.008226901,-0.0076026917,2.5165823E-6,0.0,0.0
523.0416,244.74426,13869103,0.75,0.12765957,-14.458933,-705.0143,0.012416393,-0.008226901,-0.0076026917,0.0,0.0,0.0
523.9987,237.86304,13869120,0.75,0.10638297,-100.8024,-330.50217,0.012416393,-0.008226901,-0.0076026917,0.0,0.0,0.0
524.3072,234.0476,13869137,0.7625,0.10638297,-64.16618,-33.985706,0.012416393,-0.008226901,-0.0076026917,0.0,0.0,0.0
524.3072,232.19788,13869154,0.77500004,0.10638297,-50.597034,46.675957,0.012416393,-0.008226901,-0.0076026917,0.0,0.0,0.0
524.3072,231.77576,13869170,0.77500004,0.10638297,-46.088547,131.61386,0.012416393,-0.008226901,-0.0076026917,0.0,0.0,0.0
524.60596,232.83801,13869187,0.7875,0.12765957,-28.158615,174.86137,0.012416393,-0.008226901,-0.0076026917,0.0,0.0,0.0
525.3068,240.3053,13869204,0.77500004,0.12765957,18.650316,328.9743,0.012416393,-0.008226901,-0.0076026917,0.0,0.0,0.0
523.9741,261.5381,13869220,0.7625,0.08510638,4.5690346,890.32465,0.012416393,-0.008226901,-0.0076026917,0.0,0.0,0.0
522.3981,286.62793,13869237,0.7625,0.10638297,-71.01975,1639.154,0.012416393,-0.008226901,-0.0076026917,0.0,0.0,0.0
519.32104,324.82886,13869254,0.7625,0.08510638,-179.87242,2397.197,0.012416393,-0.008226901,-0.0076026917,0.0,0.0,0.0
516.80963,363.07605,13869271,0.7625,0.08510638,-239.79527,2831.6248,0.012416393,-0.008226901,-0.0076026917,0.0,0.0,0.0
517.3886,395.73547,13869287,0.7375,0.10638297,-124.395355,2717.0203,0.012416393,-0.008226901,-0.0076026917,0.0,0.0,0.0
520.374,420.08582,13869304,0.75,0.08510638,82.2546,2097.0552,0.012416393,-0.008226901,-0.0076026917,0.0,0.0,0.0
523.91504,439.1798,13869321,0.7625,0.10638297,281.65082,1332.6886,0.012416393,-0.008226901,-0.0076026917,0.0,0.0,0.0
528.73816,452.6671,13869337,0.7375,0.12765957,404.21118,639.8151,0.012416393,-0.008226901,-0.0076026917,0.0,0.0,0.0
534.7194,465.30225,13869354,0.75,0.09574468,424.63623,369.92242,0.012416393,-0.008226901,-0.0076026917,0.0,0.0,0.0
543.2422,477.24976,13869371,0.7,0.08510638,486.54434,392.10153,0.012416393,-0.008226901,-0.0076026917,0.0,0.0,0.0
545.8002,480.55664,13869374,0.52500004,0.08510638,524.7621,409.47684,0.012416393,-0.008226901,-0.0076026917,0.0,0.0,0.0
545.8002,480.55664,13869382,0.52500004,0.08510638,524.7621,409.47684,0.012416393,-0.008226901,-0.0076026917,0.0,0.0,0.0
621.77545,397.03735,13870196,0.6875,0.09574468,0.0,0.0,0.0095464885,0.007534802,-0.0048656464,0.0,0.0,0.0
621.77545,397.03735,13870223,0.71250004,0.09574468,-0.015782798,-0.0056392844,0.0095464885,0.007534802,-0.0048656464,0.0,0.0,0.0
621.77545,397.03735,13870240,0.725,0.10638297,0.0134199355,0.008595228,0.0095464885,0.007534802,-0.0048656464,0.0,0.0,0.0
621.77545,397.03735,13870257,0.7,0.10638297,-0.0062558283,-0.0045533585,0.0095464885,0.007534802,-0.0048656464,0.0,0.0,0.0
621.77545,397.03735,13870264,0.71250004,0.10638297,0.0016575976,0.001430464,0.0095464885,0.007534802,-0.0048656464,0.0,0.0,0.0
621.77545,397.03735,13870284,0.71250004,0.12765957,0.006123347,0.0033619853,0.0095464885,0.007534802,-0.0048656464,0.0,0.0,0.0
621.77545,397.03735,13870307,0.725,0.12765957,0.014936956,0.010029635,0.0095464885,0.007534802,-0.0048656464,0.0,0.0,0.0
639.2555,401.3656,13870323,0.725,0.12765957,495.71497,123.81004,0.0095464885,0.007534802,-0.0048656464,0.0,0.0,0.0
647.16516,401.47986,13870340,0.725,0.12765957,989.4693,182.39401,0.0095464885,0.007534802,-0.0048656464,0.0,0.0,0.0
651.3556,399.66284,13870357,0.725,0.10638297,729.4526,28.848171,0.0095464885,0.007534802,-0.0048656464,0.0,0.0,0.0
654.4413,397.8213,13870373,0.71250004,0.09574468,255.93404,-155.72716,0.0095464885,0.007534802,-0.0048656464,0.0,0.0,0.0
656.2642,395.95886,13870390,0.7,0.08510638,-110.89088,-241.12376,0.0095464885,0.007534802,-0.0048656464,0.0,0.0,0.0
655.6568,391.13257,13870407,0.6875,0.08510638,-191.62193,-285.94507,0.0095464885,0.007534802,-0.0048656464,0.0,0.0,0.0
652.67053,386.55908,13870424,0.725,0.09574468,-205.51108,-313.6961,0.0095464885,0.007534802,-0.0048656464,0.0,0.0,0.0
644.31226,381.1604,13870440,0.75,0.08510638,-428.62482,-373.97348,0.0095464885,0.007534802,-0.0048656464,0.0,0.0,0.0
633.9351,379.2672,13870457,0.7375,0.08510638,-716.7587,-300.4735,0.0095464885,0.007534802,-0.0048656464,0.0,0.0,0.0
623.7538,379.765,13870474,0.7625,0.08510638,-837.8865,-59.578968,0.0095464885,0.007534802,-0.0048656464,0.0,0.0,0.0
616.25793,383.1289,13870490,0.7375,0.08510638,-752.37,203.98459,0.0095464885,0.007534802,-0.0048656464,0.0,0.0,0.0
611.6543,386.81897,13870507,0.75,0.10638297,-451.82455,376.1361,0.0095464885,0.007534802,-0.0048656464,0.0,0.0,0.0
606.2068,399.3794,13870524,0.7375,0.12765957,-215.52562,603.8524,0.0095464885,0.007534802,-0.0048656464,0.0,0.0,0.0
602.9557,412.20532,13870541,0.7375,0.08510638,-108.203476,863.17664,0.0095464885,0.007534802,-0.0048656464,0.0,0.0,0.0
601.2947,427.15723,13870557,0.75,0.08510638,-64.66194,1103.3735,0.0095464885,0.007534802,-0.0048656464,0.0,0.0,0.0
601.2821,439.08228,13870574,0.7625,0.10638297,5.8620687,1068.7434,0.007637188,0.0060278475,-0.0038928986,0.0,0.0,0.0
602.3503,446.39197,13870591,0.7625,0.12765957,112.41872,734.18225,0.007637188,0.0060278475,-0.0038928986,0.0,0.0,0.0
605.6335,453.64,13870607,0.7625,0.10638297,226.41032,389.2391,0.007637188,0.0060278475,-0.0038928986,0.0,0.0,0.0
608.87866,458.2539,13870624,0.7625,0.09574468,280.5326,175.72218,0.007637188,0.0060278475,-0.0038928986,0.0,0.0,0.0
618.4649,466.78552,13870641,0.7375,0.08510638,462.5386,217.90585,0.007637188,0.0060278475,-0.0038928986,0.0,0.0,0.0
628.3268,472.88794,13870658,0.7375,0.08510638,686.4624,393.4074,0.007637188,0.0060278475,-0.0038928986,0.0,0.0,0.0
639.17096,476.58276,13870674,0.725,0.09574468,804.8313,337.94177,0.007637188,0.0060278475,-0.0038928986,0.0,0.0,0.0
650.1764,477.8911,13870691,0.7375,0.08510638,826.75543,154.59743,0.007637188,0.0060278475,-0.0038928986,0.0,0.0,0.0
658.5032,477.28247,13870708,0.71250004,0.08510638,665.2158,-90.6296,0.007637188,0.0060278475,-0.0038928986,0.0,0.0,0.0
663.3072,474.7411,13870724,0.725,0.08510638,427.20416,-244.35556,0.007637188,0.0060278475,-0.0038928986,0.0,0.0,0.0
667.6001,470.17957,13870741,0.7,0.09574468,206.8783,-351.3129,0.007637188,0.0060278475,-0.0038928986,0.0,0.0,0.0
671.6142,464.75684,13870758,0.71250004,0.10638297,70.94037,-422.29782,0.007637188,0.0060278475,-0.0038928986,0.0,0.0,0.0
672.75885,462.7865,13870766,0.2875,0.10638297,54.15345,-433.79755,0.007637188,0.0060278475,-0.0038928986,0.0,0.0,0.0
672.75885,462.7865,13870774,0.2875,0.10638297,54.15345,-433.79755,0.007637188,0.0060278475,-0.0038928986,0.0,0.0,0.0
626.7738,261.0963,13871057,0.8,0.08510638,0.0,0.0,0.007637188,0.0060278475,-0.0038928986,0.0,0.0,0.0
626.7738,261.0963,13871082,0.7875,0.08510638,-0.002575375,-8.59214E-4,0.007637188,0.0060278475,-0.0038928986,0.0,0.0,0.0
628.63184,268.0321,13871109,0.75,0.08510638,86.10546,321.41373,-0.017890245,-0.027177751,-0.08311367,0.0,0.0,0.0
634.2614,300.46667,13871125,0.71250004,0.10638297,393.847,1969.8427,-0.017890245,-0.027177751,-0.08311367,0.0,0.0,0.0
635.5513,328.2727,13871142,0.6375,0.08510638,298.47025,2459.6013,-0.017890245,-0.027177751,-0.08311367,0.0,0.0,0.0
635.7709,332.1765,13871146,0.5,0.12765957,267.88504,2423.271,-0.017890245,-0.027177751,-0.08311367,0.0,0.0,0.0
635.7709,332.1765,13871153,0.5,0.12765957,267.88504,2423.271,-0.017890245,-0.027177751,-0.08311367,0.0,0.0,0.0
739.2372,486.77612,13871669,0.575,0.06382979,0.0,0.0,0.009687811,-0.0057421923,-0.0024909973,0.0,0.0,0.0
739.2372,486.77612,13871694,0.6625,0.06382979,0.03757029,0.02732911,0.009687811,-0.0057421923,-0.0024909973,0.0,0.0,0.0
739.2372,486.77612,13871710,0.6875,0.08510638,0.024646226,0.015396202,0.009687811,-0.0057421923,-0.0024909973,0.0,0.0,0.0
739.2372,486.77612,13871727,0.6875,0.06382979,0.009552118,0.007355107,0.009687811,-0.0057421923,-0.0024909973,0.0,0.0,0.0
739.2372,486.77612,13871744,0.7,0.08510638,0.023026396,0.016922537,0.009687811,-0.0057421923,-0.0024909973,0.0,0.0,0.0
739.2372,486.77612,13871760,0.71250004,0.08510638,0.019478995,0.011845588,0.009687811,-0.0057421923,-0.0024909973,0.0,0.0,0.0
739.2372,486.77612,13871777,0.71250004,0.08510638,-0.047154117,-0.030351814,0.009687811,-0.0057421923,-0.0024909973,0.0,0.0,0.0
739.2372,486.77612,13871794,0.725,0.08510638,0.018864933,0.013875183,0.009687811,-0.0057421923,-0.0024909973,0.0,0.0,0.0
739.2372,486.77612,13871811,0.7375,0.10638297,0.015469771,0.008898097,0.009687811,-0.0057421923,-0.0024909973,0.0,0.0,0.0
740.2369,462.27148,13871827,0.7,0.10638297,33.0361,-754.66766,0.009687811,-0.0057421923,-0.0024909973,0.0,0.0,0.0
739.3903,448.35486,13871844,0.7,0.08510638,15.610926,-1386.0193,0.009687811,-0.0057421923,-0.0024909973,0.0,0.0,0.0
738.34595,431.4536,13871861,0.71250004,0.08510638,-38.523113,-1543.0735,0.009687811,-0.0057421923,-0.0024909973,0.0,0.0,0.0
736.001,418.28992,13871877,0.7,0.09574468,-112.050156,-1282.7352,0.009687811,-0.0057421923,-0.0024909973,0.0,0.0,0.0
731.82874,407.0088,13871894,0.725,0.10638297,-231.46548,-760.09064,0.009687811,-0.0057421923,-0.0024909973,0.0,0.0,0.0
727.1158,395.8147,13871911,0.725,0.08510638,-326.73508,-503.5757,0.009687811,-0.0057421923,-0.0024909973,0.0,0.0,0.0
724.0526,390.48096,13871928,0.7375,0.08510638,-322.5605,-390.39618,0.009687811,-0.0057421923,-0.0024909973,0.0,0.0,0.0
721.5434,386.0205,13871944,0.7375,0.08510638,-245.98596,-212.1312,0.009687811,-0.0057421923,-0.0024909973,0.0,0.0,0.0
719.44775,382.29553,13871961,0.75,0.08510638,-131.66359,-96.174904,0.009687811,-0.0057421923,-0.0024909973,0.0,0.0,0.0
718.03406,380.67114,13871978,0.7375,0.08510638,-57.2208,4.7618246,0.009687811,-0.0057421923,-0.0024909973,0.0,0.0,0.0
717.00854,380.15576,13871994,0.7625,0.08510638,-26.05238,48.585964,0.009687811,-0.0057421923,-0.0024909973,0.0,0.0,0.0
717.7499,380.6051,13872011,0.75,0.08510638,19.312004,74.53582,0.009687811,-0.0057421923,-0.0024909973,0.0,0.0,0.0
724.15094,384.8888,13872028,0.7375,0.09574468,212.08875,201.86325,0.009687811,-0.0057421923,-0.0024909973,0.0,0.0,0.0
734.4392,392.20422,13872045,0.725,0.12765957,582.7287,434.33405,0.009687811,-0.0057421923,-0.0024909973,0.0,0.0,0.0
747.1485,401.19385,13872061,0.71250004,0.12765957,916.89343,650.2498,0.009687811,-0.0057421923,-0.0024909973,0.0,0.0,0.0
764.98047,415.27625,13872078,0.725,0.08510638,1170.1348,864.05865,0.009687811,-0.0057421923,-0.0024909973,0.0,0.0,0.0
781.73395,430.75122,13872095,0.725,0.08510638,1235.2762,1035.3458,0.009687811,-0.0057421923,-0.0024909973,0.0,0.0,0.0
792.4093,442.00598,13872111,0.725,0.10638297,1100.0929,1047.2426,0.009687811,-0.0057421923,-0.0024909973,0.0,0.0,0.0
798.92505,450.6422,13872128,0.71250004,0.11702127,616.87366,751.6285,0.009687811,-0.0057421923,-0.0024909973,0.0,0.0,0.0
803.06665,461.11682,13872145,0.725,0.09574468,172.54031,514.29425,0.009687811,-0.0057421923,-0.0024909973,0.0,0.0,0.0
803.7162,470.8789,13872162,0.7375,0.09574468,-128.88075,454.89243,0.007750258,0.011406243,0.06200695,0.0,0.0,0.0
799.58325,481.3589,13872178,0.7375,0.08510638,-320.65573,543.37885,0.007750258,0.011406243,0.06200695,0.0,0.0,0.0
791.84546,487.7384,13872195,0.725,0.08510638,-511.3175,528.7227,0.007750258,0.011406243,0.06200695,0.0,0.0,0.0
779.9839,495.07837,13872212,0.725,0.10638297,-816.9628,442.94427,0.007750258,0.011406243,0.06200695,0.0,0.0,0.0
772.15265,497.43823,13872228,0.71250004,0.10638297,-887.86523,226.06566,0.007750258,0.011406243,0.06200695,0.0,0.0,0.0
768.64325,497.43823,13872245,0.71250004,0.10638297,-577.3221,4.9815865,0.007750258,0.011406243,0.06200695,0.0,0.0,0.0
767.38226,496.82385,13872262,0.7,0.08510638,-139.66516,-178.95789,0.007750258,0.011406243,0.06200695,0.0,0.0,0.0
767.2281,494.99707,13872278,0.6875,0.08510638,186.8237,-293.63248,0.007750258,0.011406243,0.06200695,0.0,0.0,0.0
768.56464,493.14038,13872295,0.6875,0.08510638,243.49142,-235.56375,0.007750258,0.011406243,0.06200695,0.0,0.0,0.0
772.4994,491.35315,13872312,0.58750004,0.08510638,276.26645,-170.86754,0.007750258,0.011406243,0.06200695,0.0,0.0,0.0
772.7263,491.21863,13872313,0.3,0.08510638,281.6997,-165.93393,0.007750258,0.011406243,0.06200695,0.0,0.0,0.0
772.7263,491.21863,13872320,0.3,0.08510638,281.6997,-165.93393,0.007750258,0.011406243,0.06200695,0.0,0.0,0.0
815.21246,413.0304,13872953,0.675,0.10638297,0.0,0.0,-0.001799792,0.009124994,-0.01439476,0.0,0.0,0.0
815.21246,413.0304,13872980,0.7,0.11702127,0.097361684,0.04929374,-0.001799792,0.009124994,-0.01439476,0.0,0.0,0.0
815.21246,413.0304,13872997,0.7,0.12765957,-0.0052816467,-0.004531207,-0.001799792,0.009124994,-0.01439476,0.0,0.0,0.0
815.21246,413.0304,13873025,0.71250004,0.12765957,0.031952396,0.014819008,-0.001799792,0.009124994,-0.01439476,0.0,0.0,0.0
815.21246,413.0304,13873047,0.7,0.10638297,-0.021052107,-0.010037232,-0.001799792,0.009124994,-0.01439476,0.0,0.0,0.0
820.68884,389.77502,13873064,0.71250004,0.08510638,179.50682,-783.8165,-0.001799792,0.009124994,-0.01439476,0.0,0.0,0.0
824.36,382.42957,13873080,0.71250004,0.08510638,328.44983,-1168.0168,-0.001799792,0.009124994,-0.01439476,0.0,0.0,0.0
832.98236,375.00183,13873097,0.71250004,0.08510638,510.73315,-701.35376,-0.001799792,0.009124994,-0.01439476,0.0,0.0,0.0
842.81177,372.13513,13873114,0.7,0.08510638,667.9034,-313.62335,-0.001799792,0.009124994,-0.01439476,0.0,0.0,0.0
850.5666,373.1289,13873131,0.71250004,0.09574468,644.1535,263.36835,-0.001799792,0.009124994,-0.01439476,0.0,0.0,0.0
857.307,378.99634,13873147,0.71250004,0.11702127,560.14874,486.09653,-0.001799792,0.009124994,-0.01439476,0.0,0.0,0.0
863.043,386.5608,13873164,0.71250004,0.12765957,401.7115,618.25836,-0.001799792,0.009124994,-0.01439476,0.0,0.0,0.0
870.2781,399.4812,13873181,0.71250004,0.10638297,308.45737,843.07153,-0.001799792,0.009124994,-0.01439476,0.0,0.0,0.0
876.69244,423.5393,13873197,0.725,0.08510638,365.77725,1297.6592,-0.001799792,0.009124994,-0.01439476,0.0,0.0,0.0
873.98517,445.72668,13873214,0.7,0.12765957,142.34372,1681.2657,-0.001799792,0.009124994,-0.01439476,0.0,0.0,0.0
866.96094,468.2467,13873231,0.71250004,0.09574468,-332.19366,1778.0332,-0.001799792,0.009124994,-0.01439476,0.0,0.0,0.0
858.6277,485.44214,13873247,0.71250004,0.08510638,-754.4956,1487.9392,-0.0014398396,0.0072999895,-0.011515617,0.0,0.0,0.0
851.69104,492.87842,13873264,0.725,0.09574468,-840.2257,766.1712,-0.0014398396,0.0072999895,-0.011515617,0.0,0.0,0.0
843.6231,498.6703,13873281,0.725,0.10638297,-640.6452,213.85841,-0.0014398396,0.0072999895,-0.011515617,0.0,0.0,0.0
836.1078,501.7616,13873298,0.725,0.10638297,-504.06622,-135.95573,-0.0014398396,0.0072999895,-0.011515617,0.0,0.0,0.0
831.7846,502.76917,13873314,0.725,0.12765957,-378.8427,-233.76932,-0.0014398396,0.0072999895,-0.011515617,0.0,0.0,0.0
829.6931,501.85474,13873331,0.7,0.09574468,-187.59465,-185.93117,-0.0014398396,0.0072999895,-0.011515617,0.0,0.0,0.0
828.6529,499.01917,13873348,0.7,0.08510638,-2.7594004,-242.12332,-0.0014398396,0.0072999895,-0.011515617,0.0,0.0,0.0
829.8034,494.43262,13873364,0.7,0.08510638,153.17899,-359.5335,-0.0014398396,0.0072999895,-0.011515617,0.0,0.0,0.0
835.0845,487.66113,13873381,0.7,0.08510638,296.42813,-455.8315,-0.0014398396,0.0072999895,-0.011515617,0.0,0.0,0.0
842.9782,481.76733,13873398,0.71250004,0.08510638,493.81714,-508.08435,-0.0014398396,0.0072999895,-0.011515617,0.0,0.0,0.0
850.8332,479.6681,13873415,0.725,0.09574468,646.55743,-383.28436,-0.0014398396,0.0072999895,-0.011515617,0.0,0.0,0.0
860.11444,480.98608,13873431,0.71250004,0.09574468,694.0162,-38.612637,-0.0014398396,0.0072999895,-0.011515617,0.0,0.0,0.0
869.2476,484.73425,13873448,0.725,0.08510638,652.8007,272.168,-0.0014398396,0.0072999895,-0.011515617,0.0,0.0,0.0
881.3762,490.2694,13873465,0.7375,0.08510638,668.37213,491.67273,-0.0014398396,0.0072999895,-0.011515617,0.0,0.0,0.0
891.21484,495.00684,13873481,0.71250004,0.09574468,717.3584,504.4925,-0.0014398396,0.0072999895,-0.011515617,0.0,0.0,0.0
898.50287,498.1245,13873498,0.71250004,0.10638297,606.5632,378.35718,-0.0014398396,0.0072999895,-0.011515617,0.0,0.0,0.0
902.9175,499.98523,13873515,0.71250004,0.12765957,367.63696,191.11156,-0.0014398396,0.0072999895,-0.011515617,0.0,0.0,0.0
904.65845,500.10364,13873531,0.71250004,0.10638297,92.16585,6.338989,-0.0014398396,0.0072999895,-0.011515617,0.0,0.0,0.0
905.18317,500.10364,13873548,0.6875,0.10638297,-101.99134,-82.7764,-0.0014398396,0.0072999895,-0.011515617,0.0,0.0,0.0
905.18317,499.1156,13873565,0.625,0.08510638,-143.2739,-112.04751,-0.0014398396,0.0072999895,-0.011515617,0.0,0.0,0.0
905.18317,497.43823,13873580,0.2375,0.08510638,-153.0192,-144.78955,-0.0014398396,0.0072999895,-0.011515617,0.0,0.0,0.0
905.18317,497.43823,13873588,0.2375,0.08510638,-153.0192,-144.78955,-0.0014398396,0.0072999895,-0.011515617,0.0,0.0,0.0
850.7009,432.5774,13873725,0.71250004,0.08510638,0.0,0.0,-0.0014398396,0.0072999895,-0.011515617,0.0,0.0,0.0
850.7009,432.5774,13873765,0.725,0.08510638,-0.012073612,-0.0043504303,-0.0011518598,0.0058400035,-0.07321262,0.0,0.0,0.0
850.7009,432.5774,13873782,0.725,0.08510638,0.019633284,0.010876952,-0.0011518598,0.0058400035,-0.07321262,0.0,0.0,0.0
850.7009,432.5774,13873799,0.725,0.08510638,0.02887036,0.01310843,-0.0011518598,0.0058400035,-0.07321262,0.0,0.0,0.0
850.7009,432.5774,13873815,0.71250004,0.09574468,0.006600887,0.0031182233,-0.0011518598,0.0058400035,-0.07321262,0.0,0.0,0.0
875.5594,435.24292,13873832,0.7,0.08510638,807.2827,90.421974,-0.0011518598,0.0058400035,-0.07321262,0.0,0.0,0.0
888.9568,435.24292,13873849,0.7,0.08510638,1251.0485,96.91752,-0.0011518598,0.0058400035,-0.07321262,0.0,0.0,0.0
899.3886,435.67798,13873865,0.675,0.08510638,1383.4783,68.39252,-0.0011518598,0.0058400035,-0.07321262,0.0,0.0,0.0
904.18353,436.13147,13873878,0.4375,0.09574468,1150.0957,53.89825,-0.0011518598,0.0058400035,-0.07321262,0.0,0.0,0.0
904.18353,436.13147,13873885,0.4375,0.09574468,1150.0957,53.89825,-0.0011518598,0.0058400035,-0.07321262,0.0,0.0,0.0
1003.6511,426.3579,13874461,0.6875,0.08510638,0.0,0.0,-0.01692149,-0.011328012,-0.010570526,0.0,0.0,0.0
1003.6511,426.3579,13874484,0.7,0.08510638,0.05691486,0.0222546,-0.01692149,-0.011328012,-0.010570526,0.0,0.0,0.0
1003.6511,426.3579,13874530,0.7,0.09574468,-0.009890719,-0.0055459198,-0.01692149,-0.011328012,-0.010570526,0.0,0.0,0.0
1003.6511,426.3579,13874551,0.675,0.09574468,0.017245265,0.007860248,-0.01692149,-0.011328012,-0.010570526,0.0,0.0,0.0
981.4027,413.86902,13874568,0.675,0.12765957,-707.03284,-396.89005,-0.01692149,-0.011328012,-0.010570526,0.0,0.0,0.0
964.90686,411.25342,13874584,0.6875,0.09574468,-1714.3792,-670.6221,-0.01692149,-0.011328012,-0.010570526,0.0,0.0,0.0
945.2419,413.70728,13874601,0.71250004,0.10638297,-1748.3141,-274.4557,-0.01692149,-0.011328012,-0.010570526,0.0,0.0,0.0
933.6519,417.7821,13874618,0.7,0.09574468,-1430.2303,142.24542,-0.01692149,-0.011328012,-0.010570526,0.0,0.0,0.0
925.091,424.6825,13874635,0.71250004,0.09574468,-677.3709,626.959,-0.01692149,-0.011328012,-0.010570526,0.0,0.0,0.0
918.2178,434.83228,13874651,0.725,0.10638297,-159.06516,794.5798,-0.01692149,-0.011328012,-0.010570526,0.0,0.0,0.0
913.64307,450.54688,13874668,0.7,0.12765957,-74.17845,929.5135,-0.01692149,-0.011328012,-0.010570526,0.0,0.0,0.0
913.5636,469.17932,13874685,0.725,0.08510638,34.74556,1200.3196,-0.01692149,-0.011328012,-0.010570526,0.0,0.0,0.0
914.5796,486.23523,13874701,0.71250004,0.09574468,175.35918,1374.8999,-0.01692149,-0.011328012,-0.010570526,0.0,0.0,0.0
916.1374,497.13794,13874718,0.7,0.11702127,281.56525,1148.9552,-0.01692149,-0.011328012,-0.010570526,0.0,0.0,0.0
917.67847,503.65588,13874735,0.71250004,0.12765957,275.56378,616.5506,-0.01692149,-0.011328012,-0.010570526,0.0,0.0,0.0
919.2632,505.50977,13874752,0.71250004,0.12765957,165.02437,65.72644,-0.01692149,-0.011328012,-0.010570526,0.0,0.0,0.0
923.5934,509.28467,13874768,0.725,0.12765957,184.6128,-152.08745,-0.01692149,-0.011328012,-0.010570526,0.0,0.0,0.0
931.22675,512.7505,13874785,0.71250004,0.10638297,358.73605,-63.29446,-0.01692149,-0.011328012,-0.010570526,0.0,0.0,0.0
942.8321,512.006,13874802,0.7,0.10638297,640.5831,-5.956266,-0.01692149,-0.011328012,-0.010570526,0.0,0.0,0.0
954.3753,507.03003,13874818,0.6875,0.10638297,858.6567,-167.1391,-0.01692149,-0.011328012,-0.010570526,0.0,0.0,0.0
964.046,498.484,13874835,0.675,0.09574468,853.0063,-531.7341,-0.01692149,-0.011328012,-0.010570526,0.0,0.0,0.0
971.2611,487.88806,13874852,0.6875,0.09574468,627.8452,-827.0493,0.0024628043,0.006937593,0.007543564,0.0,0.0,0.0
977.10376,473.97668,13874869,0.7,0.10638297,355.03403,-975.41077,0.0024628043,0.006937593,0.007543564,0.0,0.0,0.0
978.1594,463.18152,13874885,0.7,0.12765957,91.909164,-948.09296,0.0024628043,0.006937593,0.007543564,0.0,0.0,0.0
977.375,453.9696,13874902,0.71250004,0.11702127,-125.99645,-758.21063,0.0024628043,0.006937593,0.007543564,0.0,0.0,0.0
976.2334,448.07324,13874919,0.71250004,0.09574468,-253.85771,-468.16092,0.0024628043,0.006937593,0.007543564,0.0,0.0,0.0
975.1902,444.23376,13874935,0.71250004,0.09574468,-258.50757,-197.01375,0.0024628043,0.006937593,0.007543564,0.0,0.0,0.0
974.15283,442.3368,13874952,0.71250004,0.09574468,-161.07072,-8.382881,0.0024628043,0.006937593,0.007543564,0.0,0.0,0.0
974.16077,442.35095,13874969,0.725,0.11702127,-52.326847,88.87306,0.0024628043,0.006937593,0.007543564,0.0,0.0,0.0
974.16077,443.39282,13874986,0.7375,0.11702127,5.3131967,164.10185,0.0024628043,0.006937593,0.007543564,0.0,0.0,0.0
974.2855,446.57056,13875002,0.7375,0.12765957,27.174946,230.7706,0.0024628043,0.006937593,0.007543564,0.0,0.0,0.0
974.6605,453.3119,13875019,0.7375,0.12765957,43.373928,382.73505,0.0024628043,0.006937593,0.007543564,0.0,0.0,0.0
977.0685,464.07715,13875036,0.7375,0.09574468,92.664246,617.40076,0.0024628043,0.006937593,0.007543564,0.0,0.0,0.0
981.12415,476.4873,13875052,0.725,0.08510638,199.82335,872.88916,0.0024628043,0.006937593,0.007543564,0.0,0.0,0.0
986.3556,484.3462,13875069,0.725,0.09574468,340.89072,845.80066,0.0024628043,0.006937593,0.007543564,0.0,0.0,0.0
994.8867,493.2025,13875086,0.7375,0.09574468,496.14764,637.1812,0.0024628043,0.006937593,0.007543564,0.0,0.0,0.0
1005.15955,500.26953,13875103,0.725,0.10638297,664.4118,434.9597,0.0024628043,0.006937593,0.007543564,0.0,0.0,0.0
1015.5165,504.1808,13875119,0.71250004,0.12765957,758.3886,248.10318,0.0024628043,0.006937593,0.007543564,0.0,0.0,0.0
1026.5013,505.4347,13875136,0.7,0.12765957,780.16187,92.29879,0.0024628043,0.006937593,0.007543564,0.0,0.0,0.0
1037.9353,503.6908,13875153,0.7,0.10638297,760.751,-117.820885,0.0024628043,0.006937593,0.007543564,0.0,0.0,0.0
1046.1799,497.40454,13875169,0.4875,0.08510638,622.4349,-408.67126,0.0024628043,0.006937593,0.007543564,0.0,0.0,0.0
1048.1366,495.66113,13875177,0.16250001,0.07446808,544.2413,-481.37143,0.0024628043,0.006937593,0.007543564,0.0,0.0,0.0
1048.1366,495.66113,13875184,0.16250001,0.07446808,544.2413,-481.37143,0.0024628043,0.006937593,0.007543564,0.0,0.0,0.0
973.6609,272.64685,13875508,0.7,0.09574468,0.0,0.0,0.009970248,-0.010449916,0.006034851,0.0,0.0,0.0
973.6609,272.64685,13875537,0.75,0.09574468,0.045941148,0.012454644,0.009970248,-0.010449916,0.006034851,0.0,0.0,0.0
973.6609,272.64685,13875554,0.77500004,0.09574468,0.038016815,0.010436896,0.009970248,-0.010449916,0.006034851,0.0,0.0,0.0
973.6609,272.64685,13875570,0.75,0.09574468,-0.047950126,-0.014884731,0.009970248,-0.010449916,0.006034851,0.0,0.0,0.0
973.6609,272.64685,13875587,0.7375,0.11702127,-0.036952835,-0.009842065,0.009970248,-0.010449916,0.006034851,0.0,0.0,0.0
973.6609,286.53162,13875604,0.71250004,0.12765957,-0.02868386,248.79446,0.009970248,-0.010449916,0.006034851,0.0,0.0,0.0
971.6561,312.7738,13875621,0.6375,0.09574468,-60.80393,1246.0507,0.009970248,-0.010449916,0.006034851,0.0,0.0,0.0
971.6561,312.7738,13875628,0.6375,0.09574468,-60.80393,1246.0507,0.009970248,-0.010449916,0.006034851,0.0,0.0,0.0
1078.1268,460.1211,13876453,0.6375,0.12765957,0.0,0.0,0.0063809603,0.006112039,0.010261536,0.0,0.0,0.0
1078.1268,460.1211,13876473,0.65000004,0.12765957,-0.11977693,-0.05399212,0.0063809603,0.006112039,0.010261536,0.0,0.0,0.0
1078.1268,460.1211,13876490,0.6625,0.12765957,0.019609082,0.010654471,0.0063809603,0.006112039,0.010261536,0.0,0.0,0.0
1078.1268,460.1211,13876497,0.675,0.12765957,0.045772795,0.019676307,0.0063809603,0.006112039,0.010261536,0.0,0.0,0.0
1078.1268,460.1211,13876556,0.6875,0.11702127,0.015378313,0.0069625834,0.0063809603,0.006112039,0.010261536,0.0,0.0,0.0
1088.4758,436.46875,13876573,0.675,0.08510638,911.7196,-2083.745,0.0063809603,0.006112039,0.010261536,0.0,0.0,0.0
1090.659,424.42004,13876590,0.6625,0.10638297,318.26163,-1186.099,0.0063809603,0.006112039,0.010261536,0.0,0.0,0.0
1091.1227,414.26978,13876607,0.675,0.12765957,35.657803,-749.2078,0.0063809603,0.006112039,0.010261536,0.0,0.0,0.0
1089.9341,404.1947,13876623,0.675,0.11702127,-131.50116,-573.24286,0.0063809603,0.006112039,0.010261536,0.0,0.0,0.0
1085.9697,393.51526,13876640,0.6875,0.09574468,-286.77554,-500.69995,0.0063809603,0.006112039,0.010261536,0.0,0.0,0.0
1080.9548,386.963,13876657,0.7,0.08510638,-429.27856,-310.961,0.0063809603,0.006112039,0.010261536,0.0,0.0,0.0
1071.1138,378.29333,13876673,0.7,0.08510638,-552.73175,-443.94165,0.0063809603,0.006112039,0.010261536,0.0,0.0,0.0
1059.4266,372.1765,13876690,0.7,0.08510638,-807.1255,-420.10034,0.0063809603,0.006112039,0.010261536,0.0,0.0,0.0
1052.5006,369.87817,13876707,0.71250004,0.08510638,-790.24066,-251.97787,0.0063809603,0.006112039,0.010261536,0.0,0.0,0.0
1049.4843,369.49365,13876724,0.725,0.08510638,-466.7337,-10.542583,0.0063809603,0.006112039,0.010261536,0.0,0.0,0.0
1048.6365,369.49365,13876740,0.725,0.08510638,5.5449386,202.31725,0.0063809603,0.006112039,0.010261536,0.0,0.0,0.0
1050.6394,370.91797,13876757,0.71250004,0.08510638,251.49695,209.47708,0.0063809603,0.006112039,0.010261536,0.0,0.0,0.0
1060.8801,377.07898,13876774,0.7,0.08510638,518.17725,283.83865,0.0063809603,0.006112039,0.010261536,0.0,0.0,0.0
1077.4747,385.40222,13876790,0.7,0.11702127,964.237,498.6372,0.0063809603,0.006112039,0.010261536,0.0,0.0,0.0
1092.594,391.9159,13876807,0.7,0.10638297,1278.432,614.4977,0.0063809603,0.006112039,0.010261536,0.0,0.0,0.0
1104.8256,399.31714,13876824,0.7,0.10638297,1231.8887,605.09143,0.0063809603,0.006112039,0.010261536,0.0,0.0,0.0
1115.0762,404.71484,13876841,0.7,0.10638297,888.9805,453.12308,0.0063809603,0.006112039,0.010261536,0.0,0.0,0.0
1120.2252,409.1316,13876857,0.7,0.08510638,425.05695,294.22498,0.0063809603,0.006112039,0.010261536,0.0,0.0,0.0
1125.9442,422.2953,13876874,0.7,0.08510638,156.85094,419.9577,0.0063809603,0.006112039,0.010261536,0.0,0.0,0.0
1128.3351,436.25842,13876891,0.7,0.10638297,40.913746,795.8835,0.0063809603,0.006112039,0.010261536,0.0,0.0,0.0
1128.6105,447.79785,13876907,0.71250004,0.12765957,-33.69725,994.51013,0.0063809603,0.006112039,0.010261536,0.0,0.0,0.0
1128.9113,458.3523,13876924,0.71250004,0.10638297,-92.12258,904.3465,0.0063809603,0.006112039,0.010261536,0.0,0.0,0.0
1129.95,469.96436,13876941,0.725,0.08510638,-92.472176,677.3092,0.0063809603,0.006112039,0.010261536,0.0,0.0,0.0
1132.2384,482.57312,13876958,0.71250004,0.09574468,-1.2813559,603.3804,0.0063809603,0.006112039,0.010261536,0.0,0.0,0.0
1135.3718,495.70935,13876974,0.71250004,0.11702127,167.2453,759.12396,0.0063809603,0.006112039,0.010261536,0.0,0.0,0.0
1138.9456,505.00415,13876991,0.7,0.12765957,257.47537,736.9352,0.0051047653,-0.011110365,0.024209976,0.0,0.0,0.0
1142.1173,509.8922,13877008,0.71250004,0.10638297,252.83781,446.97424,0.0051047653,-0.011110365,0.024209976,0.0,0.0,0.0
1146.2651,515.4221,13877024,0.71250004,0.09574468,262.12247,220.22992,0.0051047653,-0.011110365,0.024209976,0.0,0.0,0.0
1151.5752,519.98645,13877041,0.7,0.08510638,294.13925,116.43147,0.0051047653,-0.011110365,0.024209976,0.0,0.0,0.0
1159.5807,523.64014,13877058,0.6625,0.08510638,418.33765,124.07294,0.0051047653,-0.011110365,0.024209976,0.0,0.0,0.0
1160.6,524.09326,13877064,0.38750002,0.09574468,440.37634,135.411,0.0051047653,-0.011110365,0.024209976,0.0,0.0,0.0
1160.6,524.09326,13877071,0.38750002,0.09574468,440.37634,135.411,0.0051047653,-0.011110365,0.024209976,0.0,0.0,0.0
1225.5789,441.46252,13877716,0.675,0.08510638,0.0,0.0,-0.003916204,-0.008888274,0.003367424,0.0,0.0,0.0
1225.5789,441.46252,13877743,0.675,0.08510638,-0.12998602,-0.046185125,-0.003916204,-0.008888274,0.003367424,0.0,0.0,0.0
1225.5789,441.46252,13877760,0.6625,0.08510638,0.036244147,0.010900766,-0.003916204,-0.008888274,0.003367424,0.0,0.0,0.0
1225.5789,441.46252,13877776,0.6375,0.08510638,0.09109272,0.030269833,-0.003916204,-0.008888274,0.003367424,0.0,0.0,0.0
1225.5789,441.46252,13877793,0.625,0.08510638,0.033202603,0.01454629,-0.003916204,-0.008888274,0.003367424,0.0,0.0,0.0
1202.559,434.87146,13877810,0.58750004,0.08510638,-627.4732,-185.32545,-0.003916204,-0.008888274,0.003367424,0.0,0.0,0.0
1187.4905,435.05164,13877827,0.6625,0.08510638,-1277.9817,-254.27306,-0.003916204,-0.008888274,0.003367424,0.0,0.0,0.0
1178.2114,436.8828,13877843,0.675,0.08510638,-1327.9894,-64.7138,-0.003916204,-0.008888274,0.003367424,0.0,0.0,0.0
1172.2363,439.58582,13877860,0.6875,0.09574468,-868.51245,142.07173,-0.003916204,-0.008888274,0.003367424,0.0,0.0,0.0
1168.5504,447.82837,13877877,0.675,0.10638297,17.29479,501.87836,-0.003916204,-0.008888274,0.003367424,0.0,0.0,0.0
1167.6295,463.29443,13877893,0.675,0.08510638,201.75285,851.76685,-0.003916204,-0.008888274,0.003367424,0.0,0.0,0.0
1171.8726,480.0066,13877910,0.675,0.08510638,296.8532,1143.1737,-0.003916204,-0.008888274,0.003367424,0.0,0.0,0.0
1178.2755,494.69055,13877926,0.675,0.10638297,483.54004,1296.706,-0.003916204,-0.008888274,0.003367424,0.0,0.0,0.0
1182.1167,499.8357,13877943,0.6875,0.12765957,550.1638,972.6946,-0.003916204,-0.008888274,0.003367424,0.0,0.0,0.0
1188.388,506.42236,13877960,0.6875,0.12765957,523.90356,450.59894,-0.003916204,-0.008888274,0.003367424,0.0,0.0,0.0
1197.3317,512.8502,13877977,0.6875,0.10638297,493.40796,124.8757,-0.003916204,-0.008888274,0.003367424,0.0,0.0,0.0
1209.9479,517.8391,13877993,0.675,0.09574468,663.85254,138.2359,-0.003916204,-0.008888274,0.003367424,0.0,0.0,0.0
1222.3531,518.7622,13878010,0.6625,0.09574468,906.88245,157.40437,-0.003916204,-0.008888274,0.003367424,0.0,0.0,0.0
1231.3153,516.65735,13878027,0.6625,0.12765957,847.10175,-70.629616,-0.003916204,-0.008888274,0.003367424,0.0,0.0,0.0
1240.1238,510.72168,13878043,0.6625,0.12765957,617.88135,-396.3454,-0.003916204,-0.008888274,0.003367424,0.0,0.0,0.0
1246.2451,501.7185,13878060,0.6625,0.08510638,386.37503,-656.4187,0.004867047,-0.023110628,-0.029305458,0.0,0.0,0.0
1251.4624,484.08606,13878077,0.675,0.08510638,233.95082,-977.5142,0.004867047,-0.023110628,-0.029305458,0.0,0.0,0.0
1250.5693,472.5536,13878094,0.6625,0.12765957,40.308563,-1116.695,0.004867047,-0.023110628,-0.029305458,0.0,0.0,0.0
1245.8666,461.53235,13878110,0.675,0.12765957,-276.172,-982.614,0.004867047,-0.023110628,-0.029305458,0.0,0.0,0.0
1240.6113,454.10486,13878127,0.675,0.09574468,-514.9159,-638.9724,0.004867047,-0.023110628,-0.029305458,0.0,0.0,0.0
1230.9276,444.88367,13878144,0.6875,0.08510638,-695.1672,-398.0991,0.004867047,-0.023110628,-0.029305458,0.0,0.0,0.0
1217.4004,437.09375,13878160,0.6875,0.08510638,-884.8061,-344.80487,0.004867047,-0.023110628,-0.029305458,0.0,0.0,0.0
1204.8564,433.1245,13878177,0.675,0.09574468,-963.74365,-331.10507,0.004867047,-0.023110628,-0.029305458,0.0,0.0,0.0
1195.4404,431.68896,13878194,0.7,0.08510638,-866.39343,-134.39317,0.004867047,-0.023110628,-0.029305458,0.0,0.0,0.0
1187.2169,432.17737,13878211,0.71250004,0.08510638,-599.1927,125.82837,0.004867047,-0.023110628,-0.029305458,0.0,0.0,0.0
1182.3611,434.56042,13878227,0.7,0.08510638,-306.6763,266.3599,0.004867047,-0.023110628,-0.029305458,0.0,0.0,0.0
1178.8942,438.8855,13878244,0.7,0.09574468,-130.41747,340.6745,0.004867047,-0.023110628,-0.029305458,0.0,0.0,0.0
1177.9857,445.13232,13878261,0.71250004,0.10638297,9.806927,431.27194,0.004867047,-0.023110628,-0.029305458,0.0,0.0,0.0
1180.3738,452.4923,13878277,0.6875,0.12765957,174.09735,530.0858,0.004867047,-0.023110628,-0.029305458,0.0,0.0,0.0
1184.9155,458.13477,13878294,0.675,0.11702127,342.0734,514.5516,0.004867047,-0.023110628,-0.029305458,0.0,0.0,0.0
1197.2018,467.30676,13878311,0.6875,0.08510638,660.9136,526.1702,0.004867047,-0.023110628,-0.029305458,0.0,0.0,0.0
1213.8693,473.7107,13878328,0.675,0.08510638,1049.7283,494.3716,0.004867047,-0.023110628,-0.029305458,0.0,0.0,0.0
1228.1536,476.27344,13878344,0.6875,0.08510638,1235.3127,331.3091,0.004867047,-0.023110628,-0.029305458,0.0,0.0,0.0
1242.2739,473.9104,13878361,0.6875,0.09574468,1179.1631,16.427101,0.004867047,-0.023110628,-0.029305458,0.0,0.0,0.0
1252.7225,469.09375,13878378,0.675,0.09574468,885.15015,-343.52417,0.004867047,-0.023110628,-0.029305458,0.0,0.0,0.0
1262.4738,462.24646,13878394,0.675,0.10638297,587.18976,-596.9145,0.004867047,-0.023110628,-0.029305458,0.0,0.0,0.0
1268.5319,454.84875,13878411,0.6625,0.09574468,363.54428,-642.4935,0.004867047,-0.023110628,-0.029305458,0.0,0.0,0.0
1272.1288,442.3911,13878428,0.6625,0.08510638,175.25484,-724.91486,0.004867047,-0.023110628,-0.029305458,0.0,0.0,0.0
1272.2418,431.495,13878444,0.675,0.08510638,-37.433754,-826.9864,0.004867047,-0.023110628,-0.029305458,0.0,0.0,0.0
1269.4994,423.57654,13878461,0.675,0.09574468,-255.11562,-744.70874,0.004867047,-0.023110628,-0.029305458,0.0,0.0,0.0
1267.2714,419.61597,13878478,0.6875,0.10638297,-354.55847,-447.7544,0.004867047,-0.023110628,-0.029305458,0.0,0.0,0.0
1264.2507,415.9143,13878495,0.6875,0.12765957,-342.34387,-132.2446,0.004867047,-0.023110628,-0.029305458,0.0,0.0,0.0
1262.1133,413.95996,13878511,0.7,0.12765957,-256.27045,45.495956,0.004867047,-0.023110628,-0.029305458,0.0,0.0,0.0
1261.0497,413.0304,13878528,0.6875,0.10638297,-122.00306,40.617126,0.004867047,-0.023110628,-0.029305458,0.0,0.0,0.0
1261.0674,414.01965,13878545,0.7,0.08510638,-19.561716,80.78251,0.004867047,-0.023110628,-0.029305458,0.0,0.0,0.0
1263.9619,418.0,13878561,0.7,0.08510638,114.38147,210.4387,0.004867047,-0.023110628,-0.029305458,0.0,0.0,0.0
1272.2609,429.78943,13878578,0.7,0.09574468,384.14435,547.55756,-0.0041063726,-0.002488494,0.040555,0.0,0.0,0.0
1282.3186,443.41882,13878595,0.6875,0.12765957,678.1083,922.36334,-0.0041063726,-0.002488494,0.040555,0.0,0.0,0.0
1290.7024,456.45874,13878612,0.6875,0.11702127,787.1524,1100.0371,-0.0041063726,-0.002488494,0.040555,0.0,0.0,0.0
1300.7825,475.1787,13878628,0.6875,0.09574468,710.00824,1127.6664,-0.0041063726,-0.002488494,0.040555,0.0,0.0,0.0
1309.1603,495.15845,13878645,0.6875,0.10638297,605.74097,1283.2599,-0.0041063726,-0.002488494,0.040555,0.0,0.0,0.0
1313.0311,510.08154,13878662,0.6625,0.10638297,389.64474,1229.583,-0.0041063726,-0.002488494,0.040555,0.0,0.0,0.0
1313.3159,521.78906,13878678,0.6625,0.08510638,119.273735,980.4922,-0.0041063726,-0.002488494,0.040555,0.0,0.0,0.0
1309.8553,529.95264,13878695,0.65000004,0.09574468,-262.36237,537.3626,-0.0041063726,-0.002488494,0.040555,0.0,0.0,0.0
1303.4973,536.13806,13878712,0.65000004,0.09574468,-536.1305,168.35109,-0.0041063726,-0.002488494,0.040555,0.0,0.0,0.0
1292.7653,541.77075,13878729,0.625,0.08510638,-710.21967,150.5991,-0.0041063726,-0.002488494,0.040555,0.0,0.0,0.0
1279.2843,542.75183,13878745,0.65000004,0.08510638,-941.57697,36.727894,-0.0041063726,-0.002488494,0.040555,0.0,0.0,0.0
1272.7319,540.85693,13878762,0.6625,0.08510638,-846.8603,-128.10999,-0.0041063726,-0.002488494,0.040555,0.0,0.0,0.0
1270.4575,538.1196,13878779,0.6375,0.08510638,-473.02402,-288.80164,-0.0041063726,-0.002488494,0.040555,0.0,0.0,0.0
1277.6251,533.9979,13878795,0.6125,0.08510638,160.85268,-397.07806,-0.0041063726,-0.002488494,0.040555,0.0,0.0,0.0
1287.5587,532.9783,13878801,0.25,0.11702127,527.10223,-409.57245,-0.0041063726,-0.002488494,0.040555,0.0,0.0,0.0
1287.5587,532.9783,13878809,0.25,0.11702127,527.10223,-409.57245,-0.0041063726,-0.002488494,0.040555,0.0,0.0,0.0
