x,y,timestamp,pressure,fingerarea,velocityx,velocityy,accelx,accely,accelz,gyrox,gyroy,gyroz
119.93881,305.52148,76667384,1.025,0.09574468,0.0,0.0,0.032026812,-0.0029223561,-0.022533417,0.0,0.0,0.0
119.93881,305.52148,76667410,1.1375,0.10638297,0.0015741854,0.0028339901,0.032026812,-0.0029223561,-0.022533417,0.0,0.0,0.0
117.57614,313.92114,76667427,1.1,0.08510638,-130.08601,462.47238,0.032026812,-0.0029223561,-0.022533417,0.0,0.0,0.0
110.798935,343.06067,76667444,0.96250004,0.12765957,-448.27463,1820.69,0.032026812,-0.0029223561,-0.022533417,0.0,0.0,0.0
104.78563,380.76514,76667460,0.8875,0.08510638,-544.73645,2756.2874,0.032026812,-0.0029223561,-0.022533417,0.0,0.0,0.0
102.25888,413.6139,76667477,0.8625,0.11702127,-443.2921,2954.5046,0.032026812,-0.0029223561,-0.022533417,0.0,0.0,0.0
101.44484,435.93604,76667494,0.8125,0.09574468,-198.59567,2510.094,0.032026812,-0.0029223561,-0.022533417,0.0,0.0,0.0
100.94501,456.06348,76667510,0.8,0.12765957,60.500797,1444.1464,0.032026812,-0.0029223561,-0.022533417,0.0,0.0,0.0
100.94501,473.1588,76667527,0.8125,0.09574468,127.12099,801.2213,0.032026812,-0.0029223561,-0.022533417,0.0,0.0,0.0
100.94501,487.05273,76667544,0.7375,0.09574468,77.69042,586.6793,0.032026812,-0.0029223561,-0.022533417,0.0,0.0,0.0
100.94501,496.00366,76667561,0.475,0.14893617,33.945415,458.85077,0.032026812,-0.0029223561,-0.022533417,0.0,0.0,0.0
98.445816,503.6577,76667568,0.32500002,0.15957446,-13.614912,479.91534,0.032026812,-0.0029223561,-0.022533417,0.0,0.0,0.0
98.445816,503.6577,76667575,0.32500002,0.15957446,-13.614912,479.91534,0.032026812,-0.0029223561,-0.022533417,0.0,0.0,0.0
143.931,365.05115,76668051,0.8125,0.08510638,0.0,0.0,-0.014378548,-0.018337876,-0.0020275116,0.0,0.0,0.0
143.931,365.05115,76668079,0.975,0.08510638,0.010752788,0.027775954,-0.014378548,-0.018337876,-0.0020275116,0.0,0.0,0.0
143.931,365.05115,76668095,1.0375,0.10638297,0.011827113,0.030335492,-0.014378548,-0.018337876,-0.0020275116,0.0,0.0,0.0
143.931,365.05115,76668112,1.025,0.10638297,0.0034112986,0.00877922,-0.014378548,-0.018337876,-0.0020275116,0.0,0.0,0.0
143.931,365.05115,76668129,1.0125,0.12765957,0.0037625723,0.010647181,-0.014378548,-0.018337876,-0.0020275116,0.0,0.0,0.0
145.42448,353.10474,76668145,0.96250004,0.12765957,27.385847,-219.13127,-0.014378548,-0.018337876,-0.0020275116,0.0,0.0,0.0
148.65393,337.5984,76668162,0.96250004,0.09574468,147.2633,-920.10175,-0.014378548,-0.018337876,-0.0020275116,3.355443E-6,0.0,0.0
151.78282,328.96765,76668179,0.96250004,0.09574468,246.02928,-1151.9478,-0.014378548,-0.018337876,-0.0020275116,3.355443E-6,0.0,0.0
153.90555,324.23926,76668196,0.975,0.09574468,249.7478,-761.0427,-0.014378548,-0.018337876,-0.0020275116,3.355443E-6,0.0,0.0
156.49162,319.62256,76668212,1.0125,0.08510638,172.08893,-157.92474,-0.014378548,-0.018337876,-0.0020275116,3.355443E-6,0.0,0.0
160.28809,316.911,76668229,1.0500001,0.08510638,165.1279,65.144264,-0.07550284,-0.1026703,-0.13762188,3.355443E-6,0.0,0.0
163.42532,317.07202,76668246,1.0875,0.08510638,189.90453,67.81261,-0.07550284,-0.1026703,-0.13762188,3.355443E-6,0.0,0.0
165.86447,319.37097,76668262,1.0,0.08510638,202.5518,159.74757,-0.07550284,-0.1026703,-0.13762188,3.355443E-6,0.0,0.0
169.7285,325.61206,76668279,0.95,0.08510638,206.15506,345.1545,-0.07550284,-0.1026703,-0.13762188,3.355443E-6,0.0,0.0
175.99585,338.78784,76668296,0.9125,0.10638297,296.44247,720.7083,-0.07550284,-0.1026703,-0.13762188,0.0,0.0,0.0
180.49107,352.80408,76668313,0.90000004,0.09574468,359.9747,1054.5155,-0.07550284,-0.1026703,-0.13762188,0.0,0.0,0.0
184.26207,363.1089,76668329,0.9125,0.08510638,326.78714,1049.0087,-0.07550284,-0.1026703,-0.13762188,0.0,0.0,0.0
187.41533,370.97095,76668346,0.9375,0.08510638,224.64188,758.053,-0.07550284,-0.1026703,-0.13762188,0.0,0.0,0.0
189.80203,375.51062,76668363,0.975,0.08510638,118.260864,344.63196,-0.07550284,-0.1026703,-0.13762188,0.0,0.0,0.0
192.18826,377.3557,76668379,1.025,0.08510638,87.39938,27.312675,-0.07550284,-0.1026703,-0.13762188,0.0,0.0,0.0
196.28781,376.6577,76668396,1.025,0.09574468,139.862,-144.17442,-0.07550284,-0.1026703,-0.13762188,0.0,0.0,0.0
203.98657,370.31543,76668413,0.9375,0.10638297,330.6295,-383.31766,-0.07550284,-0.1026703,-0.13762188,0.0,0.0,0.0
216.12576,354.97937,76668430,0.975,0.09574468,613.6684,-779.6521,-0.07550284,-0.1026703,-0.13762188,0.0,0.0,0.0
234.40692,318.02966,76668446,0.975,0.08510638,1022.4144,-1692.4807,-0.07550284,-0.1026703,-0.13762188,0.0,0.0,0.0
240.79303,294.1223,76668463,0.9875,0.09574468,1021.0286,-2323.3276,-0.07550284,-0.1026703,-0.13762188,0.0,0.0,0.0
245.63016,268.41797,76668480,0.9875,0.08510638,669.39594,-2369.9385,-0.07550284,-0.1026703,-0.13762188,0.0,0.0,0.0
248.31372,256.57947,76668496,0.9875,0.12765957,203.9426,-1655.0411,-0.07550284,-0.1026703,-0.13762188,0.0,0.0,0.0
249.39667,250.88379,76668513,1.0,0.12765957,-210.4021,-258.04736,-0.07550284,-0.1026703,-0.13762188,0.0,0.0,0.0
249.68082,249.54578,76668530,1.0500001,0.12765957,-168.27103,284.70242,-0.07550284,-0.1026703,-0.13762188,0.0,0.0,0.0
250.64624,249.54578,76668546,1.0875,0.11702127,-86.78488,458.43692,-0.07550284,-0.1026703,-0.13762188,0.0,0.0,0.0
251.7127,256.15173,76668563,1.0375,0.09574468,-11.523715,540.19165,-0.07550284,-0.1026703,-0.13762188,0.0,0.0,0.0
249.69571,276.02893,76668580,0.975,0.08510638,-24.527609,963.26306,-0.07550284,-0.1026703,-0.13762188,0.0,0.0,0.0
245.62949,304.76404,76668597,0.975,0.10638297,-166.24931,1687.3124,-0.07550284,-0.1026703,-0.13762188,0.0,0.0,0.0
241.92511,331.8761,76668613,0.9875,0.08510638,-333.7358,2286.7249,-0.07550284,-0.1026703,-0.13762188,0.0,0.0,0.0
240.3996,361.27954,76668630,0.96250004,0.08510638,-291.7367,2303.0427,-0.07550284,-0.1026703,-0.13762188,0.0,0.0,0.0
240.3996,387.86206,76668647,0.9125,0.10638297,-52.102036,1820.2148,-0.07550284,-0.1026703,-0.13762188,0.0,0.0,0.0
242.61185,418.15564,76668663,0.90000004,0.08510638,121.6893,1792.7395,-0.07550284,-0.1026703,-0.13762188,0.0,0.0,0.0
244.17453,440.36218,76668680,0.825,0.09574468,226.03217,1570.4835,-0.07550284,-0.1026703,-0.13762188,0.0,0.0,0.0
245.58768,461.5022,76668697,0.8125,0.09574468,207.79631,1323.0801,-0.07550284,-0.1026703,-0.13762188,0.0,0.0,0.0
247.34491,480.18384,76668714,0.75,0.07446808,123.305664,1038.869,-0.07550284,-0.1026703,-0.13762188,0.0,0.0,0.0
249.64966,492.56775,76668730,0.65000004,0.10638297,115.559685,746.6842,-0.07550284,-0.1026703,-0.13762188,0.0,0.0,0.0
249.89651,493.88416,76668734,0.375,0.14893617,116.77308,667.3747,-0.07550284,-0.1026703,-0.13762188,0.0,0.0,0.0
249.89651,493.88416,76668742,0.375,0.14893617,116.77308,667.3747,-0.07550284,-0.1026703,-0.13762188,0.0,0.0,0.0
345.36542,365.05115,76669645,0.8625,0.08510638,0.0,0.0,0.026878178,0.007891014,0.043123245,0.0,0.0,0.0
345.36542,365.05115,76669666,0.925,0.08510638,-0.079926945,-0.087278135,0.026878178,0.007891014,0.043123245,0.0,0.0,0.0
345.36542,365.05115,76669683,0.9875,0.08510638,-0.014634882,-0.014864509,0.026878178,0.007891014,0.043123245,0.0,0.0,0.0
345.36542,365.05115,76669699,1.0125,0.08510638,-0.0031925268,-0.0021276805,0.026878178,0.007891014,0.043123245,0.0,0.0,0.0
345.36542,365.05115,76669716,1.0,0.08510638,0.006932904,0.007175076,0.026878178,0.007891014,0.043123245,0.0,0.0,0.0
345.36542,365.05115,76669733,0.96250004,0.08510638,0.011331882,0.011202228,0.026878178,0.007891014,0.043123245,0.0,0.0,0.0
351.37805,383.7356,76669750,0.9125,0.10638297,201.1286,643.8986,0.026878178,0.007891014,0.043123245,0.0,0.0,0.0
354.5493,388.40125,76669766,0.90000004,0.12765957,297.8658,778.3377,0.026878178,0.007891014,0.043123245,0.0,0.0,0.0
359.81717,392.03076,76669783,0.9125,0.12765957,382.74374,632.89185,0.026878178,0.007891014,0.043123245,0.0,0.0,0.0
365.52185,394.60742,76669800,0.95,0.12765957,412.20663,278.99677,0.026878178,0.007891014,0.043123245,0.0,0.0,0.0
370.77606,394.37183,76669816,0.96250004,0.10638297,372.60596,-107.72684,-0.0024974644,0.038312808,0.03449917,0.0,0.0,0.0
376.2628,390.73877,76669833,0.925,0.08510638,354.05157,-298.1288,-0.0024974644,0.038312808,0.03449917,0.0,0.0,0.0
382.98178,380.81567,76669850,0.9375,0.08510638,369.19162,-513.2258,-0.0024974644,0.038312808,0.03449917,0.0,0.0,0.0
390.85367,361.9292,76669867,0.9375,0.10638297,455.24356,-1048.6547,-0.0024974644,0.038312808,0.03449917,0.0,0.0,0.0
392.06232,347.25366,76669883,0.95,0.09574468,355.3661,-1369.3466,-0.0024974644,0.038312808,0.03449917,0.0,0.0,0.0
388.06674,334.5902,76669900,0.96250004,0.08510638,-39.34572,-1246.5614,-0.0024974644,0.038312808,0.03449917,0.0,0.0,0.0
382.2907,326.9088,76669917,0.96250004,0.09574468,-457.51202,-744.0601,-0.0024974644,0.038312808,0.03449917,0.0,0.0,0.0
371.6932,321.7848,76669933,0.975,0.09574468,-777.7816,-268.0699,-0.0024974644,0.038312808,0.03449917,0.0,0.0,0.0
354.73724,322.333,76669950,0.9875,0.08510638,-1052.2456,68.967834,-0.0024974644,0.038312808,0.03449917,0.0,0.0,0.0
337.52875,329.69946,76669967,0.9875,0.10638297,-1265.5236,434.7324,-0.0024974644,0.038312808,0.03449917,0.0,0.0,0.0
326.22284,337.96875,76669984,1.0,0.12765957,-1169.4857,754.20874,-0.0024974644,0.038312808,0.03449917,0.0,0.0,0.0
319.27884,346.38538,76670000,1.025,0.11702127,-766.13873,845.9172,-0.0024974644,0.038312808,0.03449917,0.0,0.0,0.0
311.61444,363.66357,76670017,0.9875,0.09574468,-359.91284,1008.78503,-0.0024974644,0.038312808,0.03449917,0.0,0.0,0.0
308.97202,378.59363,76670034,0.95,0.09574468,-60.6296,1074.3698,-0.0024974644,0.038312808,0.03449917,0.0,0.0,0.0
311.0322,390.48218,76670050,0.925,0.12765957,146.58481,1037.8717,-0.0024974644,0.038312808,0.03449917,0.0,0.0,0.0
314.14655,402.44275,76670067,0.95,0.12765957,330.99985,854.89026,-0.0024974644,0.038312808,0.03449917,0.0,0.0,0.0
317.96,411.40552,76670084,0.9875,0.09574468,456.43985,581.87585,-0.0024974644,0.038312808,0.03449917,0.0,0.0,0.0
323.15933,418.5984,76670100,0.975,0.08510638,420.76547,379.6715,-0.0024974644,0.038312808,0.03449917,0.0,0.0,0.0
331.71436,427.8827,76670117,0.9875,0.08510638,478.384,349.22302,-0.0024974644,0.038312808,0.03449917,0.0,0.0,0.0
341.45343,436.37073,76670134,0.96250004,0.09574468,619.7697,417.54733,-0.0024974644,0.038312808,0.03449917,0.0,0.0,0.0
350.96536,442.1151,76670151,0.9125,0.10638297,720.5575,420.11398,-0.0024974644,0.038312808,0.03449917,0.0,0.0,0.0
363.3552,445.90393,76670167,0.85,0.11702127,765.53925,318.9277,-0.0024974644,0.038312808,0.03449917,0.0,0.0,0.0
375.10886,445.90503,76670184,0.5125,0.10638297,805.43475,32.928394,-0.0024974644,0.038312808,0.03449917,0.0,0.0,0.0
383.35306,443.2395,76670192,0.1875,0.08510638,848.00836,-106.54378,-0.0024974644,0.038312808,0.03449917,0.0,0.0,0.0
383.35306,443.2395,76670199,0.1875,0.08510638,848.00836,-106.54378,-0.0024974644,0.038312808,0.03449917,0.0,0.0,0.0
408.34494,213.11719,76670865,1.0,0.08510638,0.0,0.0,0.014002025,0.014650255,0.011598587,0.0,0.0,0.0
408.34494,213.11719,76670886,1.025,0.08510638,0.07071642,0.03410034,-0.0047983825,0.027720198,-0.07072067,0.0,0.0,0.0
408.34494,213.11719,76670903,1.0,0.08510638,-0.012408397,-0.006786932,-0.0047983825,0.027720198,-0.07072067,0.0,0.0,0.0
408.34494,213.11719,76670919,0.9125,0.08510638,0.02734485,0.0146202305,-0.0047983825,0.027720198,-0.07072067,0.0,0.0,0.0
392.30725,256.99524,76670936,0.7375,0.09574468,-668.4011,1793.238,-0.0047983825,0.027720198,-0.07072067,0.0,0.0,0.0
390.3508,262.8733,76670946,0.3,0.11702127,-782.73804,2155.883,-0.0047983825,0.027720198,-0.07072067,0.0,0.0,0.0
390.3508,262.8733,76670953,0.3,0.11702127,-782.73804,2155.883,-0.0047983825,0.027720198,-0.07072067,0.0,0.0,0.0
446.8324,453.9015,76672331,0.85,0.10638297,0.0,0.0,0.016129047,0.024140924,0.00593853,0.0,0.0,0.0
446.8324,453.9015,76672356,0.96250004,0.10638297,0.013596704,0.012619693,0.016129047,0.024140924,0.00593853,0.0,0.0,0.0
446.8324,453.9015,76672373,1.0125,0.12765957,0.035884976,0.032899793,0.016129047,0.024140924,0.00593853,0.0,0.0,0.0
446.8324,453.9015,76672384,1.0125,0.10638297,0.045567796,0.04941961,0.016129047,0.024140924,0.00593853,0.0,0.0,0.0
446.8324,453.9015,76672406,0.975,0.08510638,-0.002402095,-0.0039108656,0.016129047,0.024140924,0.00593853,0.0,0.0,0.0
455.59442,439.21472,76672423,0.96250004,0.08510638,251.70639,-418.69333,0.016129047,0.024140924,0.00593853,0.0,0.0,0.0
465.59015,421.44653,76672440,0.925,0.12765957,597.5567,-1031.0787,0.016129047,0.024140924,0.00593853,0.0,0.0,0.0
478.8794,396.38074,76672457,0.95,0.09574468,929.6503,-1673.7311,0.016129047,0.024140924,0.00593853,0.0,0.0,0.0
492.82446,370.6421,76672473,0.96250004,0.10638297,1073.4313,-1991.2611,0.016129047,0.024140924,0.00593853,0.0,0.0,0.0
510.44574,336.8053,76672490,0.9375,0.08510638,1084.611,-2075.2234,0.004903227,-0.028687261,0.0047512054,0.0,0.0,0.0
521.6819,309.2456,76672507,0.95,0.10638297,1019.1965,-2120.0603,0.004903227,-0.028687261,0.0047512054,0.0,0.0,0.0
527.18304,287.46497,76672523,0.9375,0.11702127,678.4215,-1826.8684,0.004903227,-0.028687261,0.0047512054,0.0,0.0,0.0
529.8371,270.61572,76672540,0.9375,0.09574468,172.66075,-1197.4911,0.004903227,-0.028687261,0.0047512054,0.0,0.0,0.0
529.80536,260.8468,76672557,0.9375,0.11702127,-196.1037,-578.91833,0.004903227,-0.028687261,0.0047512054,0.0,0.0,0.0
528.7227,254.43408,76672574,0.96250004,0.12765957,-340.99762,-120.07825,0.004903227,-0.028687261,0.0047512054,0.0,0.0,0.0
526.50464,250.7865,76672590,0.975,0.12765957,-276.07574,24.414635,0.004903227,-0.028687261,0.0047512054,0.0,0.0,0.0
524.9731,249.24915,76672607,1.0,0.12765957,-235.7279,157.95909,0.004903227,-0.028687261,0.0047512054,0.0,0.0,0.0
523.1111,248.65723,76672624,1.0375,0.10638297,-188.80869,177.36494,0.004903227,-0.028687261,0.0047512054,0.0,0.0,0.0
521.55597,249.54822,76672640,1.0375,0.10638297,-117.65401,135.4849,0.004903227,-0.028687261,0.0047512054,0.0,0.0,0.0
519.24133,255.1167,76672657,0.9875,0.08510638,-116.812256,269.4076,0.004903227,-0.028687261,0.0047512054,0.0,0.0,0.0
517.48376,266.03516,76672674,0.9125,0.08510638,-126.25088,580.46423,0.004903227,-0.028687261,0.0047512054,0.0,0.0,0.0
515.9465,277.41003,76672691,0.90000004,0.09574468,-109.35017,879.1611,0.004903227,-0.028687261,0.0047512054,0.0,0.0,0.0
515.80994,290.75964,76672707,0.8875,0.12765957,-57.46586,1005.31946,0.004903227,-0.028687261,0.0047512054,0.0,0.0,0.0
516.75574,302.28113,76672724,0.875,0.09574468,41.762676,958.9104,0.004903227,-0.028687261,0.0047512054,0.0,0.0,0.0
518.28436,310.76453,76672741,0.90000004,0.08510638,118.693924,729.22174,0.004903227,-0.028687261,0.0047512054,0.0,0.0,0.0
520.8982,318.17358,76672757,0.9125,0.08510638,185.23839,468.55325,0.004903227,-0.028687261,0.0047512054,0.0,0.0,0.0
523.44006,322.6388,76672774,0.975,0.08510638,217.75679,264.75034,0.004903227,-0.028687261,0.0047512054,0.0,0.0,0.0
524.9146,326.14832,76672791,1.0125,0.11702127,180.03973,112.19619,0.004903227,-0.028687261,0.0047512054,0.0,0.0,0.0
527.12305,328.0155,76672808,1.0125,0.11702127,137.36568,30.10429,0.004903227,-0.028687261,0.0047512054,0.0,0.0,0.0
529.9768,327.43567,76672824,1.0375,0.11702127,125.63235,-71.36655,0.004903227,-0.028687261,0.0047512054,0.0,0.0,0.0
533.94714,325.57617,76672841,1.025,0.09574468,199.97406,-175.4854,0.004903227,-0.028687261,0.0047512054,0.0,0.0,0.0
537.59314,323.7119,76672858,1.025,0.08510638,271.30502,-225.23683,0.004903227,-0.028687261,0.0047512054,0.0,0.0,0.0
539.9087,321.864,76672874,1.0375,0.08510638,239.24744,-205.39294,0.004903227,-0.028687261,0.0047512054,0.0,0.0,0.0
541.97815,321.51453,76672891,1.0500001,0.10638297,145.9753,-122.78126,0.004903227,-0.028687261,0.0047512054,0.0,0.0,0.0
543.99646,321.51453,76672908,1.0625,0.08510638,75.56689,-11.900837,0.004903227,-0.028687261,0.0047512054,0.0,0.0,0.0
546.13965,322.2605,76672924,1.075,0.10638297,80.16083,57.27846,0.004903227,-0.028687261,0.0047512054,0.0,0.0,0.0
548.2264,324.1151,76672941,1.0625,0.10638297,106.17988,125.620384,0.004903227,-0.028687261,0.0047512054,0.0,0.0,0.0
551.3162,327.75513,76672958,0.9875,0.09574468,156.0007,209.48325,0.004903227,-0.028687261,0.0047512054,0.0,0.0,0.0
554.98157,332.42224,76672975,0.975,0.10638297,204.00897,297.62643,0.004903227,-0.028687261,0.0047512054,0.0,0.0,0.0
559.7271,339.00952,76672991,0.95,0.10638297,273.70465,412.5812,0.004903227,-0.028687261,0.0047512054,0.0,0.0,0.0
564.4565,347.56958,76673008,0.95,0.09574468,324.91425,530.32,0.004903227,-0.028687261,0.0047512054,0.0,0.0,0.0
573.4442,366.797,76673025,0.925,0.08510638,459.58536,907.712,0.011922583,-0.022949807,0.019800186,0.0,0.0,0.0
575.48645,382.24487,76673041,0.95,0.10638297,405.77347,1190.0302,0.011922583,-0.022949807,0.019800186,0.0,0.0,0.0
575.7904,395.9613,76673058,0.9375,0.12765957,149.76613,1184.2059,0.011922583,-0.022949807,0.019800186,0.0,0.0,0.0
574.7279,408.92285,76673075,0.9375,0.10638297,-117.99255,957.14166,0.011922583,-0.022949807,0.019800186,0.0,0.0,0.0
572.04767,420.45288,76673092,0.95,0.08510638,-304.50305,652.7842,0.011922583,-0.022949807,0.019800186,0.0,0.0,0.0
567.8635,431.31006,76673108,0.96250004,0.08510638,-335.73007,588.24097,0.011922583,-0.022949807,0.019800186,0.0,0.0,0.0
562.92303,438.792,76673125,0.975,0.09574468,-365.73303,474.83563,0.011922583,-0.022949807,0.019800186,0.0,0.0,0.0
559.0941,442.9745,76673142,0.975,0.10638297,-360.88797,277.6017,0.011922583,-0.022949807,0.019800186,0.0,0.0,0.0
553.9274,446.70105,76673158,0.96250004,0.12765957,-326.90234,109.664856,0.011922583,-0.022949807,0.019800186,0.0,0.0,0.0
546.0704,450.4496,76673175,0.9125,0.12765957,-388.82956,48.89562,0.011922583,-0.022949807,0.019800186,0.0,0.0,0.0
533.9942,454.12292,76673192,0.9375,0.12765957,-610.4241,107.05157,0.011922583,-0.022949807,0.019800186,0.0,0.0,0.0
521.6833,455.8601,76673209,0.96250004,0.10638297,-845.627,128.70935,0.011922583,-0.022949807,0.019800186,0.0,0.0,0.0
513.1301,456.82935,76673225,0.975,0.10638297,-838.451,77.301674,0.011922583,-0.022949807,0.019800186,0.0,0.0,0.0
509.23132,456.56702,76673242,0.96250004,0.10638297,-534.1851,-23.15836,0.011922583,-0.022949807,0.019800186,0.0,0.0,0.0
507.1043,456.56702,76673259,0.90000004,0.10638297,-150.5061,-76.12753,0.011922583,-0.022949807,0.019800186,0.0,0.0,0.0
505.05933,462.80115,76673275,0.6375,0.09574468,103.53709,118.3635,0.011922583,-0.022949807,0.019800186,0.0,0.0,0.0
504.81354,463.67505,76673279,0.22500001,0.07446808,112.716995,163.001,0.011922583,-0.022949807,0.019800186,0.0,0.0,0.0
504.81354,463.67505,76673287,0.22500001,0.07446808,112.716995,163.001,0.011922583,-0.022949807,0.019800186,0.0,0.0,0.0
641.7689,358.83167,76674180,0.71250004,0.11702127,0.0,0.0,0.0012304485,-0.011487879,0.031871796,0.0,0.0,0.0
641.7689,358.83167,76674211,0.875,0.11702127,-0.019720826,-0.014348533,0.0012304485,-0.011487879,0.031871796,0.0,0.0,0.0
641.7689,358.83167,76674228,0.9125,0.12765957,-0.010339605,-0.0064764135,0.0012304485,-0.011487879,0.031871796,0.0,0.0,0.0
641.7689,358.83167,76674245,0.9375,0.12765957,0.0013475214,0.0018605432,0.0012304485,-0.011487879,0.031871796,0.0,0.0,0.0
641.7689,358.83167,76674261,0.9125,0.12765957,0.0109234825,0.004899018,0.0012304485,-0.011487879,0.031871796,0.0,0.0,0.0
641.7689,358.83167,76674278,0.9125,0.11702127,-0.02532888,-0.014261899,0.0012304485,-0.011487879,0.031871796,0.0,0.0,0.0
642.655,338.31543,76674295,0.9125,0.09574468,20.388102,-553.8467,0.0012304485,-0.011487879,0.031871796,0.0,0.0,0.0
645.18195,325.7799,76674311,0.925,0.09574468,101.55176,-1117.208,0.0012304485,-0.011487879,0.031871796,0.0,0.0,0.0
649.5822,314.2505,76674328,0.9125,0.10638297,246.8944,-1191.6729,0.0012304485,-0.011487879,0.031871796,0.0,0.0,0.0
656.0725,304.30566,76674345,0.90000004,0.12765957,399.4293,-763.89136,0.0012304485,-0.011487879,0.031871796,0.0,0.0,0.0
667.1306,291.3717,76674362,0.925,0.09574468,630.911,-492.80106,0.0012304485,-0.011487879,0.031871796,0.0,0.0,0.0
678.6019,280.68787,76674378,0.925,0.08510638,824.21466,-673.2687,0.0012304485,-0.011487879,0.031871796,0.0,0.0,0.0
688.12506,273.90784,76674395,0.925,0.09574468,839.5203,-579.7652,0.0012304485,-0.011487879,0.031871796,0.0,0.0,0.0
696.5698,269.18494,76674412,0.95,0.09574468,703.5933,-361.9833,0.0012304485,-0.011487879,0.031871796,0.0,0.0,0.0
704.35284,268.20435,76674428,0.925,0.08510638,475.94086,-31.63972,0.0012304485,-0.011487879,0.031871796,0.0,0.0,0.0
711.73206,270.08923,76674445,0.925,0.08510638,369.41412,209.96082,0.0012304485,-0.011487879,0.031871796,0.0,0.0,0.0
717.9462,273.9513,76674462,0.95,0.09574468,335.7319,357.02277,0.0012304485,-0.011487879,0.031871796,0.0,0.0,0.0
723.38995,278.89856,76674479,0.9125,0.10638297,312.87775,446.56122,0.0012304485,-0.011487879,0.031871796,0.0,0.0,0.0
728.75543,286.58875,76674495,0.90000004,0.12765957,286.6288,532.62366,0.0012304485,-0.011487879,0.031871796,0.0,0.0,0.0
736.9336,302.135,76674512,0.90000004,0.08510638,349.72772,770.3389,0.0012304485,-0.011487879,0.031871796,0.0,0.0,0.0
742.24854,317.1156,76674529,0.90000004,0.09574468,404.06476,1087.1171,0.0012304485,-0.011487879,0.031871796,0.0,0.0,0.0
745.61523,331.3833,76674545,0.8875,0.11702127,316.04755,1179.1302,0.0012304485,-0.011487879,0.031871796,0.0,0.0,0.0
747.2346,345.83093,76674562,0.875,0.12765957,140.07341,1055.3959,0.0012304485,-0.011487879,0.031871796,0.0,0.0,0.0
748.0883,359.42175,76674579,0.8875,0.09574468,-44.6777,849.21515,0.0012304485,-0.011487879,0.031871796,0.0,0.0,0.0
746.91187,374.45398,76674596,0.8875,0.09574468,-131.74951,802.4569,0.0012304485,-0.011487879,0.031871796,0.0,0.0,0.0
744.3855,387.61926,76674612,0.8875,0.10638297,-190.68002,847.84106,0.0012304485,-0.011487879,0.031871796,0.0,0.0,0.0
739.3085,400.44336,76674629,0.875,0.12765957,-304.40723,801.6222,-0.015015632,0.0388097,0.025497437,0.0,0.0,0.0
732.4907,414.42395,76674646,0.8625,0.08510638,-449.9855,772.394,-0.015015632,0.0388097,0.025497437,0.0,0.0,0.0
725.2273,429.1797,76674662,0.8875,0.08510638,-550.1068,816.35364,-0.015015632,0.0388097,0.025497437,0.0,0.0,0.0
718.47253,440.16785,76674679,0.875,0.10638297,-543.1111,778.3097,-0.015015632,0.0388097,0.025497437,0.0,0.0,0.0
713.0898,446.60437,76674696,0.85,0.12765957,-451.2966,585.48883,-0.015015632,0.0388097,0.025497437,0.0,0.0,0.0
705.7426,454.68506,76674712,0.85,0.11702127,-385.97455,369.59232,-0.015015632,0.0388097,0.025497437,0.0,0.0,0.0
697.1906,463.932,76674729,0.8875,0.08510638,-438.60455,322.9256,-0.015015632,0.0388097,0.025497437,0.0,0.0,0.0
687.53864,473.19568,76674746,0.875,0.08510638,-569.9221,476.42654,-0.015015632,0.0388097,0.025497437,0.0,0.0,0.0
677.1592,482.4209,76674763,0.875,0.08510638,-679.4099,589.58167,-0.015015632,0.0388097,0.025497437,0.0,0.0,0.0
665.7533,491.0465,76674779,0.8875,0.08510638,-728.62787,583.4763,-0.015015632,0.0388097,0.025497437,0.0,0.0,0.0
655.8601,496.78918,76674796,0.8875,0.11702127,-694.20575,436.9724,-0.015015632,0.0388097,0.025497437,0.0,0.0,0.0
648.2161,499.97058,76674813,0.9125,0.11702127,-589.23315,255.06317,-0.015015632,0.0388097,0.025497437,0.0,0.0,0.0
643.8905,500.10364,76674829,0.925,0.10638297,-360.4623,12.111196,-0.015015632,0.0388097,0.025497437,0.0,0.0,0.0
641.2527,500.10364,76674846,0.9375,0.10638297,-114.82776,-149.19945,-0.015015632,0.0388097,0.025497437,0.0,0.0,0.0
639.7282,499.14172,76674863,0.9375,0.08510638,31.086014,-189.18591,-0.015015632,0.0388097,0.025497437,0.0,0.0,0.0
641.0429,486.20544,76674880,0.95,0.09574468,131.22357,-475.7138,-0.015015632,0.0388097,0.025497437,0.0,0.0,0.0
649.3131,466.73303,76674896,0.95,0.12765957,371.7388,-1031.0841,-0.015015632,0.0388097,0.025497437,0.0,0.0,0.0
658.40283,454.6908,76674913,0.975,0.09574468,630.95166,-1287.2985,-0.015015632,0.0388097,0.025497437,0.0,0.0,0.0
671.9357,441.93274,76674930,0.95,0.08510638,926.628,-1248.1239,-0.015015632,0.0388097,0.025497437,0.0,0.0,0.0
685.1872,433.05176,76674946,0.9375,0.09574468,1063.7473,-731.29645,-0.015015632,0.0388097,0.025497437,0.0,0.0,0.0
696.59686,429.40625,76674963,0.925,0.09574468,946.03345,-262.94586,-0.015015632,0.0388097,0.025497437,0.0,0.0,0.0
706.72363,429.51233,76674980,0.9375,0.08510638,743.49414,53.44277,-0.015015632,0.0388097,0.025497437,0.0,0.0,0.0
715.64496,433.62158,76674997,0.9375,0.08510638,508.68512,410.59512,-0.015015632,0.0388097,0.025497437,0.0,0.0,0.0
723.5507,439.1587,76675013,0.96250004,0.09574468,406.28397,582.6298,-0.015015632,0.0388097,0.025497437,0.0,0.0,0.0
730.8127,444.69104,76675030,0.96250004,0.10638297,365.82,586.88763,-0.015015632,0.0388097,0.025497437,0.0,0.0,0.0
736.6557,448.5121,76675047,0.96250004,0.12765957,330.85117,473.4146,-0.015015632,0.0388097,0.025497437,0.0,0.0,0.0
741.7756,453.94324,76675063,0.925,0.12765957,271.69742,332.76877,-0.015015632,0.0388097,0.025497437,0.0,0.0,0.0
747.5569,459.51892,76675080,0.9375,0.11702127,261.601,299.54236,-0.015015632,0.0388097,0.025497437,0.0,0.0,0.0
753.8017,464.99707,76675097,0.9125,0.08510638,298.4962,329.20233,-0.015015632,0.0388097,0.025497437,0.0,0.0,0.0
760.5382,470.6123,76675114,0.875,0.08510638,375.74365,358.71234,-0.015015632,0.0388097,0.025497437,0.0,0.0,0.0
769.66785,477.0741,76675130,0.8,0.06382979,495.09064,383.27167,-0.015015632,0.0388097,0.025497437,0.0,0.0,0.0
778.0732,482.24402,76675147,0.725,0.06382979,569.28613,359.34006,-0.015015632,0.0388097,0.025497437,0.0,0.0,0.0
781.74554,484.5746,76675164,0.4125,0.08510638,448.66754,248.61632,-0.044012517,-0.016952239,-0.07560158,0.0,0.0,0.0
782.2232,484.99915,76675167,0.2125,0.06382979,400.6228,218.21523,-0.044012517,-0.016952239,-0.07560158,0.0,0.0,0.0
782.2232,484.99915,76675175,0.2125,0.06382979,400.6228,218.21523,-0.044012517,-0.016952239,-0.07560158,0.0,0.0,0.0
704.2486,366.82825,76675425,0.8125,0.09574468,0.0,0.0,-0.044012517,-0.016952239,-0.07560158,0.0,0.0,0.0
704.2486,366.82825,76675448,0.925,0.09574468,0.02215089,0.007067581,-0.044012517,-0.016952239,-0.07560158,0.0,0.0,0.0
704.2486,366.82825,76675464,1.0,0.11702127,-0.028198507,-0.015956005,-0.044012517,-0.016952239,-0.07560158,0.0,0.0,0.0
704.2486,366.82825,76675481,0.9875,0.10638297,-0.033041216,-0.018204661,-0.044012517,-0.016952239,-0.07560158,0.0,0.0,0.0
704.2486,366.82825,76675498,0.925,0.09574468,0.0018457762,0.001869993,-0.044012517,-0.016952239,-0.07560158,0.0,0.0,0.0
730.00934,365.9397,76675515,0.875,0.10638297,864.0224,-32.233276,-0.044012517,-0.016952239,-0.07560158,0.0,0.0,0.0
740.7773,367.28455,76675531,0.85,0.09574468,1252.5734,1.5169234,-0.044012517,-0.016952239,-0.07560158,0.0,0.0,0.0
754.0192,369.80627,76675548,0.77500004,0.08510638,1260.1985,101.89884,-0.044012517,-0.016952239,-0.07560158,0.0,0.0,0.0
765.22876,373.04773,76675562,0.4125,0.08510638,1188.3049,210.17084,-0.044012517,-0.016952239,-0.07560158,0.0,0.0,0.0
765.22876,373.04773,76675568,0.4125,0.08510638,1188.3049,210.17084,-0.044012517,-0.016952239,-0.07560158,0.0,0.0,0.0
978.1594,335.7306,76676631,0.725,0.09574468,0.0,0.0,0.0038319975,0.017950565,0.05721569,0.0,0.0,0.0
978.1594,335.7306,76676651,0.8,0.09574468,0.076729335,0.02079209,0.0038319975,0.017950565,0.05721569,0.0,0.0,0.0
978.1594,335.7306,76676668,0.8625,0.09574468,-0.05100208,-0.01972557,0.0038319975,0.017950565,0.05721569,0.0,0.0,0.0
978.1594,335.7306,76676684,0.875,0.09574468,0.013805399,0.003326581,0.0038319975,0.017950565,0.05721569,0.0,0.0,0.0
978.1594,335.7306,76676701,0.875,0.09574468,-0.016507816,-0.0044755074,0.0038319975,0.017950565,0.05721569,0.0,0.0,0.0
978.1594,335.7306,76676715,0.8625,0.09574468,-0.050381295,-0.016263846,0.0038319975,0.017950565,0.05721569,0.0,0.0,0.0
949.3636,332.1765,76676751,0.8625,0.08510638,-854.96106,-113.66588,0.0038319975,0.017950565,0.05721569,0.0,0.0,0.0
933.8217,333.15967,76676768,0.875,0.09574468,-1314.002,-76.864555,0.019065589,0.030360445,0.0137729645,0.0,0.0,0.0
918.37933,336.06055,76676785,0.8875,0.10638297,-1407.8477,87.27785,0.019065589,0.030360445,0.0137729645,0.0,0.0,0.0
899.6521,344.11365,76676801,0.9125,0.10638297,-1302.0427,369.06625,0.019065589,0.030360445,0.0137729645,0.0,0.0,0.0
881.6618,355.4004,76676818,0.925,0.10638297,-939.3566,782.9735,0.019065589,0.030360445,0.0137729645,0.0,0.0,0.0
868.67377,368.92664,76676835,0.9375,0.09574468,-874.719,963.7958,0.019065589,0.030360445,0.0137729645,0.0,0.0,0.0
856.4541,382.8153,76676851,0.925,0.10638297,-791.5344,1070.2812,0.019065589,0.030360445,0.0137729645,0.0,0.0,0.0
847.66534,392.51428,76676868,0.925,0.10638297,-520.1502,899.0859,0.019065589,0.030360445,0.0137729645,0.0,0.0,0.0
840.06305,406.45154,76676885,0.925,0.09574468,-335.76373,751.4212,0.019065589,0.030360445,0.0137729645,0.0,0.0,0.0
836.468,417.85046,76676902,0.9125,0.08510638,-190.69568,694.0422,0.019065589,0.030360445,0.0137729645,0.0,0.0,0.0
835.29803,428.93005,76676918,0.925,0.08510638,5.4442854,659.1508,0.019065589,0.030360445,0.0137729645,0.0,0.0,0.0
835.637,438.18542,76676935,0.9125,0.09574468,146.19615,613.81934,0.019065589,0.030360445,0.0137729645,0.0,0.0,0.0
837.18304,445.8258,76676952,0.90000004,0.10638297,239.89961,479.36584,0.019065589,0.030360445,0.0137729645,0.0,0.0,0.0
840.7877,455.9259,76676968,0.9125,0.12765957,291.8743,445.75974,0.019065589,0.030360445,0.0137729645,0.0,0.0,0.0
843.3412,461.25452,76676985,0.9125,0.10638297,284.15076,405.49298,0.019065589,0.030360445,0.0137729645,0.0,0.0,0.0
847.6561,466.94592,76677002,0.9375,0.09574468,293.9093,313.5899,0.019065589,0.030360445,0.0137729645,0.0,0.0,0.0
854.20844,471.3805,76677018,0.9375,0.09574468,353.62625,226.7839,0.019065589,0.030360445,0.0137729645,0.0,0.0,0.0
863.2748,473.8589,76677035,0.9375,0.11702127,480.88727,122.5858,0.019065589,0.030360445,0.0137729645,0.0,0.0,0.0
875.25854,470.08752,76677052,0.9125,0.09574468,725.1693,-73.80794,0.019065589,0.030360445,0.0137729645,0.0,0.0,0.0
895.1637,458.63953,76677069,0.90000004,0.12765957,1105.6554,-537.71027,0.019065589,0.030360445,0.0137729645,0.0,0.0,0.0
912.0245,443.19116,76677085,0.90000004,0.09574468,1341.0795,-1058.0192,0.019065589,0.030360445,0.0137729645,0.0,0.0,0.0
928.1595,423.21252,76677102,0.90000004,0.10638297,1294.4429,-1457.0852,0.019065589,0.030360445,0.0137729645,0.0,0.0,0.0
942.6587,404.43542,76677119,0.90000004,0.09574468,1039.4686,-1549.5846,0.019065589,0.030360445,0.0137729645,0.0,0.0,0.0
952.93146,387.68347,76677135,0.90000004,0.08510638,705.81934,-1357.0714,0.019065589,0.030360445,0.0137729645,0.0,0.0,0.0
958.97754,376.0476,76677152,0.8875,0.11702127,398.33414,-1000.0679,0.019065589,0.030360445,0.0137729645,0.0,0.0,0.0
962.6658,367.7119,76677169,0.90000004,0.11702127,138.6676,-546.4712,0.019065589,0.030360445,0.0137729645,0.0,0.0,0.0
963.1643,365.86206,76677186,0.9375,0.11702127,-105.64096,-104.0618,0.019065589,0.030360445,0.0137729645,0.0,0.0,0.0
963.1643,364.60693,76677197,0.95,0.11702127,-200.42102,111.12889,0.019065589,0.030360445,0.0137729645,0.0,0.0,0.0
961.89,367.3164,76677219,0.9375,0.08510638,-217.1782,338.47815,0.019065589,0.030360445,0.0137729645,0.0,0.0,0.0
957.5392,378.27258,76677236,0.925,0.08510638,-283.37686,601.1185,0.019065589,0.030360445,0.0137729645,0.0,0.0,0.0
954.2757,387.2262,76677252,0.9125,0.09574468,-317.91586,788.7057,0.019065589,0.030360445,0.0137729645,0.0,0.0,0.0
952.436,396.84326,76677269,0.9125,0.10638297,-264.33716,860.95294,0.019065589,0.030360445,0.0137729645,0.0,0.0,0.0
952.1679,407.0736,76677286,0.90000004,0.10638297,-117.76115,780.3353,0.019065589,0.030360445,0.0137729645,0.0,0.0,0.0
953.29816,416.72034,76677303,0.9125,0.08510638,81.242195,624.7694,-7.4753165E-4,0.04028836,0.04301834,0.0,0.0,0.0
955.3836,425.35144,76677319,0.8625,0.08510638,189.697,569.71533,-7.4753165E-4,0.04028836,0.04301834,0.0,0.0,0.0
958.359,432.92053,76677336,0.8625,0.08510638,243.57191,484.0099,-7.4753165E-4,0.04028836,0.04301834,0.0,0.0,0.0
960.9623,438.4369,76677353,0.8625,0.10638297,246.20915,350.92783,-7.4753165E-4,0.04028836,0.04301834,0.0,0.0,0.0
963.1427,442.31262,76677369,0.8125,0.11702127,212.80771,228.26358,-7.4753165E-4,0.04028836,0.04301834,0.0,0.0,0.0
967.2395,447.7909,76677386,0.7375,0.12765957,198.23282,177.46182,-7.4753165E-4,0.04028836,0.04301834,0.0,0.0,0.0
974.548,454.95264,76677403,0.4875,0.10638297,330.29114,275.50323,-7.4753165E-4,0.04028836,0.04301834,0.0,0.0,0.0
981.15845,462.7865,76677410,0.175,0.07446808,443.42972,401.0073,-7.4753165E-4,0.04028836,0.04301834,0.0,0.0,0.0
981.15845,462.7865,76677417,0.175,0.07446808,443.42972,401.0073,-7.4753165E-4,0.04028836,0.04301834,0.0,0.0,0.0
909.6817,213.11719,76677846,0.95,0.09574468,0.0,0.0,-0.016598023,-0.015769303,0.0024147034,0.0,0.0,0.0
909.6817,213.11719,76677871,1.025,0.09574468,-0.12891401,-0.031027863,-0.016598023,-0.015769303,0.0024147034,0.0,0.0,0.0
909.6817,213.11719,76677887,0.96250004,0.09574468,0.030085059,0.005425008,-0.016598023,-0.015769303,0.0024147034,0.0,0.0,0.0
909.6817,213.11719,76677904,0.825,0.09574468,0.017072069,0.004165987,-0.016598023,-0.015769303,0.0024147034,0.0,0.0,0.0
926.04236,242.67322,76677921,0.71250004,0.10638297,584.5412,1028.6239,-0.016598023,-0.015769303,0.0024147034,0.0,0.0,0.0
936.1731,269.98132,76677933,0.3,0.10638297,973.3732,1968.212,-0.016598023,-0.015769303,0.0024147034,0.0,0.0,0.0
936.1731,269.98132,76677941,0.3,0.10638297,973.3732,1968.212,-0.016598023,-0.015769303,0.0024147034,0.0,0.0,0.0
1026.6437,474.33704,76678698,0.90000004,0.09574468,0.0,0.0,0.0027215779,0.019384548,0.049931526,0.0,0.0,0.0
1026.6437,474.33704,76678723,0.95,0.11702127,0.023693258,0.009223533,0.0027215779,0.019384548,0.049931526,0.0,0.0,0.0
1026.6437,474.33704,76678740,0.925,0.11702127,0.024670307,0.008773515,0.0027215779,0.019384548,0.049931526,0.0,0.0,0.0
1026.6437,474.33704,76678756,0.8875,0.12765957,-0.011445861,-0.008325238,0.0027215779,0.019384548,0.049931526,0.0,0.0,0.0
1026.6437,474.33704,76678773,0.8625,0.12765957,-0.01905952,-0.010728219,0.0027215779,0.019384548,0.049931526,0.0,0.0,0.0
1030.1425,444.65112,76678790,0.8875,0.09574468,122.80417,-967.49866,0.0027215779,0.019384548,0.049931526,0.0,0.0,0.0
1030.3796,425.7091,76678806,0.8875,0.09574468,137.49986,-1623.6655,0.0027215779,0.019384548,0.049931526,0.0,0.0,0.0
1029.838,407.61853,76678823,0.875,0.12765957,42.930336,-1752.9562,0.0027215779,0.019384548,0.049931526,0.0,0.0,0.0
1028.643,386.4779,76678840,0.8875,0.09574468,-75.26059,-1515.3547,0.0027215779,0.019384548,0.049931526,0.0,0.0,0.0
1028.2797,365.6997,76678857,0.875,0.11702127,-130.87032,-1176.581,0.0027215779,0.019384548,0.049931526,0.0,0.0,0.0
1029.8496,347.06555,76678873,0.90000004,0.11702127,-23.289537,-1253.0209,0.0027215779,0.019384548,0.049931526,0.0,0.0,0.0
1033.9246,330.20422,76678890,0.8875,0.09574468,155.0883,-1136.6039,0.0027215779,0.019384548,0.049931526,0.0,0.0,0.0
1038.6315,319.75732,76678907,0.8875,0.08510638,339.5077,-808.06165,0.026177257,0.015507638,0.007945061,0.0,0.0,0.0
1045.9448,310.5111,76678923,0.90000004,0.12765957,476.09506,-462.62323,0.026177257,0.015507638,0.007945061,0.0,0.0,0.0
1055.363,304.2013,76678940,0.90000004,0.12765957,607.4975,-252.05074,0.026177257,0.015507638,0.007945061,0.0,0.0,0.0
1062.9867,303.7445,76678957,0.9375,0.12765957,626.42285,-5.704671,0.026177257,0.015507638,0.007945061,0.0,0.0,0.0
1069.9607,304.97083,76678974,0.925,0.11702127,551.86694,197.54326,0.026177257,0.015507638,0.007945061,0.0,0.0,0.0
1076.3142,308.00134,76678990,0.925,0.11702127,440.79956,351.32523,0.026177257,0.015507638,0.007945061,0.0,0.0,0.0
1082.5564,313.01245,76679007,0.9125,0.09574468,330.93234,453.1862,0.026177257,0.015507638,0.007945061,0.0,0.0,0.0
1087.2408,318.56055,76679024,0.8875,0.08510638,305.58228,457.95572,0.026177257,0.015507638,0.007945061,0.0,0.0,0.0
1091.2936,324.85217,76679040,0.8875,0.10638297,239.10558,468.11682,0.026177257,0.015507638,0.007945061,0.0,0.0,0.0
1095.6625,332.25,76679057,0.90000004,0.12765957,174.04616,463.22812,0.026177257,0.015507638,0.007945061,0.0,0.0,0.0
1098.7651,341.57715,76679074,0.9125,0.12765957,166.71164,547.9571,0.026177257,0.015507638,0.007945061,0.0,0.0,0.0
1100.0352,350.23352,76679091,0.90000004,0.10638297,114.84358,598.9761,0.026177257,0.015507638,0.007945061,0.0,0.0,0.0
1100.1198,358.6128,76679107,0.90000004,0.08510638,17.151758,594.9786,0.026177257,0.015507638,0.007945061,0.0,0.0,0.0
1100.1198,367.10388,76679124,0.9125,0.08510638,-75.63885,527.1377,0.026177257,0.015507638,0.007945061,0.0,0.0,0.0
1099.0812,375.1007,76679141,0.8875,0.08510638,-117.97539,487.29245,0.026177257,0.015507638,0.007945061,0.0,0.0,0.0
1098.6202,382.7019,76679157,0.90000004,0.10638297,-95.6831,476.0905,0.026177257,0.015507638,0.007945061,0.0,0.0,0.0
1099.2502,388.84705,76679174,0.90000004,0.12765957,-36.836094,423.49173,0.026177257,0.015507638,0.007945061,0.0,0.0,0.0
1100.2887,395.57312,76679191,0.875,0.12765957,38.76489,366.42444,0.026177257,0.015507638,0.007945061,0.0,0.0,0.0
1101.5443,402.99036,76679208,0.875,0.10638297,98.55134,365.57144,0.026177257,0.015507638,0.007945061,0.0,0.0,0.0
1103.3718,409.93787,76679224,0.90000004,0.08510638,138.28128,417.7437,0.026177257,0.015507638,0.007945061,0.0,0.0,0.0
1105.1902,416.84082,76679241,0.875,0.08510638,131.04712,429.38834,0.026177257,0.015507638,0.007945061,0.0,0.0,0.0
1107.2749,423.66785,76679258,0.8625,0.08510638,137.02675,427.74496,0.026177257,0.015507638,0.007945061,0.0,0.0,0.0
1109.3168,428.4906,76679274,0.7875,0.06382979,141.45963,348.49445,0.026177257,0.015507638,0.007945061,0.0,0.0,0.0
1112.8186,434.8911,76679291,0.725,0.08510638,170.54942,321.49045,0.026177257,0.015507638,0.007945061,0.0,0.0,0.0
1116.0183,439.5144,76679308,0.6375,0.12765957,218.16928,286.6283,0.026177257,0.015507638,0.007945061,0.0,0.0,0.0
1116.1145,439.68542,76679308,0.3375,0.12765957,217.14679,283.09293,0.026177257,0.015507638,0.007945061,0.0,0.0,0.0
1116.1145,439.68542,76679316,0.3375,0.12765957,217.14679,283.09293,0.026177257,0.015507638,0.007945061,0.0,0.0,0.0
1224.0793,346.39258,76679950,0.825,0.10638297,0.0,0.0,-0.003058195,-0.01959388,0.0063562393,0.0,0.0,0.0
1224.0793,346.39258,76679976,0.8875,0.12765957,-0.022481076,-0.0067556803,-0.018446557,3.2490492E-4,-0.010914803,0.0,0.0,0.0
1224.0793,346.39258,76679993,0.875,0.12765957,0.06261251,0.015288195,-0.018446557,3.2490492E-4,-0.010914803,0.0,0.0,0.0
1224.0793,346.39258,76680026,0.90000004,0.10638297,-0.013508005,-0.00527661,-0.018446557,3.2490492E-4,-0.010914803,0.0,0.0,0.0
1224.0793,346.39258,76680043,0.85,0.10638297,-0.043572307,-0.012767821,-0.018446557,3.2490492E-4,-0.010914803,0.0,0.0,0.0
1209.4536,343.14282,76680060,0.8625,0.10638297,-393.86652,-87.51173,-0.018446557,3.2490492E-4,-0.010914803,0.0,0.0,0.0
1197.5487,342.83862,76680076,0.8625,0.11702127,-893.4655,-138.47849,-0.018446557,3.2490492E-4,-0.010914803,0.0,0.0,0.0
1188.1571,344.60254,76680093,0.875,0.12765957,-1029.1221,-5.6773105,-0.018446557,3.2490492E-4,-0.010914803,0.0,0.0,0.0
1180.5153,349.1178,76680110,0.90000004,0.10638297,-776.2607,186.83264,-0.018446557,3.2490492E-4,-0.010914803,0.0,0.0,0.0
1173.1034,355.77795,76680127,0.875,0.08510638,-449.60208,431.665,-0.018446557,3.2490492E-4,-0.010914803,0.0,0.0,0.0
1165.7996,366.2677,76680143,0.875,0.08510638,-284.62943,663.10236,-0.018446557,3.2490492E-4,-0.010914803,0.0,0.0,0.0
1157.9517,383.31714,76680160,0.8875,0.10638297,-392.0525,991.62006,-0.018446557,3.2490492E-4,-0.010914803,0.0,0.0,0.0
1154.0603,393.9525,76680177,0.8875,0.12765957,-341.05377,1040.8427,-0.018446557,3.2490492E-4,-0.010914803,0.0,0.0,0.0
1151.6516,407.8413,76680193,0.8875,0.10638297,-168.01187,936.78345,-0.018446557,3.2490492E-4,-0.010914803,0.0,0.0,0.0
1150.3398,422.57495,76680210,0.8625,0.08510638,1.2052071,844.24615,-0.018446557,3.2490492E-4,-0.010914803,0.0,0.0,0.0
1150.1034,436.7561,76680227,0.83750004,0.08510638,96.41453,855.63104,-0.018446557,3.2490492E-4,-0.010914803,0.0,0.0,0.0
1151.2983,447.83447,76680244,0.8625,0.12765957,109.170296,864.0785,-0.018446557,3.2490492E-4,-0.010914803,0.0,0.0,0.0
1153.7625,458.22607,76680260,0.875,0.12765957,176.03888,658.157,-0.018446557,3.2490492E-4,-0.010914803,0.0,0.0,0.0
1156.8796,465.0581,76680277,0.8875,0.08510638,246.00812,433.49225,-0.018446557,3.2490492E-4,-0.010914803,0.0,0.0,0.0
1159.977,468.8966,76680294,0.90000004,0.08510638,267.4149,206.20016,-0.018446557,3.2490492E-4,-0.010914803,0.0,0.0,0.0
1165.1362,473.47546,76680310,0.9375,0.08510638,304.7661,115.59703,-0.018446557,3.2490492E-4,-0.010914803,0.0,0.0,0.0
1171.8904,474.33704,76680327,0.9125,0.10638297,389.82986,2.9272723,-0.018446557,3.2490492E-4,-0.010914803,0.0,0.0,0.0
1180.2782,471.36755,76680344,0.875,0.11702127,511.3924,-155.74191,-0.018446557,3.2490492E-4,-0.010914803,0.0,0.0,0.0
1189.2383,464.54565,76680361,0.85,0.12765957,610.89185,-393.47498,-0.018446557,3.2490492E-4,-0.010914803,0.0,0.0,0.0
1200.5043,455.01843,76680377,0.8625,0.10638297,694.28204,-670.7721,-0.018446557,3.2490492E-4,-0.010914803,0.0,0.0,0.0
1211.6072,440.00293,76680394,0.8625,0.08510638,751.451,-952.70593,-0.018446557,3.2490492E-4,-0.010914803,0.0,0.0,0.0
1221.2783,422.0182,76680411,0.8625,0.12765957,719.5678,-1196.137,-0.018446557,3.2490492E-4,-0.010914803,0.0,0.0,0.0
1234.636,392.12085,76680427,0.8625,0.08510638,740.7795,-1650.7465,-0.018446557,3.2490492E-4,-0.010914803,0.0,0.0,0.0
1240.007,370.18787,76680444,0.875,0.09574468,589.3935,-1898.1931,-0.018446557,3.2490492E-4,-0.010914803,0.0,0.0,0.0
1242.4292,353.7732,76680461,0.85,0.12765957,262.49234,-1580.5768,-0.018446557,3.2490492E-4,-0.010914803,0.0,0.0,0.0
1241.7318,342.46716,76680477,0.8625,0.09574468,-89.97966,-916.5116,-0.018446557,3.2490492E-4,-0.010914803,0.0,0.0,0.0
1239.7329,336.15356,76680494,0.8875,0.09574468,-345.48895,-257.50528,-0.018446557,3.2490492E-4,-0.010914803,0.0,0.0,0.0
1235.6693,333.98694,76680511,0.90000004,0.08510638,-422.30728,135.77489,0.01724276,2.5993586E-4,0.0232687,0.0,0.0,0.0
1228.9274,333.9536,76680528,0.90000004,0.09574468,-452.98883,226.0905,0.01724276,2.5993586E-4,0.0232687,0.0,0.0,0.0
1220.0859,337.72742,76680544,0.9125,0.12765957,-588.38434,380.85614,0.01724276,2.5993586E-4,0.0232687,0.0,0.0,0.0
1214.0792,341.41956,76680561,0.9125,0.12765957,-594.7856,435.8001,0.01724276,2.5993586E-4,0.0232687,0.0,0.0,0.0
1209.8701,347.40735,76680578,0.9125,0.12765957,-439.3547,458.14743,0.01724276,2.5993586E-4,0.0232687,0.0,0.0,0.0
1207.717,353.59216,76680594,0.90000004,0.10638297,-208.64372,490.5032,0.01724276,2.5993586E-4,0.0232687,0.0,0.0,0.0
1207.8027,358.71826,76680611,0.8875,0.08510638,18.723852,454.73126,0.01724276,2.5993586E-4,0.0232687,0.0,0.0,0.0
1209.8635,364.2328,76680628,0.8625,0.08510638,174.84988,367.99054,0.01724276,2.5993586E-4,0.0232687,0.0,0.0,0.0
1212.7738,369.3036,76680645,0.8875,0.08510638,270.93954,310.49097,0.01724276,2.5993586E-4,0.0232687,0.0,0.0,0.0
1217.778,376.34802,76680661,0.8875,0.08510638,369.67606,326.10968,0.01724276,2.5993586E-4,0.0232687,0.0,0.0,0.0
1223.8511,381.50134,76680678,0.90000004,0.10638297,430.81915,384.34024,0.01724276,2.5993586E-4,0.0232687,0.0,0.0,0.0
1229.2277,384.44275,76680695,0.9125,0.10638297,451.0318,297.14844,0.01724276,2.5993586E-4,0.0232687,0.0,0.0,0.0
1234.3625,386.29944,76680711,0.9125,0.11702127,404.57715,130.1508,0.01724276,2.5993586E-4,0.0232687,0.0,0.0,0.0
1239.0543,386.37524,76680728,0.90000004,0.11702127,322.5585,-25.51729,0.01724276,2.5993586E-4,0.0232687,0.0,0.0,0.0
1244.2673,386.37524,76680745,0.8875,0.09574468,277.14917,-109.02663,0.01724276,2.5993586E-4,0.0232687,0.0,0.0,0.0
1249.4678,384.45728,76680762,0.875,0.08510638,287.78336,-141.82755,0.01724276,2.5993586E-4,0.0232687,0.0,0.0,0.0
1254.6567,382.61255,76680778,0.8625,0.08510638,314.89093,-173.71837,0.01724276,2.5993586E-4,0.0232687,0.0,0.0,0.0
1258.8115,378.7389,76680795,0.8625,0.08510638,290.08423,-233.83014,0.01724276,2.5993586E-4,0.0232687,0.0,0.0,0.0
1263.3427,373.79053,76680812,0.83750004,0.08510638,264.97733,-306.04922,0.01724276,2.5993586E-4,0.0232687,0.0,0.0,0.0
1270.6877,365.65588,76680828,0.825,0.09574468,326.53058,-453.31085,0.01724276,2.5993586E-4,0.0232687,0.0,0.0,0.0
1276.6943,357.30334,76680845,0.825,0.12765957,402.84656,-587.4294,0.01724276,2.5993586E-4,0.0232687,0.0,0.0,0.0
1282.9536,348.03125,76680862,0.83750004,0.10638297,434.23895,-654.8578,0.01724276,2.5993586E-4,0.0232687,0.0,0.0,0.0
1288.3229,338.81482,76680879,0.83750004,0.09574468,385.44302,-652.8387,0.01724276,2.5993586E-4,0.0232687,0.0,0.0,0.0
1292.6283,329.57495,76680895,0.85,0.09574468,287.2407,-602.71985,0.01724276,2.5993586E-4,0.0232687,0.0,0.0,0.0
1297.5168,319.07715,76680912,0.85,0.09574468,226.32027,-584.01025,0.01724276,2.5993586E-4,0.0232687,0.0,0.0,0.0
1300.5012,308.42334,76680929,0.825,0.12765957,204.76378,-653.42664,0.01724276,2.5993586E-4,0.0232687,0.0,0.0,0.0
1302.0662,301.9026,76680945,0.8625,0.12765957,116.54753,-563.51794,0.01724276,2.5993586E-4,0.0232687,0.0,0.0,0.0
1302.5538,297.3275,76680962,0.83750004,0.12765957,21.315332,-365.69516,0.01724276,2.5993586E-4,0.0232687,0.0,0.0,0.0
1302.5538,293.62354,76680979,0.8625,0.11702127,-64.79268,-156.26321,0.01724276,2.5993586E-4,0.0232687,0.0,0.0,0.0
1301.9242,291.07483,76680995,0.8875,0.11702127,-107.45262,-24.769817,0.01724276,2.5993586E-4,0.0232687,0.0,0.0,0.0
1300.8612,289.1853,76681012,0.8875,0.11702127,-102.94353,-16.012726,0.01724276,2.5993586E-4,0.0232687,0.0,0.0,0.0
1300.362,287.4093,76681029,0.9125,0.11702127,-92.21735,-34.68976,0.021794215,-0.015792042,0.002614975,0.0,0.0,0.0
1299.5548,286.8629,76681046,0.925,0.12765957,-66.76984,-28.089052,0.021794215,-0.015792042,0.002614975,0.0,0.0,0.0
1298.7659,286.8629,76681062,0.9125,0.12765957,-46.89667,16.437323,0.021794215,-0.015792042,0.002614975,0.0,0.0,0.0
1297.7507,288.83435,76681079,0.925,0.12765957,-46.325027,84.70274,0.021794215,-0.015792042,0.002614975,0.0,0.0,0.0
1297.2112,291.641,76681096,0.925,0.12765957,-49.478985,197.18538,0.021794215,-0.015792042,0.002614975,0.0,0.0,0.0
1296.5558,295.38562,76681112,0.9125,0.12765957,-46.48894,276.93234,0.021794215,-0.015792042,0.002614975,0.0,0.0,0.0
1296.5558,299.9817,76681129,0.9125,0.11702127,-18.15295,333.70847,0.021794215,-0.015792042,0.002614975,0.0,0.0,0.0
1296.5558,303.687,76681146,0.90000004,0.09574468,12.2626,326.179,0.021794215,-0.015792042,0.002614975,0.0,0.0,0.0
1296.5558,308.27173,76681163,0.8875,0.09574468,18.769552,291.34085,0.021794215,-0.015792042,0.002614975,0.0,0.0,0.0
1297.0557,314.86743,76681179,0.875,0.09574468,31.402287,336.0173,0.021794215,-0.015792042,0.002614975,0.0,0.0,0.0
1298.1604,321.37354,76681196,0.875,0.09574468,52.504097,397.57587,0.021794215,-0.015792042,0.002614975,0.0,0.0,0.0
1298.698,327.60742,76681213,0.875,0.09574468,59.803535,450.21527,0.021794215,-0.015792042,0.002614975,0.0,0.0,0.0
1299.731,333.11597,76681229,0.8625,0.11702127,69.46755,415.17618,0.021794215,-0.015792042,0.002614975,0.0,0.0,0.0
1300.7788,337.41687,76681246,0.8625,0.12765957,69.33752,305.19376,0.021794215,-0.015792042,0.002614975,0.0,0.0,0.0
1302.8379,341.56653,76681263,0.8875,0.12765957,96.0264,210.7641,0.021794215,-0.015792042,0.002614975,0.0,0.0,0.0
1305.352,346.03564,76681280,0.875,0.12765957,157.84534,208.56253,0.021794215,-0.015792042,0.002614975,0.0,0.0,0.0
1306.664,348.36755,76681296,0.8875,0.12765957,145.58781,169.0961,0.021794215,-0.015792042,0.002614975,0.0,0.0,0.0
1308.7045,350.5265,76681313,0.9125,0.10638297,125.31117,111.0188,0.021794215,-0.015792042,0.002614975,0.0,0.0,0.0
1311.3801,352.46045,76681330,0.9125,0.10638297,129.88107,73.96372,0.021794215,-0.015792042,0.002614975,0.0,0.0,0.0
1313.4734,354.3208,76681346,0.9125,0.10638297,137.05713,52.232635,0.021794215,-0.015792042,0.002614975,0.0,0.0,0.0
1316.5532,356.16846,76681363,0.925,0.10638297,177.69078,88.6677,0.021794215,-0.015792042,0.002614975,0.0,0.0,0.0
1319.1704,358.01538,76681380,0.925,0.10638297,178.2781,98.90558,0.021794215,-0.015792042,0.002614975,0.0,0.0,0.0
1321.2092,359.86365,76681397,0.925,0.09574468,155.09297,109.565605,0.021794215,-0.015792042,0.002614975,0.0,0.0,0.0
1323.8219,361.74146,76681413,0.9125,0.09574468,148.17673,110.09273,0.021794215,-0.015792042,0.002614975,0.0,0.0,0.0
1326.9744,364.54346,76681430,0.925,0.08510638,160.98547,138.91573,0.021794215,-0.015792042,0.002614975,0.0,0.0,0.0
1329.8296,368.76245,76681447,0.925,0.08510638,170.76903,201.97804,0.021794215,-0.015792042,0.002614975,0.0,0.0,0.0
1334.6924,377.28528,76681463,0.90000004,0.10638297,237.14491,385.45752,0.021794215,-0.015792042,0.002614975,0.0,0.0,0.0
1340.1533,388.35083,76681480,0.8625,0.10638297,334.93674,687.3533,0.021794215,-0.015792042,0.002614975,0.0,0.0,0.0
1344.3083,398.64026,76681497,0.8625,0.12765957,352.15393,818.6307,0.021794215,-0.015792042,0.002614975,0.0,0.0,0.0
1347.603,408.81458,76681514,0.8625,0.11702127,284.88126,794.1412,0.021794215,-0.015792042,0.002614975,0.0,0.0,0.0
1349.3811,417.85022,76681530,0.875,0.09574468,145.27371,648.4071,0.021794215,-0.015792042,0.002614975,0.0,0.0,0.0
1349.5386,427.1194,76681547,0.8875,0.09574468,1.0657012,512.4486,0.021794215,-0.015792042,0.002614975,0.0,0.0,0.0
1348.0952,435.04346,76681564,0.8875,0.09574468,-102.95725,495.49167,-0.022564627,-0.012633637,0.0020923615,0.0,0.0,0.0
1345.4968,440.6504,76681580,0.85,0.10638297,-210.7442,375.3405,-0.022564627,-0.012633637,0.0020923615,0.0,0.0,0.0
1342.9365,444.22046,76681597,0.83750004,0.10638297,-256.27798,245.23694,-0.022564627,-0.012633637,0.0020923615,0.0,0.0,0.0
1338.0505,449.09485,76681614,0.8,0.10638297,-300.56412,158.3381,-0.022564627,-0.012633637,0.0020923615,0.0,0.0,0.0
1330.9844,459.10388,76681630,0.8,0.09574468,-396.12497,288.27075,-0.022564627,-0.012633637,0.0020923615,0.0,0.0,0.0
1326.8058,467.98462,76681647,0.725,0.08510638,-416.96613,528.6016,-0.022564627,-0.012633637,0.0020923615,0.0,0.0,0.0
1318.9072,483.8557,76681664,0.5,0.07446808,-443.86288,855.32495,-0.022564627,-0.012633637,0.0020923615,0.0,0.0,0.0
1316.0494,485.8877,76681668,0.2375,0.09574468,-473.02353,929.98096,-0.022564627,-0.012633637,0.0020923615,0.0,0.0,0.0
1316.0494,485.8877,76681676,0.2375,0.09574468,-473.02353,929.98096,-0.022564627,-0.012633637,0.0020923615,0.0,0.0,0.0
