x,y,timestamp,pressure,fingerarea,velocityx,velocityy,accelx,accely,accelz,gyrox,gyroy,gyroz
111.94142,286.8629,126954307,0.75,0.09574468,0.0,0.0,0.03461346,0.01821658,-0.024857521,0.0,0.0,0.0
111.94142,286.8629,126954335,0.85,0.09574468,-0.0020668565,-0.00526255,0.03461346,0.01821658,-0.024857521,0.0,0.0,0.0
111.94142,286.8629,126954352,0.8875,0.09574468,-0.0067747384,-0.015999828,0.03461346,0.01821658,-0.024857521,0.0,0.0,0.0
111.94142,286.8629,126954368,0.8875,0.09574468,4.5726303E-4,0.002049753,0.03461346,0.01821658,-0.024857521,0.0,0.0,0.0
112.34793,299.86987,126954385,0.8875,0.10638297,10.764001,344.252,0.03461346,0.01821658,-0.024857521,0.0,0.0,0.0
111.115295,325.61157,126954402,0.8625,0.08510638,-6.15923,1216.5114,0.03461346,0.01821658,-0.024857521,0.0,0.0,0.0
110.45882,346.92065,126954419,0.875,0.12765957,-50.374912,1856.8387,0.03461346,0.01821658,-0.024857521,0.0,0.0,0.0
108.400635,368.16382,126954435,0.90000004,0.08510638,-118.681206,1879.3821,0.03461346,0.01821658,-0.024857521,0.0,0.0,0.0
106.37474,386.58215,126954452,0.90000004,0.12765957,-158.72247,1541.9852,0.03461346,0.01821658,-0.024857521,0.0,0.0,0.0
105.83678,405.1516,126954469,0.95,0.10638297,-119.088356,1067.7863,-0.0043092296,0.014573276,0.012113571,0.0,0.0,0.0
103.60919,429.63586,126954485,0.8875,0.08510638,-94.499084,1140.0645,-0.0043092296,0.014573276,0.012113571,0.0,0.0,0.0
102.50694,444.57263,126954502,0.875,0.12765957,-77.220474,1144.1721,-0.0043092296,0.014573276,0.012113571,0.0,0.0,0.0
102.88898,456.27173,126954519,0.825,0.10638297,-34.423447,921.2972,-0.0043092296,0.014573276,0.012113571,0.0,0.0,0.0
103.94403,465.93237,126954536,0.75,0.08510638,38.219845,573.2885,-0.0043092296,0.014573276,0.012113571,0.0,0.0,0.0
103.94403,469.0061,126954547,0.26250002,0.11702127,68.32112,328.03186,-0.0043092296,0.014573276,0.012113571,0.0,0.0,0.0
103.94403,469.0061,126954555,0.26250002,0.11702127,68.32112,328.03186,-0.0043092296,0.014573276,0.012113571,0.0,0.0,0.0
128.43605,268.20435,126954700,0.7875,0.06382979,0.0,0.0,-0.0043092296,0.014573276,0.012113571,0.0,0.0,0.0
128.43605,268.20435,126954719,0.85,0.08510638,0.010937542,0.023160331,-0.0043092296,0.014573276,0.012113571,0.0,0.0,0.0
128.43605,268.20435,126954736,0.925,0.08510638,-0.001664862,-0.0033850449,-0.0043092296,0.014573276,0.012113571,0.0,0.0,0.0
128.43605,268.20435,126954744,0.90000004,0.08510638,-0.01086902,-0.02360666,-0.0043092296,0.014573276,0.012113571,0.0,0.0,0.0
128.43605,268.20435,126954770,0.95,0.08510638,-0.0015288767,-0.0021483358,-0.0043092296,0.014573276,0.012113571,0.0,0.0,0.0
135.03394,292.28296,126954786,0.925,0.12765957,191.89497,694.7974,-0.0043092296,0.014573276,0.012113571,0.0,0.0,0.0
142.31229,319.65198,126954803,0.875,0.08510638,494.29126,1809.1687,-0.0043092296,0.014573276,0.012113571,0.0,0.0,0.0
147.88736,337.15698,126954820,0.875,0.11702127,573.33624,2090.3071,-0.0043092296,0.014573276,0.012113571,0.0,0.0,0.0
154.78555,350.5829,126954836,0.85,0.10638297,567.4672,1701.8032,-0.0043092296,0.014573276,0.012113571,0.0,0.0,0.0
164.00859,360.6902,126954853,0.8125,0.06382979,475.2445,516.3887,-0.0043092296,0.014573276,0.012113571,0.0,0.0,0.0
180.74156,368.87927,126954870,0.85,0.07446808,758.4537,185.88928,-0.0043092296,0.014573276,0.012113571,0.0,0.0,0.0
196.47595,365.44983,126954886,0.83750004,0.09574468,1065.3722,-119.37061,-0.0043092296,0.014573276,0.012113571,0.0,0.0,0.0
212.46478,353.6792,126954903,0.825,0.10638297,1207.5863,-622.83795,-0.0043092296,0.014573276,0.012113571,0.0,0.0,0.0
228.44354,333.5459,126954920,0.85,0.06382979,1155.808,-1297.844,-0.0043092296,0.014573276,0.012113571,0.0,0.0,0.0
246.0726,300.68506,126954937,0.85,0.12765957,1088.2295,-2081.9065,-0.0043092296,0.014573276,0.012113571,0.0,0.0,0.0
254.14047,278.4403,126954953,0.83750004,0.09574468,828.0436,-2267.2754,-0.0043092296,0.014573276,0.012113571,0.0,0.0,0.0
258.05988,263.8374,126954970,0.90000004,0.11702127,368.62094,-1720.2355,-0.0043092296,0.014573276,0.012113571,0.0,0.0,0.0
259.89325,257.25574,126954987,0.8875,0.11702127,-54.022232,-736.29456,-0.0043092296,0.014573276,0.012113571,0.0,0.0,0.0
259.89325,255.1106,126955003,0.925,0.11702127,-317.8464,196.39966,-0.0043092296,0.014573276,0.012113571,0.0,0.0,0.0
259.08014,256.32227,126955020,0.90000004,0.09574468,-277.49533,532.3917,-0.0043092296,0.014573276,0.012113571,0.0,0.0,0.0
255.23837,269.06555,126955037,0.875,0.09574468,-256.8918,752.34015,0.012552619,0.011658639,0.025690079,0.0,0.0,0.0
247.96207,291.0912,126955054,0.8625,0.12765957,-413.19003,1279.2399,0.012552619,0.011658639,0.025690079,0.0,0.0,0.0
233.41544,324.37195,126955070,0.875,0.08510638,-760.67053,2076.973,0.012552619,0.011658639,0.025690079,0.0,0.0,0.0
224.1687,351.15112,126955087,0.8875,0.10638297,-919.5601,2405.714,0.012552619,0.011658639,0.025690079,0.0,0.0,0.0
218.59796,380.23315,126955104,0.875,0.08510638,-760.3326,2314.355,0.012552619,0.011658639,0.025690079,0.0,0.0,0.0
215.21689,400.41357,126955120,0.875,0.12765957,-360.72156,1739.1726,0.012552619,0.011658639,0.025690079,0.0,0.0,0.0
214.46826,422.1621,126955137,0.8625,0.08510638,21.59492,1240.4222,0.012552619,0.011658639,0.025690079,0.0,0.0,0.0
216.81683,439.36414,126955154,0.8625,0.10638297,236.94624,966.873,0.012552619,0.011658639,0.025690079,0.0,0.0,0.0
221.01187,453.26404,126955171,0.875,0.10638297,341.33347,773.5241,0.012552619,0.011658639,0.025690079,0.0,0.0,0.0
225.93423,462.83972,126955187,0.825,0.08510638,418.74963,596.4037,0.012552619,0.011658639,0.025690079,0.0,0.0,0.0
234.4115,474.7522,126955204,0.75,0.06382979,531.58435,391.99063,0.012552619,0.011658639,0.025690079,0.0,0.0,0.0
238.90009,479.6681,126955216,0.25,0.09574468,588.1297,345.12698,0.012552619,0.011658639,0.025690079,0.0,0.0,0.0
238.90009,479.6681,126955224,0.25,0.09574468,588.1297,345.12698,0.012552619,0.011658639,0.025690079,0.0,0.0,0.0
290.88318,383.70972,126955351,0.825,0.08510638,0.0,0.0,0.012552619,0.011658639,0.025690079,0.0,0.0,0.0
290.88318,383.70972,126955371,0.85,0.08510638,0.025989596,0.032618225,0.012552619,0.011658639,0.025690079,0.0,0.0,0.0
290.88318,383.70972,126955388,0.90000004,0.08510638,-0.011411504,-0.01591439,0.012552619,0.011658639,0.025690079,0.0,0.0,0.0
290.88318,383.70972,126955403,0.8875,0.08510638,0.011595586,0.015822966,0.012552619,0.011658639,0.025690079,0.0,0.0,0.0
290.88318,383.70972,126955421,0.875,0.09574468,-0.020297071,-0.027875442,0.012552619,0.011658639,0.025690079,0.0,0.0,0.0
294.89783,408.1001,126955438,0.9125,0.09574468,109.41853,747.0259,0.012552619,0.011658639,0.025690079,0.0,0.0,0.0
299.61874,419.67358,126955455,0.875,0.08510638,299.78683,1315.6611,0.012552619,0.011658639,0.025690079,0.0,0.0,0.0
304.76538,427.1123,126955471,0.825,0.09574468,402.1914,1179.9146,0.012552619,0.011658639,0.025690079,0.0,0.0,0.0
315.61896,432.65613,126955488,0.85,0.08510638,588.87,637.5821,0.012552619,0.011658639,0.025690079,0.0,0.0,0.0
328.82443,429.57312,126955505,0.83750004,0.08510638,799.07904,-264.15417,0.012552619,0.011658639,0.025690079,0.0,0.0,0.0
340.65982,420.14624,126955521,0.83750004,0.09574468,935.1777,-689.7308,0.012552619,0.011658639,0.025690079,0.0,0.0,0.0
347.85648,407.71375,126955538,0.8625,0.10638297,802.5364,-965.0584,0.012552619,0.011658639,0.025690079,0.0,0.0,0.0
355.1551,388.6565,126955555,0.85,0.08510638,515.09436,-1312.5262,0.012552619,0.011658639,0.025690079,0.0,0.0,0.0
354.42108,376.41785,126955572,0.8625,0.08510638,108.54284,-1334.3651,0.012552619,0.011658639,0.025690079,0.0,0.0,0.0
351.58704,369.4624,126955588,0.8875,0.09574468,-278.79257,-859.7478,0.010042086,-0.030673102,0.03655243,0.0,0.0,0.0
344.9778,366.29785,126955605,0.85,0.09574468,-496.9178,-306.69376,0.010042086,-0.030673102,0.03655243,0.0,0.0,0.0
332.60794,367.14417,126955622,0.8875,0.08510638,-804.5914,195.0189,0.010042086,-0.030673102,0.03655243,0.0,0.0,0.0
318.47168,373.50916,126955638,0.875,0.09574468,-1030.1744,524.2886,0.010042086,-0.030673102,0.03655243,0.0,0.0,0.0
304.07974,383.68372,126955655,0.9125,0.08510638,-1141.4902,756.2618,0.010042086,-0.030673102,0.03655243,0.0,0.0,0.0
289.98175,396.46484,126955672,0.9125,0.10638297,-1104.8369,978.72437,0.010042086,-0.030673102,0.03655243,0.0,0.0,0.0
277.92865,413.84546,126955689,0.9125,0.08510638,-893.97394,1151.6895,0.010042086,-0.030673102,0.03655243,0.0,0.0,0.0
271.73367,434.1577,126955705,0.90000004,0.08510638,-563.0571,1359.9071,0.010042086,-0.030673102,0.03655243,0.0,0.0,0.0
272.46674,447.89636,126955722,0.875,0.12765957,-112.73118,1263.8553,0.010042086,-0.030673102,0.03655243,0.0,0.0,0.0
278.0961,459.6034,126955739,0.875,0.09574468,386.41187,988.2017,0.010042086,-0.030673102,0.03655243,0.0,0.0,0.0
282.6813,466.58276,126955755,0.85,0.08510638,663.8555,544.47363,0.010042086,-0.030673102,0.03655243,0.0,0.0,0.0
298.05994,479.59143,126955772,0.83750004,0.08510638,939.46,385.56326,0.010042086,-0.030673102,0.03655243,0.0,0.0,0.0
313.1058,487.14844,126955789,0.77500004,0.08510638,1074.3541,462.95648,0.010042086,-0.030673102,0.03655243,0.0,0.0,0.0
327.47366,487.66467,126955806,0.71250004,0.06382979,1201.0227,247.90103,0.010042086,-0.030673102,0.03655243,0.0,0.0,0.0
330.3703,487.66467,126955817,0.175,0.07446808,1034.8257,55.099766,0.010042086,-0.030673102,0.03655243,0.0,0.0,0.0
330.3703,487.66467,126955824,0.175,0.07446808,1034.8257,55.099766,0.010042086,-0.030673102,0.03655243,0.0,0.0,0.0
359.86072,226.4447,126955970,0.825,0.08510638,0.0,0.0,0.010042086,-0.030673102,0.03655243,0.0,0.0,0.0
359.86072,226.4447,126955989,0.8625,0.08510638,0.11176896,0.069353804,0.010042086,-0.030673102,0.03655243,0.0,0.0,0.0
359.86072,226.4447,126956006,0.925,0.08510638,-0.005874009,-0.0042826766,0.010042086,-0.030673102,0.03655243,0.0,-6.710885E-6,0.0
359.86072,226.4447,126956023,0.9125,0.08510638,-0.0014656659,4.7526302E-4,0.010042086,-0.030673102,0.03655243,0.0,-6.710885E-6,0.0
359.86072,226.4447,126956039,0.925,0.10638297,-0.0018114479,-8.873166E-4,0.010042086,-0.030673102,0.03655243,0.0,-6.710885E-6,0.0
352.91534,264.61646,126956056,0.8,0.08510638,-218.08635,1210.7738,0.010042086,-0.030673102,0.03655243,0.0,-6.710885E-6,0.0
349.36414,281.53186,126956068,0.32500002,0.10638297,-330.76883,1771.7241,0.010042086,-0.030673102,0.03655243,0.0,-6.710885E-6,0.0
349.36414,281.53186,126956074,0.32500002,0.10638297,-330.76883,1771.7241,0.010042086,-0.030673102,0.03655243,0.0,-6.710885E-6,0.0
368.8578,455.67847,126956283,0.7875,0.12765957,0.0,0.0,0.008033663,0.031461537,0.045241356,0.0,0.0,0.0
368.8578,455.67847,126956307,0.8,0.12765957,0.0028425595,8.758444E-4,0.008033663,0.031461537,0.045241356,0.0,0.0,0.0
368.8578,455.67847,126956320,0.83750004,0.10638297,-0.015588023,-0.017608568,0.008033663,0.031461537,0.045241356,0.0,0.0,0.0
386.12805,442.24756,126956340,0.83750004,0.06382979,861.8667,-670.2614,0.008033663,0.031461537,0.045241356,0.0,0.0,0.0
397.72784,428.91748,126956357,0.83750004,0.08510638,1147.8485,-1069.2112,0.008033663,0.031461537,0.045241356,0.0,0.0,0.0
405.02386,416.91577,126956374,0.83750004,0.12765957,990.9001,-1119.0485,0.008033663,0.031461537,0.045241356,0.0,0.0,0.0
410.87634,396.86536,126956390,0.85,0.08510638,631.35345,-1279.4578,0.008033663,0.031461537,0.045241356,0.0,0.0,0.0
411.45917,383.43567,126956407,0.8625,0.08510638,190.0442,-1185.8607,0.008033663,0.031461537,0.045241356,0.0,0.0,0.0
410.11075,374.46777,126956424,0.8625,0.08510638,-332.03732,-766.84576,0.008033663,0.031461537,0.045241356,0.0,0.0,0.0
408.57104,370.78418,126956440,0.85,0.08510638,-311.83932,-384.97018,0.008033663,0.031461537,0.045241356,0.0,0.0,0.0
407.0401,368.9513,126956457,0.925,0.08510638,-276.40616,101.302025,0.008033663,0.031461537,0.045241356,0.0,0.0,0.0
405.9971,368.60522,126956474,0.8625,0.08510638,-152.29614,243.33893,0.008033663,0.031461537,0.045241356,0.0,0.0,0.0
404.57013,372.2517,126956490,0.8875,0.08510638,-86.00691,306.2435,0.008033663,0.031461537,0.045241356,0.0,0.0,0.0
406.63425,383.7224,126956507,0.875,0.08510638,4.334945,543.29865,0.008033663,0.031461537,0.045241356,0.0,0.0,0.0
412.7249,395.97314,126956524,0.825,0.12765957,231.53232,905.5631,0.008033663,0.031461537,0.045241356,0.0,0.0,0.0
423.03867,412.4358,126956541,0.83750004,0.07446808,576.8324,1163.6782,0.008033663,0.031461537,0.045241356,0.0,0.0,0.0
435.6568,429.14465,126956558,0.83750004,0.08510638,880.43274,1259.7358,0.008033663,0.031461537,0.045241356,0.0,0.0,0.0
448.41132,442.74133,126956574,0.8125,0.10638297,1023.708,1111.0364,0.008033663,0.031461537,0.045241356,0.0,0.0,0.0
455.36597,451.30066,126956591,0.8,0.12765957,825.34436,789.75494,0.008033663,0.031461537,0.045241356,0.0,0.0,0.0
461.66138,462.49133,126956608,0.825,0.08510638,497.07104,552.4397,0.008033663,0.031461537,0.045241356,0.0,0.0,0.0
460.19037,469.6283,126956624,0.85,0.08510638,69.93533,362.5297,0.008033663,0.031461537,0.045241356,0.0,0.0,0.0
456.25433,475.31445,126956641,0.825,0.06382979,-347.33795,315.766,0.008033663,0.031461537,0.045241356,0.0,0.0,0.0
446.1129,484.48157,126956658,0.8125,0.08510638,-671.90295,377.72913,0.008033663,0.031461537,0.045241356,0.0,0.0,0.0
437.76517,490.3717,126956674,0.8125,0.09574468,-860.49384,363.50467,0.008033663,0.031461537,0.045241356,0.0,0.0,0.0
431.32065,492.781,126956691,0.8,0.09574468,-764.8198,258.40463,0.008033663,0.031461537,0.045241356,0.0,0.0,0.0
429.3381,492.9956,126956701,0.26250002,0.09574468,-595.54376,164.88777,0.008033663,0.031461537,0.045241356,0.0,0.0,0.0
429.3381,492.9956,126956708,0.26250002,0.09574468,-595.54376,164.88777,0.008033663,0.031461537,0.045241356,0.0,0.0,0.0
455.32965,405.0338,126956846,0.7625,0.10638297,0.0,0.0,-0.00957308,-0.022830784,0.004193306,0.0,0.0,0.0
455.32965,405.0338,126956875,0.85,0.09574468,-0.048429932,-0.04242005,-0.00957308,-0.022830784,0.004193306,0.0,0.0,0.0
454.25946,391.71716,126956892,0.85,0.08510638,-62.000042,-771.56793,-0.00957308,-0.022830784,0.004193306,0.0,0.0,0.0
455.11523,375.07983,126956908,0.83750004,0.08510638,-20.937162,-1476.4899,-0.00957308,-0.022830784,0.004193306,0.0,0.0,0.0
458.4973,368.18762,126956925,0.85,0.10638297,120.47486,-1167.8873,-0.00957308,-0.022830784,0.004193306,0.0,0.0,0.0
465.6629,360.75378,126956942,0.8625,0.12765957,332.43134,-864.201,-0.00957308,-0.022830784,0.004193306,0.0,0.0,0.0
480.06787,355.2262,126956959,0.83750004,0.12765957,741.4651,-354.9001,-0.00957308,-0.022830784,0.004193306,0.0,0.0,0.0
498.66986,356.261,126956975,0.85,0.09574468,1198.5668,121.597824,-0.00957308,-0.022830784,0.004193306,0.0,0.0,0.0
513.5125,363.0531,126956992,0.875,0.08510638,1318.8591,330.2456,-0.00957308,-0.022830784,0.004193306,0.0,0.0,0.0
524.07166,373.73193,126957009,0.85,0.09574468,1107.2914,729.69745,-0.00957308,-0.022830784,0.004193306,0.0,0.0,0.0
532.87897,388.18652,126957025,0.85,0.12765957,683.2676,1056.054,-0.00957308,-0.022830784,0.004193306,0.0,0.0,0.0
538.01465,410.8181,126957042,0.83750004,0.09574468,282.52686,1424.6677,-0.00957308,-0.022830784,0.004193306,0.0,0.0,0.0
537.0558,432.12427,126957059,0.85,0.09574468,-43.223495,1621.2224,-0.00957308,-0.022830784,0.004193306,0.0,0.0,0.0
531.0572,445.31006,126957076,0.825,0.12765957,-424.0412,1395.9805,-0.00957308,-0.022830784,0.004193306,0.0,0.0,0.0
520.8278,454.4784,126957092,0.825,0.09574468,-775.57336,819.213,-0.00957308,-0.022830784,0.004193306,0.0,0.0,0.0
509.12238,461.20874,126957109,0.85,0.09574468,-984.8391,240.12122,-0.00957308,-0.022830784,0.004193306,0.0,0.0,0.0
497.61493,463.67505,126957126,0.83750004,0.10638297,-993.84424,-26.205276,-0.00957308,-0.022830784,0.004193306,0.0,0.0,0.0
492.06934,462.87598,126957142,0.8,0.10638297,-737.81067,-184.98001,-0.00957308,-0.022830784,0.004193306,0.0,0.0,0.0
490.32916,461.02893,126957159,0.85,0.12765957,-302.41867,-296.3619,-0.00957308,-0.022830784,0.004193306,0.0,0.0,0.0
490.8366,458.31104,126957176,0.825,0.10638297,117.74188,-352.66428,-0.00957308,-0.022830784,0.004193306,0.0,0.0,0.0
499.94067,454.61902,126957193,0.8625,0.09574468,517.97284,-344.2296,-0.00957308,-0.022830784,0.004193306,0.0,0.0,0.0
518.32294,453.01306,126957209,0.85,0.12765957,1031.6671,-252.99983,-0.00957308,-0.022830784,0.004193306,0.0,0.0,0.0
535.6674,456.4419,126957226,0.83750004,0.12765957,1409.8915,-20.619184,-0.00957308,-0.022830784,0.004193306,0.0,0.0,0.0
554.91876,463.18518,126957243,0.8,0.09574468,1582.2717,315.15836,-0.00957308,-0.022830784,0.004193306,0.0,0.0,0.0
571.3492,468.84875,126957259,0.8125,0.08510638,1320.5084,587.77625,-0.00957308,-0.022830784,0.004193306,0.0,0.0,0.0
588.7837,475.22498,126957276,0.7875,0.08510638,1066.0964,589.40894,-0.023658462,-0.018264621,-0.028645515,0.0,0.0,0.0
598.93396,477.00256,126957293,0.7625,0.06382979,819.8974,347.18094,-0.023658462,-0.018264621,-0.028645515,0.0,0.0,0.0
605.07007,473.9049,126957309,0.5125,0.08510638,407.91742,-11.185867,-0.023658462,-0.018264621,-0.028645515,0.0,0.0,0.0
606.2805,472.56006,126957312,0.275,0.12765957,367.16888,-83.602,-0.023658462,-0.018264621,-0.028645515,0.0,0.0,0.0
606.2805,472.56006,126957319,0.275,0.12765957,367.16888,-83.602,-0.023658462,-0.018264621,-0.028645515,0.0,0.0,0.0
510.81158,415.69592,126957457,0.83750004,0.09574468,0.0,0.0,-0.023658462,-0.018264621,-0.028645515,0.0,0.0,0.0
510.81158,415.69592,126957493,0.85,0.10638297,0.010022031,0.0068721315,-0.023658462,-0.018264621,-0.028645515,6.710885E-6,0.0,0.0
534.3862,413.91882,126957510,0.8125,0.10638297,1477.8524,-122.77045,-0.023658462,-0.018264621,-0.028645515,6.710885E-6,0.0,0.0
552.76605,413.91882,126957527,0.6875,0.09574468,1745.735,-62.740746,-0.023658462,-0.018264621,-0.028645515,6.710885E-6,0.0,0.0
553.79755,413.91882,126957529,0.275,0.12765957,1654.9563,-50.909916,-0.023658462,-0.018264621,-0.028645515,6.710885E-6,0.0,0.0
553.79755,413.91882,126957537,0.275,0.12765957,1654.9563,-50.909916,-0.023658462,-0.018264621,-0.028645515,6.710885E-6,0.0,0.0
670.7595,417.4729,126957714,0.7625,0.08510638,0.0,0.0,-0.023658462,-0.018264621,-0.028645515,0.0,0.0,0.0
670.7595,417.4729,126957744,0.8125,0.10638297,0.048251886,0.03402378,-0.023658462,-0.018264621,-0.028645515,0.0,0.0,0.0
670.7595,417.4729,126957761,0.83750004,0.12765957,0.041504975,0.02699649,-0.023658462,-0.018264621,-0.028645515,0.0,0.0,0.0
670.7595,417.4729,126957777,0.83750004,0.10638297,0.0025509985,0.0017943067,0.013073236,-0.014611691,0.08908367,0.0,0.0,0.0
670.7595,417.4729,126957794,0.83750004,0.09574468,0.022314444,0.014240591,0.013073236,-0.014611691,0.08908367,0.0,0.0,0.0
670.7595,417.4729,126957811,0.825,0.08510638,0.033312213,0.021288848,0.013073236,-0.014611691,0.08908367,0.0,0.0,0.0
644.5878,400.38306,126957827,0.825,0.10638297,-733.7925,-479.15692,0.013073236,-0.014611691,0.08908367,0.0,0.0,0.0
627.59534,397.73938,126957844,0.83750004,0.10638297,-1380.4991,-677.2543,0.013073236,-0.014611691,0.08908367,0.0,0.0,0.0
611.6315,401.32312,126957861,0.825,0.12765957,-1613.0116,-380.25153,0.013073236,-0.014611691,0.08908367,0.0,0.0,0.0
602.8817,407.20166,126957877,0.825,0.11702127,-1209.4001,206.53362,0.013073236,-0.014611691,0.08908367,0.0,0.0,0.0
597.7534,420.2445,126957894,0.875,0.09574468,-259.204,962.5818,0.013073236,-0.014611691,0.08908367,0.0,0.0,0.0
595.0444,438.94238,126957911,0.85,0.11702127,39.302277,1251.3214,0.013073236,-0.014611691,0.08908367,0.0,0.0,0.0
598.5561,455.74402,126957928,0.8,0.10638297,306.6475,1415.6765,0.013073236,-0.014611691,0.08908367,0.0,0.0,0.0
603.9759,467.8612,126957944,0.7875,0.08510638,498.28098,1248.1257,0.013073236,-0.014611691,0.08908367,0.0,0.0,0.0
612.7778,476.11353,126957961,0.77500004,0.06382979,678.2976,747.95013,0.013073236,-0.014611691,0.08908367,0.0,0.0,0.0
627.14014,480.55664,126957978,0.8,0.07446808,926.429,234.18614,0.013073236,-0.014611691,0.08908367,0.0,0.0,0.0
641.1298,472.23962,126957994,0.8,0.09574468,1061.0646,-298.96912,0.013073236,-0.014611691,0.08908367,0.0,0.0,0.0
658.0573,455.88208,126958011,0.7875,0.10638297,1149.2368,-983.02423,0.013073236,-0.014611691,0.08908367,0.0,0.0,0.0
669.2239,436.9193,126958028,0.83750004,0.08510638,1007.9501,-1527.69,0.013073236,-0.014611691,0.08908367,0.0,0.0,0.0
673.5318,428.41663,126958045,0.83750004,0.08510638,569.9648,-1416.2382,0.013073236,-0.014611691,0.08908367,0.0,0.0,0.0
674.8917,423.86877,126958061,0.85,0.08510638,87.17246,-783.33734,0.013073236,-0.014611691,0.08908367,0.0,0.0,0.0
674.7582,422.46216,126958078,0.875,0.08510638,-245.37122,-88.04628,0.013073236,-0.014611691,0.08908367,0.0,0.0,0.0
674.7582,421.9154,126958095,0.85,0.08510638,-331.8134,263.95834,0.013073236,-0.014611691,0.08908367,0.0,0.0,0.0
675.25806,426.3031,126958112,0.8625,0.08510638,-127.287636,335.4423,0.013073236,-0.014611691,0.08908367,0.0,0.0,0.0
676.5316,437.76294,126958128,0.825,0.08510638,2.3948014,602.1268,0.013073236,-0.014611691,0.08908367,0.0,0.0,0.0
679.83044,451.26843,126958145,0.8125,0.10638297,133.31207,959.6379,0.013073236,-0.014611691,0.08908367,0.0,0.0,0.0
684.17755,461.1283,126958162,0.8125,0.08510638,274.30255,1071.8411,0.013073236,-0.014611691,0.08908367,0.0,0.0,0.0
690.79315,468.94702,126958178,0.7,0.08510638,393.23523,787.6406,0.013073236,-0.014611691,0.08908367,0.0,0.0,0.0
694.25183,472.56006,126958190,0.32500002,0.08510638,452.17776,584.11084,0.013073236,-0.014611691,0.08908367,0.0,0.0,0.0
694.25183,472.56006,126958195,0.32500002,0.08510638,452.17776,584.11084,0.013073236,-0.014611691,0.08908367,0.0,0.0,0.0
649.2665,253.98828,126958373,0.75,0.11702127,0.0,0.0,-0.0055414215,-0.019689366,-0.008733749,0.0,0.0,0.0
649.2665,253.98828,126958396,0.85,0.11702127,0.037249606,0.011898108,-0.0055414215,-0.019689366,-0.008733749,0.0,0.0,0.0
649.2665,253.98828,126958412,0.875,0.09574468,0.024791077,0.007890647,-0.0055414215,-0.019689366,-0.008733749,0.0,0.0,0.0
653.7492,271.6958,126958429,0.8875,0.09574468,205.86111,812.95953,-0.0055414215,-0.019689366,-0.008733749,0.0,0.0,0.0
657.9166,287.47437,126958446,0.8,0.12765957,357.55652,1378.9524,-0.0055414215,-0.019689366,-0.008733749,0.0,0.0,0.0
661.89325,302.31616,126958462,0.3625,0.08510638,377.10016,1446.6077,-0.0055414215,-0.019689366,-0.008733749,0.0,0.0,0.0
661.89325,302.31616,126958472,0.3625,0.08510638,377.10016,1446.6077,-0.0055414215,-0.019689366,-0.008733749,0.0,0.0,0.0
720.7432,460.1211,126958816,0.7,0.10638297,0.0,0.0,-0.0055414215,-0.019689366,-0.008733749,0.0,0.0,0.0
720.7432,460.1211,126958847,0.77500004,0.10638297,-0.029498631,-0.014761443,-0.0055414215,-0.019689366,-0.008733749,0.0,0.0,0.0
720.7432,460.1211,126958864,0.77500004,0.10638297,0.031542916,0.018167268,-0.0055414215,-0.019689366,-0.008733749,0.0,0.0,0.0
720.7432,460.1211,126958880,0.8,0.10638297,-0.0493828,-0.032038063,-0.0055414215,-0.019689366,-0.008733749,0.0,0.0,0.0
720.7432,460.1211,126958897,0.8,0.10638297,1.9441497E-5,-0.0018291346,-0.0044331327,0.02424851,-0.006986618,0.0,0.0,0.0
720.7432,460.1211,126958909,0.83750004,0.10638297,0.027877683,0.014186089,-0.0044331327,0.02424851,-0.006986618,0.0,0.0,0.0
720.7432,460.1211,126958930,0.8625,0.10638297,0.07396492,0.045218445,-0.0044331327,0.02424851,-0.006986618,0.0,0.0,0.0
720.7432,460.1211,126958947,0.8625,0.10638297,0.06694961,0.044922613,-0.0044331327,0.02424851,-0.006986618,0.0,0.0,0.0
729.4785,437.62256,126958964,0.83750004,0.08510638,223.49266,-562.7192,-0.0044331327,0.02424851,-0.006986618,0.0,0.0,0.0
731.26324,422.0819,126958981,0.825,0.09574468,410.89948,-1338.2102,-0.0044331327,0.02424851,-0.006986618,0.0,0.0,0.0
728.63116,406.81726,126958997,0.85,0.12765957,205.40256,-1526.2444,-0.0044331327,0.02424851,-0.006986618,0.0,0.0,0.0
724.9644,391.04126,126959014,0.8,0.08510638,-173.99904,-1327.7424,-0.0044331327,0.02424851,-0.006986618,0.0,0.0,0.0
721.52704,377.22766,126959031,0.8,0.08510638,-466.25458,-892.97864,-0.0044331327,0.02424851,-0.006986618,0.0,0.0,0.0
719.84717,369.3423,126959047,0.8125,0.10638297,-395.7972,-540.3095,-0.0044331327,0.02424851,-0.006986618,0.0,0.0,0.0
720.18036,365.27527,126959064,0.83750004,0.10638297,-94.79495,-317.98523,-0.0044331327,0.02424851,-0.006986618,0.0,0.0,0.0
725.5244,363.31274,126959081,0.8,0.09574468,172.93317,37.745373,-0.0044331327,0.02424851,-0.006986618,0.0,0.0,0.0
742.5174,366.9165,126959098,0.8125,0.09574468,771.90656,301.96393,-0.0044331327,0.02424851,-0.006986618,0.0,0.0,0.0
757.5006,374.36353,126959114,0.85,0.08510638,1196.9324,532.416,-0.0044331327,0.02424851,-0.006986618,0.0,0.0,0.0
776.7724,383.5088,126959131,0.85,0.08510638,1472.7013,743.34344,-0.0044331327,0.02424851,-0.006986618,0.0,0.0,0.0
786.3855,388.84143,126959148,0.83750004,0.10638297,1219.077,714.3695,-0.0044331327,0.02424851,-0.006986618,0.0,0.0,0.0
794.13885,395.63306,126959164,0.8125,0.12765957,677.98596,554.7974,-0.0044331327,0.02424851,-0.006986618,0.0,0.0,0.0
796.93463,406.33032,126959181,0.825,0.10638297,178.69817,476.9658,-0.0044331327,0.02424851,-0.006986618,0.0,0.0,0.0
794.9394,421.56604,126959198,0.83750004,0.08510638,-237.1883,741.8758,-0.0044331327,0.02424851,-0.006986618,0.0,0.0,0.0
787.74664,434.67395,126959215,0.8875,0.09574468,-507.54428,1051.8733,-0.0044331327,0.02424851,-0.006986618,0.0,0.0,0.0
779.3655,448.0276,126959231,0.8625,0.12765957,-744.4738,995.8692,-0.0044331327,0.02424851,-0.006986618,0.0,0.0,0.0
772.60956,460.76868,126959248,0.8625,0.10638297,-782.2757,851.872,-0.0044331327,0.02424851,-0.006986618,0.0,0.0,0.0
768.40027,475.776,126959265,0.8125,0.08510638,-566.28955,785.4103,-0.0044331327,0.02424851,-0.006986618,0.0,0.0,0.0
770.1797,486.3545,126959281,0.7875,0.08510638,-117.39801,781.06915,-0.0044331327,0.02424851,-0.006986618,0.0,0.0,0.0
776.6796,491.19177,126959298,0.7625,0.08510638,325.61047,546.5033,-0.0044331327,0.02424851,-0.006986618,0.0,0.0,0.0
779.2242,492.9956,126959306,0.3375,0.11702127,504.81677,366.10007,-0.0044331327,0.02424851,-0.006986618,0.0,0.0,0.0
779.2242,492.9956,126959314,0.3375,0.11702127,504.81677,366.10007,-0.0044331327,0.02424851,-0.006986618,0.0,0.0,0.0
871.6941,424.58093,126959419,0.65000004,0.07446808,0.0,0.0,-0.0044331327,0.02424851,-0.006986618,0.0,0.0,0.0
871.6941,424.58093,126959449,0.8,0.09574468,-0.04550304,-0.020453075,-0.0044331327,0.02424851,-0.006986618,0.0,0.0,0.0
871.6941,424.58093,126959465,0.825,0.11702127,0.057367,0.029711053,-0.0035465062,0.03539881,-0.005589485,0.0,0.0,0.0
871.6941,424.58093,126959482,0.85,0.12765957,-0.008276614,-0.0046015605,-0.0035465062,0.03539881,-0.005589485,0.0,0.0,0.0
871.6941,424.58093,126959499,0.85,0.12765957,0.009907506,0.004878045,-0.0035465062,0.03539881,-0.005589485,0.0,0.0,0.0
856.85394,415.4845,126959515,0.83750004,0.10638297,-373.5164,-228.95822,-0.0035465062,0.03539881,-0.005589485,0.0,0.0,0.0
845.8429,413.91882,126959532,0.8625,0.09574468,-837.2005,-373.79065,-0.0035465062,0.03539881,-0.005589485,0.0,0.0,0.0
836.884,416.9087,126959549,0.85,0.08510638,-1009.78,-207.57153,-0.0035465062,0.03539881,-0.005589485,0.0,0.0,0.0
826.3556,426.9121,126959566,0.83750004,0.08510638,-919.5355,290.70483,-0.0035465062,0.03539881,-0.005589485,0.0,0.0,0.0
817.8927,442.9021,126959582,0.8,0.12765957,-629.64197,942.3566,-0.0035465062,0.03539881,-0.005589485,0.0,0.0,0.0
814.37524,457.7666,126959599,0.83750004,0.11702127,-285.17984,1360.674,-0.0035465062,0.03539881,-0.005589485,0.0,0.0,0.0
815.1958,472.50098,126959616,0.8625,0.09574468,-44.091827,1251.1459,-0.0035465062,0.03539881,-0.005589485,0.0,0.0,0.0
819.0791,482.9873,126959632,0.85,0.08510638,336.089,966.88007,-0.0035465062,0.03539881,-0.005589485,0.0,0.0,0.0
827.9016,490.84595,126959649,0.8,0.08510638,626.9524,532.52893,-0.0035465062,0.03539881,-0.005589485,0.0,0.0,0.0
845.64655,493.88416,126959666,0.83750004,0.08510638,1028.3816,166.8114,-0.0035465062,0.03539881,-0.005589485,0.0,0.0,0.0
863.1255,486.04626,126959683,0.7875,0.08510638,1349.1937,-290.7356,-0.0035465062,0.03539881,-0.005589485,0.0,0.0,0.0
881.4395,470.25696,126959699,0.83750004,0.09574468,1439.7052,-931.764,-0.0035465062,0.03539881,-0.005589485,0.0,0.0,0.0
894.5525,454.09216,126959716,0.83750004,0.10638297,1282.4803,-1434.1765,-0.0035465062,0.03539881,-0.005589485,0.0,0.0,0.0
905.8919,426.6101,126959733,0.83750004,0.11702127,812.4192,-1840.3354,-0.0035465062,0.03539881,-0.005589485,0.0,0.0,0.0
910.31976,405.70532,126959749,0.83750004,0.11702127,366.18692,-1822.0454,-0.0035465062,0.03539881,-0.005589485,0.0,0.0,0.0
907.33984,392.0625,126959766,0.8625,0.08510638,-134.95642,-1372.2688,-0.0035465062,0.03539881,-0.005589485,0.0,0.0,0.0
902.9914,385.4524,126959783,0.85,0.08510638,-529.71606,-694.182,-0.0035465062,0.03539881,-0.005589485,0.0,0.0,0.0
886.80865,380.72437,126959800,0.8625,0.08510638,-951.60187,-115.862885,-0.0035465062,0.03539881,-0.005589485,0.0,0.0,0.0
870.1158,382.25232,126959816,0.8625,0.09574468,-1280.7408,257.49857,-0.0035465062,0.03539881,-0.005589485,0.0,0.0,0.0
856.9919,387.79993,126959833,0.8625,0.10638297,-1302.707,484.39172,-0.0035465062,0.03539881,-0.005589485,0.0,0.0,0.0
846.4407,394.77588,126959850,0.875,0.10638297,-1016.39417,668.95264,-0.0035465062,0.03539881,-0.005589485,0.0,0.0,0.0
837.78064,403.39575,126959866,0.875,0.09574468,-553.1879,749.07886,-0.0035465062,0.03539881,-0.005589485,0.0,0.0,0.0
833.9325,416.75427,126959883,0.8625,0.08510638,-212.33594,820.76215,-0.0035465062,0.03539881,-0.005589485,0.0,0.0,0.0
835.8987,429.98206,126959900,0.8625,0.08510638,84.41618,930.2125,-0.0035465062,0.03539881,-0.005589485,0.0,0.0,0.0
843.2658,437.55505,126959917,0.83750004,0.10638297,442.09067,833.53613,-0.0035465062,0.03539881,-0.005589485,0.0,0.0,0.0
853.7732,444.16345,126959933,0.83750004,0.11702127,831.2292,528.89764,-0.0035465062,0.03539881,-0.005589485,0.0,0.0,0.0
876.0114,448.73218,126959950,0.83750004,0.10638297,1276.0704,237.16551,-0.0035465062,0.03539881,-0.005589485,0.0,0.0,0.0
898.11127,446.4823,126959967,0.875,0.10638297,1646.2489,-83.41212,-0.0035465062,0.03539881,-0.005589485,0.0,0.0,0.0
914.38367,438.17188,126959983,0.8625,0.09574468,1633.1926,-434.07117,-0.0035465062,0.03539881,-0.005589485,0.0,0.0,0.0
929.3964,423.52307,126960000,0.85,0.09574468,1299.4209,-916.68787,-0.0035465062,0.03539881,-0.005589485,0.0,0.0,0.0
939.4083,410.28784,126960017,0.8625,0.12765957,780.538,-1210.7428,0.013162792,-0.019680947,-0.020471573,0.0,0.0,0.0
947.1181,396.6997,126960034,0.8625,0.08510638,283.19516,-1158.8118,0.013162792,-0.019680947,-0.020471573,0.0,0.0,0.0
953.46594,383.12195,126960050,0.8875,0.08510638,202.64897,-974.051,0.013162792,-0.019680947,-0.020471573,0.0,0.0,0.0
954.4509,375.08875,126960067,0.8625,0.08510638,37.927174,-671.2921,0.013162792,-0.019680947,-0.020471573,0.0,0.0,0.0
954.3287,370.95618,126960084,0.8875,0.08510638,-130.6078,-339.40842,0.013162792,-0.019680947,-0.020471573,0.0,0.0,0.0
953.29315,367.93994,126960100,0.9125,0.10638297,-234.25201,-45.83574,0.013162792,-0.019680947,-0.020471573,0.0,0.0,0.0
951.30164,366.05823,126960117,0.8875,0.08510638,-270.76898,109.495804,0.013162792,-0.019680947,-0.020471573,0.0,0.0,0.0
950.18964,365.9397,126960134,0.875,0.08510638,-205.11815,122.42781,0.013162792,-0.019680947,-0.020471573,0.0,0.0,0.0
949.6687,365.9397,126960151,0.8875,0.08510638,-99.880196,88.18767,0.013162792,-0.019680947,-0.020471573,0.0,0.0,0.0
951.27246,368.79053,126960167,0.8875,0.08510638,5.659612,152.02626,0.013162792,-0.019680947,-0.020471573,0.0,0.0,0.0
964.47253,380.42993,126960184,0.875,0.11702127,404.09122,448.37823,0.013162792,-0.019680947,-0.020471573,0.0,0.0,0.0
980.9973,392.93164,126960200,0.875,0.12765957,960.9255,823.04175,0.013162792,-0.019680947,-0.020471573,0.0,0.0,0.0
998.09485,403.69556,126960217,0.8625,0.10638297,1364.1008,1011.8697,0.013162792,-0.019680947,-0.020471573,0.0,0.0,0.0
1007.3801,411.18433,126960234,0.85,0.08510638,1289.4648,890.3953,0.013162792,-0.019680947,-0.020471573,0.0,0.0,0.0
1014.3002,420.82886,126960250,0.85,0.09574468,734.4922,571.09125,0.013162792,-0.019680947,-0.020471573,0.0,0.0,0.0
1018.9232,433.75464,126960267,0.8625,0.09574468,140.10066,537.4337,0.013162792,-0.019680947,-0.020471573,0.0,0.0,0.0
1019.1461,443.96533,126960284,0.825,0.12765957,-122.50135,682.9732,0.013162792,-0.019680947,-0.020471573,0.0,0.0,0.0
1015.02563,455.8949,126960301,0.825,0.12765957,-303.17136,769.6496,0.013162792,-0.019680947,-0.020471573,0.0,0.0,0.0
1008.09595,464.7047,126960317,0.8625,0.08510638,-520.7797,677.1993,0.013162792,-0.019680947,-0.020471573,0.0,0.0,0.0
993.70557,474.6029,126960334,0.83750004,0.08510638,-858.1315,537.39655,0.013162792,-0.019680947,-0.020471573,0.0,0.0,0.0
980.8618,480.4535,126960351,0.825,0.09574468,-1101.9465,443.19296,0.013162792,-0.019680947,-0.020471573,0.0,0.0,0.0
972.55176,485.0548,126960367,0.8125,0.08510638,-927.34546,262.0793,0.013162792,-0.019680947,-0.020471573,0.0,0.0,0.0
969.4839,485.8877,126960384,0.5625,0.09574468,-492.55984,60.44693,0.013162792,-0.019680947,-0.020471573,0.0,0.0,0.0
969.4839,485.8877,126960391,0.5625,0.09574468,-492.55984,60.44693,0.013162792,-0.019680947,-0.020471573,0.0,0.0,0.0
