x,y,timestamp,pressure,fingerarea,velocityx,velocityy,accelx,accely,accelz,gyrox,gyroy,gyroz
191.41556,260.20776,12779596,0.4375,0.08510638,0.0,0.0,0.013314925,0.004753053,0.5409527,0.0,0.0,0.0
191.41556,260.20776,12779622,0.4875,0.08510638,-6.237035E-4,0.0010374461,0.013314925,0.004753053,0.5409527,0.0,0.0,0.0
191.41556,260.20776,12779639,0.575,0.08510638,0.014497398,0.020675648,0.013314925,0.004753053,0.5409527,0.0,0.0,0.0
191.41556,260.20776,12779655,0.58750004,0.08510638,0.0041957195,0.0052542402,0.013314925,0.004753053,0.5409527,0.0,0.0,0.0
191.41556,260.20776,12779671,0.5,0.08510638,0.012186359,0.01657229,0.013314925,0.004753053,0.5409527,0.0,0.0,0.0
191.41556,260.20776,12779689,0.375,0.08510638,-3.9452504E-4,-2.5530954E-4,0.013314925,0.004753053,0.5409527,0.0,0.0,0.0
191.41556,260.20776,12779706,0.2,0.053191487,-0.0011527222,-0.0021428473,0.013314925,0.004753053,0.5409527,0.0,0.0,0.0
191.41556,260.20776,12779722,0.16250001,0.07446808,-1.6950128E-4,5.8017642E-5,0.013314925,0.004753053,0.5409527,0.0,0.0,0.0
191.41556,260.20776,12779739,0.175,0.053191487,-0.0028325662,-0.0040467354,0.013314925,0.004753053,0.5409527,0.0,0.0,0.0
191.41556,260.20776,12779756,0.475,0.07446808,-0.005143365,-0.0072425795,0.013314925,0.004753053,0.5409527,0.0,0.0,0.0
191.41556,260.20776,12779772,0.625,0.07446808,0.001792526,0.0014309986,0.013314925,0.004753053,0.5409527,0.0,0.0,0.0
191.41556,260.20776,12779789,0.675,0.08510638,-2.1850827E-4,0.0010840726,0.010651942,0.0038024485,0.41676235,0.0,0.0,0.0
191.41556,260.20776,12779806,0.7375,0.08510638,0.0012723244,0.0027502612,0.010651942,0.0038024485,0.41676235,0.0,0.0,0.0
191.41556,260.20776,12779816,0.75,0.08510638,0.003054462,0.0037184535,0.010651942,0.0038024485,0.41676235,0.0,0.0,0.0
174.88686,268.48413,12779839,0.77500004,0.08510638,-495.50027,242.46213,0.010651942,0.0038024485,0.41676235,0.0,0.0,0.0
169.42294,274.86768,12779856,0.7625,0.10638297,-726.0103,441.7423,0.010651942,0.0038024485,0.41676235,0.0,0.0,0.0
165.52087,286.51855,12779873,0.7625,0.10638297,-565.7609,703.52325,0.010651942,0.0038024485,0.41676235,0.0,0.0,0.0
164.42433,299.6864,12779889,0.77500004,0.10638297,-146.05556,890.1848,0.010651942,0.0038024485,0.41676235,0.0,0.0,0.0
163.54333,318.51648,12779906,0.77500004,0.08510638,141.93633,1111.8622,0.010651942,0.0038024485,0.41676235,0.0,0.0,0.0
162.50577,334.5818,12779923,0.7875,0.10638297,71.56974,1270.0583,0.010651942,0.0038024485,0.41676235,0.0,0.0,0.0
161.92516,353.51636,12779939,0.77500004,0.10638297,39.464718,1245.5969,0.010651942,0.0038024485,0.41676235,0.0,0.0,0.0
161.92516,379.28223,12779956,0.77500004,0.08510638,3.3808386,1420.5696,0.010651942,0.0038024485,0.41676235,0.0,0.0,0.0
161.38736,396.82336,12779973,0.7875,0.12765957,-5.9218416,1387.5734,0.010651942,0.0038024485,0.41676235,0.0,0.0,0.0
161.02043,415.27856,12779990,0.77500004,0.08510638,2.9377313,1302.6506,0.010651942,0.0038024485,0.41676235,0.0,0.0,0.0
159.1827,440.07056,12780006,0.8,0.10638297,-53.774853,1320.2299,0.010651942,0.0038024485,0.41676235,0.0,0.0,0.0
157.50438,459.4298,12780023,0.7875,0.10638297,-110.89158,1197.7513,0.010651942,0.0038024485,0.41676235,0.0,0.0,0.0
157.018,483.13757,12780040,0.8,0.08510638,-102.02032,1280.0106,0.010651942,0.0038024485,0.41676235,0.0,0.0,0.0
155.1905,500.3374,12780056,0.7875,0.12765957,-99.165054,1285.292,0.010651942,0.0038024485,0.41676235,0.0,0.0,0.0
154.15977,517.3032,12780073,0.7875,0.09574468,-78.455414,1058.5349,0.010651942,0.0038024485,0.41676235,0.0,0.0,0.0
153.42792,535.82983,12780090,0.77500004,0.08510638,-62.55555,1005.4837,0.010651942,0.0038024485,0.41676235,0.0,0.0,0.0
153.06554,548.3937,12780107,0.7375,0.11702127,-26.809677,796.6254,0.010651942,0.0038024485,0.41676235,0.0,0.0,0.0
152.92807,551.63684,12780117,0.5,0.12765957,-13.679284,629.103,0.010651942,0.0038024485,0.41676235,0.0,0.0,0.0
152.92807,551.63684,12780124,0.5,0.12765957,-13.679284,629.103,0.010651942,0.0038024485,0.41676235,0.0,0.0,0.0
174.42108,312.62952,12780464,0.4875,0.07446808,0.0,0.0,0.024521552,0.0030419528,0.36540985,0.0,0.0,0.0
174.42108,312.62952,12780491,0.6375,0.08510638,-0.0034735508,-0.0034173245,0.024521552,0.0030419528,0.36540985,0.0,0.0,0.0
174.42108,312.62952,12780507,0.675,0.10638297,0.013620757,0.024315642,0.024521552,0.0030419528,0.36540985,0.0,0.0,0.0
173.58957,304.25378,12780524,0.725,0.10638297,-27.890036,-280.9844,0.024521552,0.0030419528,0.36540985,0.0,0.0,0.0
174.08238,287.78052,12780541,0.725,0.08510638,-30.849916,-999.082,0.024521552,0.0030419528,0.36540985,0.0,0.0,0.0
177.14696,276.52625,12780558,0.75,0.06382979,83.358604,-1141.5437,0.024521552,0.0030419528,0.36540985,0.0,0.0,0.0
180.6104,267.86426,12780574,0.7625,0.08510638,218.65726,-1042.9728,0.024521552,0.0030419528,0.36540985,0.0,0.0,0.0
185.11528,259.85657,12780591,0.7625,0.10638297,325.16003,-611.89545,0.024521552,0.0030419528,0.36540985,0.0,0.0,0.0
190.3811,253.13684,12780608,0.7625,0.12765957,390.06168,-258.43082,0.024521552,0.0030419528,0.36540985,0.0,0.0,0.0
196.11603,249.42615,12780625,0.7875,0.12765957,383.3297,-227.50244,0.024521552,0.0030419528,0.36540985,0.0,0.0,0.0
201.28583,248.65723,12780641,0.77500004,0.10638297,382.61313,-66.73432,0.024521552,0.0030419528,0.36540985,0.0,0.0,0.0
207.64365,251.7572,12780658,0.77500004,0.08510638,383.3083,170.54561,0.024521552,0.0030419528,0.36540985,0.0,0.0,0.0
213.9371,262.03613,12780675,0.77500004,0.08510638,381.28052,549.625,0.024521552,0.0030419528,0.36540985,0.0,0.0,0.0
223.73737,284.3639,12780691,0.77500004,0.10638297,490.53812,1129.8539,0.024521552,0.0030419528,0.36540985,0.0,0.0,0.0
230.30988,306.4961,12780708,0.77500004,0.08510638,548.48413,1714.9493,0.024521552,0.0030419528,0.36540985,0.0,0.0,0.0
234.67874,326.08643,12780725,0.77500004,0.08510638,428.35593,1814.875,0.024521552,0.0030419528,0.36540985,0.0,0.0,0.0
238.65283,341.07104,12780742,0.75,0.10638297,234.73694,1391.3315,0.024521552,0.0030419528,0.36540985,0.0,0.0,0.0
242.77826,354.23633,12780758,0.77500004,0.08510638,110.77872,825.1879,0.024521552,0.0030419528,0.36540985,0.0,0.0,0.0
248.29868,365.55237,12780775,0.7625,0.07446808,178.4214,490.79324,0.024521552,0.0030419528,0.36540985,0.0,0.0,0.0
252.50797,370.85742,12780792,0.77500004,0.08510638,271.75656,309.49808,0.024521552,0.0030419528,0.36540985,0.0,0.0,0.0
260.13367,375.59802,12780808,0.7625,0.07446808,370.2099,163.24123,0.024521552,0.0030419528,0.36540985,0.0,0.0,0.0
271.5744,375.68335,12780825,0.7625,0.06382979,579.11005,-49.843575,0.024521552,0.0030419528,0.36540985,0.0,0.0,0.0
284.5417,369.9934,12780842,0.7625,0.08510638,817.80096,-342.65717,0.024521552,0.0030419528,0.36540985,0.0,0.0,0.0
299.11688,360.65222,12780859,0.7375,0.12765957,1007.2544,-653.1302,0.01961724,0.018433556,0.2603283,0.0,0.0,0.0
308.80157,349.65295,12780875,0.75,0.11702127,917.25275,-873.95776,0.01961724,0.018433556,0.2603283,0.0,0.0,0.0
320.71652,331.57068,12780892,0.77500004,0.08510638,740.93884,-1138.8276,0.01961724,0.018433556,0.2603283,0.0,0.0,0.0
334.06314,313.54944,12780909,0.77500004,0.10638297,702.29584,-1316.167,0.01961724,0.018433556,0.2603283,0.0,0.0,0.0
342.88547,301.05334,12780925,0.77500004,0.10638297,644.7804,-1183.9883,0.01961724,0.018433556,0.2603283,0.0,0.0,0.0
349.58038,291.42932,12780942,0.8,0.08510638,513.9297,-822.00916,0.01961724,0.018433556,0.2603283,0.0,0.0,0.0
353.81967,285.16235,12780959,0.77500004,0.08510638,245.79333,-354.49597,0.01961724,0.018433556,0.2603283,0.0,0.0,0.0
356.06473,281.1715,12780976,0.77500004,0.08510638,18.570637,-64.96687,0.01961724,0.018433556,0.2603283,0.0,0.0,0.0
357.24243,279.078,12780992,0.7875,0.08510638,-56.69138,23.736513,0.01961724,0.018433556,0.2603283,0.0,0.0,0.0
357.3615,279.71484,12781009,0.7875,0.08510638,-104.92724,125.7811,0.01961724,0.018433556,0.2603283,0.0,0.0,0.0
356.38406,284.13806,12781026,0.8,0.12765957,-120.00781,274.61105,0.01961724,0.018433556,0.2603283,0.0,0.0,0.0
352.70694,298.0796,12781042,0.7875,0.08510638,-201.49268,665.051,0.01961724,0.018433556,0.2603283,0.0,0.0,0.0
346.27887,319.89526,12781059,0.77500004,0.08510638,-367.4949,1255.2449,0.01961724,0.018433556,0.2603283,0.0,0.0,0.0
340.19968,336.62097,12781076,0.7875,0.10638297,-496.45407,1568.7438,0.01961724,0.018433556,0.2603283,0.0,0.0,0.0
334.26172,361.3181,12781093,0.77500004,0.08510638,-507.30237,1680.3821,0.01961724,0.018433556,0.2603283,0.0,0.0,0.0
327.70862,388.1858,12781109,0.77500004,0.10638297,-474.0644,1771.3774,0.01961724,0.018433556,0.2603283,0.0,0.0,0.0
322.7097,414.72668,12781126,0.7875,0.08510638,-356.93292,1729.7976,0.01961724,0.018433556,0.2603283,0.0,0.0,0.0
318.2829,442.838,12781143,0.77500004,0.11702127,-286.23456,1864.6648,0.01961724,0.018433556,0.2603283,0.0,0.0,0.0
314.66855,469.77185,12781159,0.7625,0.09574468,-210.42442,1737.2728,0.01961724,0.018433556,0.2603283,0.0,0.0,0.0
311.70575,495.40015,12781176,0.77500004,0.11702127,-134.46451,1617.14,0.01961724,0.018433556,0.2603283,0.0,0.0,0.0
308.73822,516.87195,12781193,0.7625,0.10638297,-119.35141,1400.7401,0.01961724,0.018433556,0.2603283,0.0,0.0,0.0
306.10764,539.48,12781209,0.75,0.07446808,-124.04894,1232.7539,0.01961724,0.018433556,0.2603283,0.0,0.0,0.0
303.48056,555.5382,12781226,0.725,0.12765957,-128.2963,1030.9509,0.01961724,0.018433556,0.2603283,0.0,0.0,0.0
302.87927,558.7449,12781236,0.3,0.12765957,-120.255844,814.51337,0.01961724,0.018433556,0.2603283,0.0,0.0,0.0
302.87927,558.7449,12781243,0.3,0.12765957,-120.255844,814.51337,0.01961724,0.018433556,0.2603283,0.0,0.0,0.0
408.84476,431.68896,12781605,0.6,0.053191487,0.0,0.0,-3.062077E-4,-0.017253146,0.28826237,0.0,0.0,0.0
408.84476,431.68896,12781627,0.65000004,0.06382979,-0.015950555,-0.014071316,-3.062077E-4,-0.017253146,0.28826237,0.0,0.0,0.0
408.84476,431.68896,12781644,0.7,0.06382979,-0.015368817,-0.01495671,-3.062077E-4,-0.017253146,0.28826237,0.0,0.0,0.0
408.84476,431.68896,12781661,0.71250004,0.06382979,-0.021389667,-0.019368043,-3.062077E-4,-0.017253146,0.28826237,0.0,0.0,0.0
408.84476,431.68896,12781677,0.725,0.06382979,0.014366969,0.012838852,-3.062077E-4,-0.017253146,0.28826237,0.0,0.0,0.0
408.84476,431.68896,12781691,0.75,0.08510638,-9.976688E-4,-4.7255977E-4,-3.062077E-4,-0.017253146,0.28826237,0.0,0.0,0.0
408.84476,431.68896,12781711,0.725,0.09574468,0.021949323,0.022493998,-3.062077E-4,-0.017253146,0.28826237,0.0,0.0,0.0
408.84476,431.68896,12781727,0.7375,0.12765957,0.04173698,0.045219637,-3.062077E-4,-0.017253146,0.28826237,0.0,0.0,0.0
433.072,441.46252,12781778,0.7375,0.09574468,573.27673,243.29463,-3.062077E-4,-0.017253146,0.28826237,0.0,0.0,0.0
445.8495,437.89844,12781794,0.7375,0.08510638,1197.7083,171.97354,-3.062077E-4,-0.017253146,0.28826237,0.0,0.0,0.0
454.56268,430.01147,12781811,0.75,0.08510638,1065.8202,-346.63583,-3.062077E-4,-0.017253146,0.28826237,0.0,0.0,0.0
458.98285,418.42676,12781828,0.75,0.09574468,-155.98878,-1062.1907,-3.062077E-4,-0.017253146,0.28826237,0.0,0.0,0.0
459.09558,406.45813,12781844,0.725,0.10638297,-322.47958,-1093.0813,-3.062077E-4,-0.017253146,0.28826237,0.0,0.0,0.0
455.77557,398.52026,12781861,0.7625,0.08510638,-504.21283,-968.04,-3.062077E-4,-0.017253146,0.28826237,0.0,0.0,0.0
447.86633,389.56824,12781878,0.77500004,0.08510638,-593.5389,-616.98303,-3.062077E-4,-0.017253146,0.28826237,0.0,0.0,0.0
436.04382,383.77136,12781894,0.77500004,0.09574468,-820.50555,-400.57852,-3.062077E-4,-0.017253146,0.28826237,0.0,0.0,0.0
423.02182,385.57385,12781911,0.7625,0.08510638,-995.1719,-50.157368,-3.062077E-4,-0.017253146,0.28826237,0.0,0.0,0.0
406.39838,392.15515,12781928,0.77500004,0.10638297,-1135.6447,358.29584,-2.449639E-4,0.0021974742,0.08660984,0.0,0.0,0.0
390.37158,403.49475,12781945,0.7625,0.10638297,-1175.4392,798.6675,-2.449639E-4,0.0021974742,0.08660984,0.0,0.0,0.0
376.20047,426.63318,12781961,0.75,0.09574468,-1033.4053,1302.6208,-2.449639E-4,0.0021974742,0.08660984,0.0,0.0,0.0
369.95422,444.9934,12781978,0.75,0.12765957,-720.6619,1601.6299,-2.449639E-4,0.0021974742,0.08660984,0.0,0.0,0.0
365.91708,465.2224,12781995,0.75,0.08510638,-320.9441,1651.0369,-2.449639E-4,0.0021974742,0.08660984,0.0,0.0,0.0
365.6335,486.23865,12782012,0.75,0.09574468,95.807755,1507.8873,-2.449639E-4,0.0021974742,0.08660984,0.0,0.0,0.0
368.30185,499.01575,12782028,0.75,0.12765957,330.22775,1082.7592,-2.449639E-4,0.0021974742,0.08660984,0.0,0.0,0.0
372.75986,508.1936,12782045,0.7375,0.12765957,477.4228,585.3341,-2.449639E-4,0.0021974742,0.08660984,0.0,0.0,0.0
383.74408,516.9208,12782062,0.75,0.09574468,627.543,287.17593,-2.449639E-4,0.0021974742,0.08660984,0.0,0.0,0.0
401.4919,522.07544,12782078,0.75,0.08510638,990.75995,117.01781,-2.449639E-4,0.0021974742,0.08660984,0.0,0.0,0.0
418.21393,519.8269,12782095,0.725,0.11702127,1288.3749,-41.918053,-2.449639E-4,0.0021974742,0.08660984,0.0,0.0,0.0
438.2239,506.84814,12782112,0.175,0.07446808,1451.4298,-579.59515,-2.449639E-4,0.0021974742,0.08660984,0.0,0.0,0.0
438.2239,506.84814,12782119,0.175,0.07446808,1451.4298,-579.59515,-2.449639E-4,0.0021974742,0.08660984,0.0,0.0,0.0
501.8145,240.66077,12782377,0.7625,0.10638297,0.0,0.0,-2.449639E-4,0.0021974742,0.08660984,0.0,0.0,0.0
501.8145,240.66077,12782396,0.7875,0.10638297,0.20940699,0.10587489,-2.449639E-4,0.0021974742,0.08660984,0.0,0.0,0.0
501.8145,240.66077,12782413,0.83750004,0.10638297,-0.046394043,-0.022851761,-2.449639E-4,0.0021974742,0.08660984,0.0,0.0,0.0
501.8145,240.66077,12782429,0.825,0.11702127,-0.007723072,-0.0034917358,-2.449639E-4,0.0021974742,0.08660984,0.0,0.0,0.0
501.8145,240.66077,12782445,0.8125,0.10638297,0.016695356,0.008505526,-2.449639E-4,0.0021974742,0.08660984,0.0,0.0,0.0
499.56635,252.64966,12782463,0.7875,0.09574468,-47.849983,255.20177,-1.959689E-4,-0.014242023,0.18128681,0.0,0.0,0.0
496.93616,268.45276,12782479,0.625,0.08510638,-173.20042,980.8892,-1.959689E-4,-0.014242023,0.18128681,0.0,0.0,0.0
496.8161,269.0929,12782481,0.3375,0.12765957,-176.20543,1002.905,-1.959689E-4,-0.014242023,0.18128681,0.0,0.0,0.0
496.8161,269.0929,12782489,0.3375,0.12765957,-176.20543,1002.905,-1.959689E-4,-0.014242023,0.18128681,0.0,0.0,0.0
435.33615,514.3197,12783845,0.625,0.12765957,0.0,0.0,-0.0033254214,-0.012314901,0.061624527,0.0,0.0,0.0
435.33615,514.3197,12783866,0.6625,0.12765957,-0.08884914,-0.10204301,-0.0033254214,-0.012314901,0.061624527,0.0,0.0,0.0
435.33615,514.3197,12783883,0.6875,0.10638297,3.3031247E-4,-0.0059942254,-0.0033254214,-0.012314901,0.061624527,0.0,0.0,0.0
454.2967,501.7787,12783900,0.675,0.08510638,846.3395,-559.7646,-0.0033254214,-0.012314901,0.061624527,0.0,0.0,0.0
470.04456,488.80212,12783917,0.7,0.08510638,1503.6704,-1087.6002,-0.0033254214,-0.012314901,0.061624527,0.0,0.0,0.0
485.65173,475.87122,12783933,0.71250004,0.09574468,1467.334,-1156.5156,-0.0033254214,-0.012314901,0.061624527,0.0,0.0,0.0
502.2284,462.96448,12783950,0.71250004,0.10638297,1342.4572,-1093.4579,-0.0033254214,-0.012314901,0.061624527,0.0,0.0,0.0
514.87933,451.08826,12783967,0.725,0.08510638,1038.6067,-908.46375,-0.0033254214,-0.012314901,0.061624527,0.0,0.0,0.0
520.5636,439.85217,12783983,0.7375,0.09574468,486.36032,-646.5536,-0.0033254214,-0.012314901,0.061624527,0.0,0.0,0.0
529.2773,421.187,12784000,0.725,0.11702127,339.08835,-810.5558,-0.0033254214,-0.012314901,0.061624527,0.0,0.0,0.0
531.7393,412.8766,12784017,0.7375,0.12765957,93.77805,-809.76495,-0.0033254214,-0.012314901,0.061624527,0.0,0.0,0.0
533.5615,403.63586,12784034,0.7375,0.11702127,5.089175,-684.2652,-0.0033254214,-0.012314901,0.061624527,0.0,0.0,0.0
533.8041,395.29102,12784050,0.7375,0.09574468,-48.642887,-481.94586,-0.0033254214,-0.012314901,0.061624527,0.0,0.0,0.0
532.9749,387.28455,12784067,0.7375,0.09574468,-165.17072,-330.45828,-0.03466034,-0.009851918,0.09729862,0.0,0.0,0.0
531.43054,383.04468,12784084,0.7625,0.08510638,-200.83044,-273.16306,-0.03466034,-0.009851918,0.09729862,0.0,0.0,0.0
530.08545,381.2932,12784100,0.77500004,0.08510638,-164.78758,-124.63876,-0.03466034,-0.009851918,0.09729862,0.0,0.0,0.0
527.8994,379.35022,12784117,0.7625,0.08510638,-162.29471,27.689495,-0.03466034,-0.009851918,0.09729862,0.0,0.0,0.0
526.81573,379.2672,12784134,0.7625,0.08510638,-130.15578,105.97963,-0.03466034,-0.009851918,0.09729862,0.0,0.0,0.0
526.3065,383.89148,12784150,0.7625,0.08510638,-68.54407,216.71562,-0.03466034,-0.009851918,0.09729862,0.0,0.0,0.0
528.5255,391.33838,12784167,0.7625,0.12765957,49.650143,427.9356,-0.03466034,-0.009851918,0.09729862,0.0,0.0,0.0
534.54346,404.79028,12784184,0.7375,0.09574468,276.80035,776.36896,-0.03466034,-0.009851918,0.09729862,0.0,0.0,0.0
543.6114,420.35742,12784201,0.725,0.06382979,549.72687,1099.6663,-0.03466034,-0.009851918,0.09729862,0.0,0.0,0.0
555.7438,438.58752,12784217,0.71250004,0.10638297,784.176,1264.5564,-0.03466034,-0.009851918,0.09729862,0.0,0.0,0.0
567.1081,455.82666,12784234,0.71250004,0.08510638,923.3619,1291.8071,-0.03466034,-0.009851918,0.09729862,0.0,0.0,0.0
579.8755,478.9331,12784251,0.7,0.08510638,929.7934,1398.7637,-0.03466034,-0.009851918,0.09729862,0.0,0.0,0.0
587.9053,494.09534,12784267,0.7,0.11702127,718.3186,1252.8329,-0.03466034,-0.009851918,0.09729862,0.0,0.0,0.0
592.8166,505.54736,12784284,0.6875,0.12765957,412.7153,924.75903,-0.03466034,-0.009851918,0.09729862,0.0,0.0,0.0
594.6714,513.5171,12784301,0.7,0.10638297,64.98153,462.35678,-0.03466034,-0.009851918,0.09729862,0.0,0.0,0.0
595.28406,520.8635,12784318,0.7,0.08510638,-123.3358,187.96632,-0.03466034,-0.009851918,0.09729862,0.0,0.0,0.0
593.86365,525.7296,12784334,0.71250004,0.08510638,-224.02557,106.593796,-0.03466034,-0.009851918,0.09729862,0.0,0.0,0.0
590.75507,529.4424,12784351,0.7,0.07446808,-285.91803,106.685356,-0.03466034,-0.009851918,0.09729862,0.0,0.0,0.0
584.36584,534.1478,12784368,0.71250004,0.06382979,-383.58542,136.51735,-0.03466034,-0.009851918,0.09729862,0.0,0.0,0.0
570.9754,538.64355,12784384,0.7,0.06382979,-685.02356,187.77852,-0.03466034,-0.009851918,0.09729862,0.0,0.0,0.0
555.8217,539.1979,12784401,0.71250004,0.07446808,-1013.61786,129.3458,-0.03466034,-0.009851918,0.09729862,0.0,0.0,0.0
547.29553,535.86414,12784418,0.71250004,0.08510638,-1014.7834,-65.34509,-0.03466034,-0.009851918,0.09729862,0.0,0.0,0.0
542.166,533.4905,12784435,0.6625,0.08510638,-700.8479,-270.19403,-0.03466034,-0.009851918,0.09729862,0.0,0.0,0.0
540.30194,532.08984,12784447,0.25,0.11702127,-340.86255,-353.6969,-0.03466034,-0.009851918,0.09729862,0.0,0.0,0.0
540.30194,532.08984,12784454,0.25,0.11702127,-340.86255,-353.6969,-0.03466034,-0.009851918,0.09729862,0.0,0.0,0.0
574.2909,437.90845,12784656,0.625,0.06382979,0.0,0.0,0.004271727,0.008118466,0.04583931,0.0,0.0,0.0
574.2909,437.90845,12784685,0.6875,0.06382979,-0.006828733,-0.0043577296,0.004271727,0.008118466,0.04583931,0.0,0.0,0.0
574.2909,437.90845,12784700,0.71250004,0.08510638,0.060724784,0.04707048,0.004271727,0.008118466,0.04583931,0.0,0.0,0.0
573.0724,409.9496,12784719,0.71250004,0.10638297,-79.93187,-1420.2871,0.004271727,0.008118466,0.04583931,0.0,0.0,0.0
578.78253,395.53003,12784735,0.71250004,0.08510638,138.52448,-1527.8143,0.004271727,0.008118466,0.04583931,0.0,0.0,0.0
585.0642,383.21802,12784752,0.725,0.08510638,353.74323,-1375.3903,0.004271727,0.008118466,0.04583931,0.0,0.0,0.0
595.35205,372.09875,12784769,0.725,0.08510638,654.1146,-934.33875,0.004271727,0.008118466,0.04583931,0.0,0.0,0.0
608.4177,365.6781,12784785,0.7375,0.08510638,891.0357,-411.39377,0.004271727,0.008118466,0.04583931,0.0,0.0,0.0
623.08044,366.09436,12784802,0.725,0.08510638,986.83124,-71.97969,0.004271727,0.008118466,0.04583931,0.0,0.0,0.0
635.95355,376.20483,12784819,0.71250004,0.09574468,1006.16504,475.65106,0.004271727,0.008118466,0.04583931,0.0,0.0,0.0
647.6633,389.4082,12784836,0.7,0.12765957,899.893,1015.50446,0.004271727,0.008118466,0.04583931,0.0,0.0,0.0
660.70874,418.6908,12784852,0.71250004,0.06382979,775.0136,1673.7284,0.004271727,0.008118466,0.04583931,0.0,0.0,0.0
664.0075,438.72217,12784869,0.71250004,0.09574468,472.49274,1960.7615,0.004271727,0.008118466,0.04583931,0.0,0.0,0.0
662.8987,455.83875,12784886,0.7,0.10638297,29.218029,1652.0188,0.004271727,0.008118466,0.04583931,0.0,0.0,0.0
656.963,470.125,12784902,0.7,0.07446808,-458.4725,1105.6923,0.004271727,0.008118466,0.04583931,0.0,0.0,0.0
650.3373,480.01746,12784919,0.71250004,0.08510638,-761.779,521.901,0.004271727,0.008118466,0.04583931,0.0,0.0,0.0
641.6058,489.6693,12784936,0.71250004,0.08510638,-803.6474,305.9424,0.004271727,0.008118466,0.04583931,0.0,0.0,0.0
632.7346,496.24133,12784953,0.7375,0.09574468,-712.37994,294.7701,0.004271727,0.008118466,0.04583931,0.0,0.0,0.0
627.8296,498.30176,12784969,0.71250004,0.09574468,-559.40784,122.5489,0.004271727,0.008118466,0.04583931,0.0,0.0,0.0
625.7569,498.32666,12784986,0.71250004,0.08510638,-257.2933,-75.08231,0.004271727,0.008118466,0.04583931,0.0,0.0,0.0
625.2743,496.4314,12785003,0.71250004,0.06382979,5.300581,-246.21634,0.004271727,0.008118466,0.04583931,0.0,0.0,0.0
630.4039,493.51025,12785019,0.71250004,0.07446808,297.75015,-334.47998,0.004271727,0.008118466,0.04583931,0.0,0.0,0.0
643.0515,488.93457,12785036,0.7375,0.07446808,669.52704,-368.9884,0.004271727,0.008118466,0.04583931,0.0,0.0,0.0
660.2226,487.9934,12785053,0.7375,0.06382979,1101.0265,-294.6182,0.004271727,0.008118466,0.04583931,0.0,0.0,0.0
678.6199,492.01538,12785070,0.725,0.08510638,1446.1548,21.425146,0.004271727,0.008118466,0.04583931,0.0,0.0,0.0
691.68286,496.17932,12785086,0.75,0.09574468,1305.693,330.87988,0.004271727,0.008118466,0.04583931,0.0,0.0,0.0
703.1735,500.29236,12785103,0.7375,0.10638297,916.24365,482.20673,0.004271727,0.008118466,0.04583931,0.0,0.0,0.0
713.1439,504.80225,12785120,0.7375,0.10638297,544.64185,425.60648,0.004271727,0.008118466,0.04583931,0.0,0.0,0.0
721.2376,508.47827,12785136,0.75,0.10638297,361.07553,278.18622,0.035417378,0.0064947754,0.06867123,0.0,0.0,0.0
726.8557,510.62878,12785153,0.725,0.10638297,276.7941,181.95094,0.035417378,0.0064947754,0.06867123,0.0,0.0,0.0
730.16724,511.65417,12785170,0.675,0.10638297,173.72073,84.42657,0.035417378,0.0064947754,0.06867123,0.0,0.0,0.0
731.2398,511.65417,12785178,0.2875,0.10638297,88.47595,24.216831,0.035417378,0.0064947754,0.06867123,0.0,0.0,0.0
731.2398,511.65417,12785186,0.2875,0.10638297,88.47595,24.216831,0.035417378,0.0064947754,0.06867123,0.0,0.0,0.0
635.27106,422.80396,12785331,0.7,0.08510638,0.0,0.0,0.035417378,0.0064947754,0.06867123,0.0,0.0,0.0
635.27106,422.80396,12785354,0.725,0.08510638,0.009747592,0.0053464137,0.035417378,0.0064947754,0.06867123,0.0,0.0,0.0
635.27106,422.80396,12785368,0.75,0.11702127,0.04171773,0.023856513,0.035417378,0.0064947754,0.06867123,0.0,0.0,0.0
659.66907,416.8512,12785387,0.7375,0.10638297,1053.3137,-257.0067,0.035417378,0.0064947754,0.06867123,0.0,0.0,0.0
678.629,415.69592,12785404,0.7375,0.08510638,1725.8986,-281.5684,0.035417378,0.0064947754,0.06867123,0.0,0.0,0.0
695.84485,418.57727,12785420,0.675,0.08510638,1699.4093,-58.836433,0.035417378,0.0064947754,0.06867123,0.0,0.0,0.0
697.75073,418.36133,12785428,0.375,0.08510638,1607.9841,-14.050948,0.035417378,0.0064947754,0.06867123,0.0,0.0,0.0
697.75073,418.36133,12785435,0.375,0.08510638,1607.9841,-14.050948,0.035417378,0.0064947754,0.06867123,0.0,0.0,0.0
862.1972,410.36487,12785701,0.58750004,0.12765957,0.0,0.0,-0.0036660917,0.021195814,0.006937027,0.0,0.0,0.0
862.1972,410.36487,12785721,0.6375,0.12765957,0.079255335,0.043841653,-0.0036660917,0.021195814,0.006937027,0.0,0.0,0.0
862.1972,410.36487,12785738,0.675,0.10638297,-0.015013175,-0.007706797,-0.0036660917,0.021195814,0.006937027,0.0,0.0,0.0
862.1972,410.36487,12785755,0.7,0.08510638,-0.015358608,-0.00702829,-0.0036660917,0.021195814,0.006937027,0.0,0.0,0.0
835.45636,390.74792,12785772,0.7,0.08510638,-1103.9384,-842.177,-0.0036660917,0.021195814,0.006937027,0.0,0.0,0.0
819.4417,385.67224,12785788,0.7,0.08510638,-1474.1539,-877.0594,-0.0036660917,0.021195814,0.006937027,0.0,0.0,0.0
798.94836,385.469,12785805,0.71250004,0.08510638,-1630.5785,-505.99768,-0.0036660917,0.021195814,0.006937027,0.0,0.0,0.0
774.48303,389.16077,12785822,0.7,0.08510638,-1673.8721,83.601036,-0.0036660917,0.021195814,0.006937027,0.0,0.0,0.0
759.14374,395.81213,12785839,0.71250004,0.12765957,-1218.6615,708.0901,-0.0036660917,0.021195814,0.006937027,0.0,0.0,0.0
747.1497,404.06006,12785855,0.725,0.09574468,-927.14825,825.85486,-0.0036660917,0.021195814,0.006937027,0.0,0.0,0.0
736.45087,417.47498,12785872,0.7375,0.06382979,-676.5123,875.0439,-0.0036660917,0.021195814,0.006937027,0.0,0.0,0.0
725.92523,436.96545,12785888,0.725,0.09574468,-378.72473,1126.4642,-0.0036660917,0.021195814,0.006937027,0.0,0.0,0.0
722.74255,452.4104,12785905,0.725,0.10638297,-206.14185,1290.6464,-0.0036660917,0.021195814,0.006937027,0.0,0.0,0.0
724.49786,465.4729,12785922,0.71250004,0.08510638,19.231726,1190.1061,-0.0036660917,0.021195814,0.006937027,0.0,0.0,0.0
729.556,472.84058,12785938,0.7,0.06382979,391.88303,784.2664,-0.0036660917,0.021195814,0.006937027,0.0,0.0,0.0
740.84845,479.94653,12785955,0.725,0.08510638,813.43585,278.3166,-0.0036660917,0.021195814,0.006937027,0.0,0.0,0.0
756.2835,479.89893,12785972,0.71250004,0.07446808,1096.2301,-37.931316,-0.0036660917,0.021195814,0.006937027,0.0,0.0,0.0
772.1496,473.38416,12785989,0.725,0.08510638,1237.6141,-364.36874,-0.0036660917,0.021195814,0.006937027,0.0,0.0,0.0
786.54553,463.0382,12786005,0.7,0.12765957,1238.0455,-762.7123,-0.0036660917,0.021195814,0.006937027,0.0,0.0,0.0
797.35406,450.02527,12786022,0.71250004,0.09574468,963.6368,-1068.8933,-0.0036660917,0.021195814,0.006937027,0.0,0.0,0.0
805.46576,429.17114,12786039,0.725,0.09574468,551.1652,-1300.4318,-0.0036660917,0.021195814,0.006937027,0.0,0.0,0.0
808.8492,419.66003,12786055,0.725,0.11702127,211.76262,-1189.8488,-0.0036660917,0.021195814,0.006937027,0.0,0.0,0.0
809.8239,415.3059,12786072,0.7375,0.12765957,-56.372692,-718.95154,-0.0036660917,0.021195814,0.006937027,0.0,0.0,0.0
809.71423,413.66003,12786089,0.725,0.11702127,-190.9153,-155.80313,-0.0036660917,0.021195814,0.006937027,0.0,0.0,0.0
809.71423,413.0304,12786106,0.7375,0.11702127,-210.77225,257.08646,-0.0036660917,0.021195814,0.006937027,0.0,0.0,0.0
809.71423,421.02856,12786122,0.75,0.09574468,-153.14496,515.3211,-0.0036660917,0.021195814,0.006937027,0.0,0.0,0.0
810.2141,438.11902,12786139,0.7375,0.11702127,-14.085348,912.4802,-0.0036660917,0.021195814,0.006937027,0.0,0.0,0.0
811.32446,455.23096,12786156,0.725,0.12765957,39.71993,1374.7091,-0.0036660917,0.021195814,0.006937027,0.0,0.0,0.0
813.39764,474.19995,12786172,0.71250004,0.09574468,108.93741,1569.2595,-0.0036660917,0.021195814,0.006937027,0.0,0.0,0.0
816.73114,486.59656,12786189,0.7,0.08510638,190.507,1266.5143,-0.0036660917,0.021195814,0.006937027,0.0,0.0,0.0
820.2843,491.65247,12786206,0.6875,0.08510638,250.31102,619.84705,0.013067126,0.016956642,0.037549973,0.0,0.0,0.0
827.07806,494.71472,12786223,0.5125,0.08510638,371.66995,101.70171,0.013067126,0.016956642,0.037549973,0.0,0.0,0.0
827.20856,494.7727,12786223,0.1875,0.053191487,378.57742,82.78335,0.013067126,0.016956642,0.037549973,0.0,0.0,0.0
827.20856,494.7727,12786231,0.1875,0.053191487,378.57742,82.78335,0.013067126,0.016956642,0.037549973,0.0,0.0,0.0
765.7286,228.22168,12786515,0.6875,0.10638297,0.0,0.0,0.013067126,0.016956642,0.037549973,0.0,0.0,0.0
765.7286,228.22168,12786540,0.75,0.10638297,-0.045081068,-0.015060154,0.013067126,0.016956642,0.037549973,0.0,0.0,0.0
765.7286,228.22168,12786557,0.7875,0.10638297,0.017866218,0.00511592,0.013067126,0.016956642,0.037549973,0.0,0.0,0.0
766.51196,236.11292,12786590,0.77500004,0.12765957,17.875546,180.0634,0.013067126,0.016956642,0.037549973,0.0,0.0,0.0
768.5275,257.18445,12786607,0.7625,0.08510638,90.04536,895.3079,0.013067126,0.016956642,0.037549973,0.0,0.0,0.0
768.7276,275.70532,12786624,0.6875,0.08510638,100.96659,1557.441,0.013067126,0.016956642,0.037549973,0.0,0.0,0.0
768.7276,280.64343,12786634,0.3125,0.12765957,72.91816,1536.0336,0.013067126,0.016956642,0.037549973,0.0,0.0,0.0
768.7276,280.64343,12786641,0.3125,0.12765957,72.91816,1536.0336,0.013067126,0.016956642,0.037549973,0.0,0.0,0.0
818.2115,485.8877,12787029,0.5,0.07446808,0.0,0.0,-0.021546297,-0.002434671,-0.017960548,0.0,0.0,0.0
818.2115,485.8877,12787058,0.6375,0.07446808,-0.037803642,-0.022980794,-0.021546297,-0.002434671,-0.017960548,0.0,0.0,0.0
818.2115,485.8877,12787075,0.6875,0.07446808,0.013873937,0.008591484,-0.021546297,-0.002434671,-0.017960548,0.0,0.0,0.0
818.2115,485.8877,12787081,0.6875,0.08510638,-0.019395985,-0.012899483,-0.021546297,-0.002434671,-0.017960548,0.0,0.0,0.0
818.2115,485.8877,12787103,0.7,0.09574468,-0.034641683,-0.021658182,-0.021546297,-0.002434671,-0.017960548,0.0,0.0,0.0
838.9312,462.78174,12787125,0.7,0.10638297,577.9821,-642.36804,-0.021546297,-0.002434671,-0.017960548,0.0,0.0,0.0
848.65344,452.17798,12787142,0.7,0.08510638,899.754,-996.87177,-0.021546297,-0.002434671,-0.017960548,0.0,0.0,0.0
854.92334,440.99866,12787158,0.6875,0.08510638,747.832,-959.27014,-0.021546297,-0.002434671,-0.017960548,0.0,0.0,0.0
862.56726,425.31348,12787175,0.71250004,0.11702127,517.23224,-912.47217,-0.021546297,-0.002434671,-0.017960548,0.0,0.0,0.0
864.31445,415.53613,12787192,0.7,0.12765957,84.88469,-694.178,-0.021546297,-0.002434671,-0.017960548,0.0,0.0,0.0
863.54126,406.31738,12787208,0.71250004,0.11702127,-68.08316,-666.6768,-0.021546297,-0.002434671,-0.017960548,0.0,0.0,0.0
861.11566,398.86792,12787225,0.71250004,0.08510638,-223.57716,-517.3724,-0.021546297,-0.002434671,-0.017960548,0.0,0.0,0.0
857.7527,392.22253,12787242,0.725,0.08510638,-379.39035,-291.83517,-0.021546297,-0.002434671,-0.017960548,0.0,0.0,0.0
854.4497,386.81946,12787258,0.725,0.08510638,-363.22406,-228.09467,-0.021546297,-0.002434671,-0.017960548,0.0,0.0,0.0
852.70026,379.5144,12787275,0.725,0.08510638,-244.23505,-307.39755,-0.0012370385,-0.017947733,0.03363228,0.0,0.0,0.0
857.33844,373.85352,12787292,0.725,0.09574468,14.243438,-326.05576,-0.0012370385,-0.017947733,0.03363228,0.0,0.0,0.0
872.0478,370.59412,12787309,0.725,0.08510638,593.61676,-274.15726,-0.0012370385,-0.017947733,0.03363228,0.0,0.0,0.0
891.0601,370.3822,12787325,0.71250004,0.08510638,1239.6279,-105.60335,-0.0012370385,-0.017947733,0.03363228,0.0,0.0,0.0
903.4027,372.10364,12787342,0.7375,0.08510638,1487.7825,135.05797,-0.0012370385,-0.017947733,0.03363228,0.0,0.0,0.0
911.2312,374.83948,12787359,0.7375,0.09574468,969.0487,291.81207,-0.0012370385,-0.017947733,0.03363228,0.0,0.0,0.0
915.8937,378.56897,12787376,0.7375,0.09574468,389.5362,340.0613,-0.0012370385,-0.017947733,0.03363228,0.0,0.0,0.0
919.2416,384.7102,12787392,0.7375,0.11702127,-37.70324,367.96698,-0.0012370385,-0.017947733,0.03363228,0.0,0.0,0.0
916.5347,395.0874,12787409,0.725,0.12765957,-235.38542,546.7195,-0.0012370385,-0.017947733,0.03363228,0.0,0.0,0.0
907.9496,411.66687,12787426,0.7375,0.08510638,-463.21173,888.3261,-0.0012370385,-0.017947733,0.03363228,0.0,0.0,0.0
899.5846,425.78992,12787442,0.71250004,0.08510638,-727.42035,1153.8882,-0.0012370385,-0.017947733,0.03363228,0.0,0.0,0.0
888.46063,443.19727,12787459,0.725,0.12765957,-886.4942,1191.0261,-0.0012370385,-0.017947733,0.03363228,0.0,0.0,0.0
880.2956,457.76624,12787476,0.725,0.10638297,-796.5715,1078.9358,-0.0012370385,-0.017947733,0.03363228,0.0,0.0,0.0
878.19196,470.69812,12787492,0.7,0.07446808,-430.12653,880.38245,-0.0012370385,-0.017947733,0.03363228,0.0,0.0,0.0
880.2821,480.0719,12787509,0.675,0.06382979,39.058544,662.4093,-0.0012370385,-0.017947733,0.03363228,0.0,0.0,0.0
896.4301,488.6399,12787526,0.5625,0.06382979,674.9713,436.8092,-0.0012370385,-0.017947733,0.03363228,0.0,0.0,0.0
898.6853,489.44165,12787527,0.275,0.09574468,787.5648,429.13995,-0.0012370385,-0.017947733,0.03363228,0.0,0.0,0.0
898.6853,489.44165,12787535,0.275,0.09574468,787.5648,429.13995,-0.0012370385,-0.017947733,0.03363228,0.0,0.0,0.0
1045.6375,388.15222,12787729,0.65000004,0.08510638,0.0,0.0,-0.0012370385,-0.017947733,0.03363228,0.0,0.0,0.0
1045.6375,388.15222,12787760,0.6875,0.08510638,0.071807355,0.024514157,-0.0012370385,-0.017947733,0.03363228,0.0,0.0,0.0
1045.6375,388.15222,12787777,0.7,0.09574468,0.014321289,0.004206702,-0.0012370385,-0.017947733,0.03363228,0.0,0.0,0.0
1015.8633,392.96777,12787810,0.725,0.09574468,-1078.6031,169.82904,0.015010372,0.017641798,0.026906013,0.0,0.0,0.0
998.45605,399.6819,12787827,0.7,0.12765957,-1343.1934,328.7617,0.015010372,0.017641798,0.026906013,0.0,0.0,0.0
984.052,407.25867,12787843,0.7,0.11702127,-1363.8163,520.3935,0.015010372,0.017641798,0.026906013,0.0,0.0,0.0
971.53,416.87354,12787860,0.71250004,0.08510638,-1065.0074,661.3527,0.015010372,0.017641798,0.026906013,0.0,0.0,0.0
960.83484,427.95386,12787877,0.725,0.08510638,-529.5044,718.91473,0.015010372,0.017641798,0.026906013,0.0,0.0,0.0
952.0559,438.51855,12787893,0.71250004,0.09574468,-431.59015,758.2353,0.015010372,0.017641798,0.026906013,0.0,0.0,0.0
945.49634,450.53467,12787910,0.71250004,0.10638297,-318.98886,737.04596,0.015010372,0.017641798,0.026906013,0.0,0.0,0.0
942.32367,463.8252,12787927,0.71250004,0.08510638,-185.96072,803.3114,0.015010372,0.017641798,0.026906013,0.0,0.0,0.0
944.2107,474.88855,12787944,0.6875,0.06382979,67.20291,783.9042,0.015010372,0.017641798,0.026906013,0.0,0.0,0.0
948.3743,481.94067,12787960,0.6875,0.06382979,359.8575,633.5997,0.015010372,0.017641798,0.026906013,0.0,0.0,0.0
957.8109,488.38098,12787977,0.6875,0.08510638,625.86975,386.52945,0.015010372,0.017641798,0.026906013,0.0,0.0,0.0
968.2761,491.23694,12787994,0.6875,0.08510638,830.1695,123.095795,0.015010372,0.017641798,0.026906013,0.0,0.0,0.0
981.81433,489.26233,12788010,0.7,0.06382979,949.09937,-97.7515,0.015010372,0.017641798,0.026906013,0.0,0.0,0.0
994.0967,481.7246,12788027,0.7,0.08510638,973.392,-437.50858,0.015010372,0.017641798,0.026906013,0.0,0.0,0.0
1005.072,471.33215,12788044,0.7,0.12765957,870.4049,-758.5059,0.015010372,0.017641798,0.026906013,0.0,0.0,0.0
1012.12134,460.16895,12788060,0.71250004,0.10638297,608.0007,-955.23474,0.015010372,0.017641798,0.026906013,0.0,0.0,0.0
1019.8447,438.26855,12788077,0.725,0.08510638,400.1555,-1190.9833,0.015010372,0.017641798,0.026906013,0.0,0.0,0.0
1022.6449,418.07153,12788094,0.71250004,0.11702127,190.29654,-1470.9932,0.015010372,0.017641798,0.026906013,0.0,0.0,0.0
1021.5851,404.71313,12788111,0.71250004,0.10638297,-44.39983,-1378.785,0.015010372,0.017641798,0.026906013,0.0,0.0,0.0
1018.1417,396.7356,12788128,0.725,0.08510638,-296.3079,-867.8484,0.015010372,0.017641798,0.026906013,0.0,0.0,0.0
1012.6472,390.8169,12788144,0.7375,0.08510638,-490.16568,-208.26517,0.015010372,0.017641798,0.026906013,0.0,0.0,0.0
1000.859,385.81677,12788161,0.725,0.08510638,-700.4062,74.30404,0.015010372,0.017641798,0.026906013,0.0,0.0,0.0
990.60986,385.48682,12788178,0.725,0.08510638,-837.5365,63.164303,0.015010372,0.017641798,0.026906013,0.0,0.0,0.0
982.0969,387.16626,12788194,0.71250004,0.09574468,-829.29846,161.68146,0.015010372,0.017641798,0.026906013,0.0,0.0,0.0
974.4584,390.04907,12788211,0.725,0.10638297,-621.9975,284.793,0.015010372,0.017641798,0.026906013,0.0,0.0,0.0
968.797,393.74304,12788228,0.71250004,0.12765957,-371.98608,382.5169,0.015010372,0.017641798,0.026906013,0.0,0.0,0.0
965.3297,397.43286,12788244,0.7375,0.12765957,-178.46376,350.85632,0.015010372,0.017641798,0.026906013,0.0,0.0,0.0
962.027,407.14648,12788261,0.71250004,0.08510638,-114.462395,461.78583,0.015010372,0.017641798,0.026906013,0.0,0.0,0.0
962.38184,418.01135,12788278,0.725,0.08510638,11.014066,644.7002,0.015010372,0.017641798,0.026906013,0.0,0.0,0.0
966.8618,426.71094,12788295,0.7,0.09574468,225.18268,749.5949,0.015010372,0.017641798,0.026906013,0.0,0.0,0.0
973.3751,433.61816,12788311,0.71250004,0.08510638,455.05518,634.7236,0.015010372,0.017641798,0.026906013,0.0,0.0,0.0
986.48145,440.44385,12788328,0.725,0.08510638,776.03107,427.35168,-0.019991703,0.014113441,0.037524223,0.0,0.0,0.0
1001.7577,443.80652,12788345,0.725,0.09574468,1041.5786,239.0319,-0.019991703,0.014113441,0.037524223,0.0,0.0,0.0
1016.7079,444.12793,12788361,0.725,0.09574468,1195.7574,30.503477,-0.019991703,0.014113441,0.037524223,0.0,0.0,0.0
1033.2894,440.08582,12788378,0.725,0.08510638,1178.3237,-214.27335,-0.019991703,0.014113441,0.037524223,0.0,0.0,0.0
1051.0267,431.11865,12788395,0.725,0.08510638,1118.9757,-556.7673,-0.019991703,0.014113441,0.037524223,0.0,0.0,0.0
1066.2236,420.96338,12788412,0.71250004,0.11702127,1049.5054,-808.9992,-0.019991703,0.014113441,0.037524223,0.0,0.0,0.0
1077.6112,410.82324,12788428,0.71250004,0.12765957,865.3342,-872.5312,-0.019991703,0.014113441,0.037524223,0.0,0.0,0.0
1086.3201,401.59534,12788445,0.7375,0.08510638,593.9551,-777.4701,-0.019991703,0.014113441,0.037524223,0.0,0.0,0.0
1092.8672,391.49146,12788462,0.7375,0.08510638,299.4874,-650.98376,-0.019991703,0.014113441,0.037524223,0.0,0.0,0.0
1098.4785,376.24353,12788478,0.725,0.08510638,164.8071,-735.1527,-0.019991703,0.014113441,0.037524223,0.0,0.0,0.0
1099.3246,370.1797,12788495,0.7375,0.10638297,41.988087,-666.9046,-0.019991703,0.014113441,0.037524223,0.0,0.0,0.0
1098.8743,365.06592,12788512,0.725,0.10638297,-97.60468,-436.0098,-0.019991703,0.014113441,0.037524223,0.0,0.0,0.0
1097.3396,361.38696,12788529,0.725,0.12765957,-225.72296,-143.39449,-0.019991703,0.014113441,0.037524223,0.0,0.0,0.0
1096.3181,359.18213,12788545,0.725,0.12765957,-238.95808,27.777405,-0.019991703,0.014113441,0.037524223,0.0,0.0,0.0
1095.2745,357.32703,12788562,0.7375,0.12765957,-157.78928,5.34123,-0.019991703,0.014113441,0.037524223,0.0,0.0,0.0
1094.2233,356.16614,12788579,0.7375,0.12765957,-88.2211,0.92128795,-0.019991703,0.014113441,0.037524223,0.0,0.0,0.0
1094.1217,357.0547,12788595,0.75,0.10638297,-31.260668,48.296173,-0.019991703,0.014113441,0.037524223,0.0,0.0,0.0
1098.0287,363.1764,12788612,0.7375,0.08510638,91.7085,233.50592,-0.019991703,0.014113441,0.037524223,0.0,0.0,0.0
1109.9291,376.03064,12788629,0.71250004,0.08510638,491.44086,638.0407,-0.019991703,0.014113441,0.037524223,0.0,0.0,0.0
1124.4349,387.93884,12788645,0.725,0.12765957,944.40393,954.6483,-0.019991703,0.014113441,0.037524223,0.0,0.0,0.0
1140.477,402.15552,12788662,0.725,0.10638297,1222.0532,1084.5762,-0.019991703,0.014113441,0.037524223,0.0,0.0,0.0
1155.1327,414.97375,12788679,0.71250004,0.08510638,1245.914,1022.30414,-0.019991703,0.014113441,0.037524223,0.0,0.0,0.0
1168.9214,428.1715,12788696,0.7,0.08510638,1045.1128,878.13416,-0.019991703,0.014113441,0.037524223,0.0,0.0,0.0
1174.9233,435.9276,12788712,0.7,0.10638297,662.28577,666.182,-0.019991703,0.014113441,0.037524223,0.0,0.0,0.0
1179.3865,443.33008,12788729,0.71250004,0.12765957,257.64465,437.26315,-0.019991703,0.014113441,0.037524223,0.0,0.0,0.0
1180.9948,453.0067,12788746,0.7,0.12765957,-34.819042,376.2005,-0.019991703,0.014113441,0.037524223,0.0,0.0,0.0
1175.9829,461.245,12788762,0.725,0.09574468,-311.48016,411.84534,-0.019991703,0.014113441,0.037524223,0.0,0.0,0.0
1161.6288,472.75952,12788779,0.725,0.08510638,-764.2699,564.81946,-0.019991703,0.014113441,0.037524223,0.0,0.0,0.0
1146.833,483.33093,12788796,0.725,0.09574468,-1208.3469,687.6223,-0.019991703,0.014113441,0.037524223,0.0,0.0,0.0
1132.6884,492.5996,12788813,0.71250004,0.08510638,-1331.5248,663.60516,-0.019991703,0.014113441,0.037524223,0.0,0.0,0.0
1119.0972,497.44238,12788829,0.25,0.10638297,-1140.489,482.1592,-0.019991703,0.014113441,0.037524223,0.0,0.0,0.0
1119.0972,497.44238,12788837,0.25,0.10638297,-1140.489,482.1592,-0.019991703,0.014113441,0.037524223,0.0,0.0,0.0
