x,y,timestamp,pressure,fingerarea,velocityx,velocityy,accelx,accely,accelz,gyrox,gyroy,gyroz
215.90756,275.31238,77902678,0.7,0.07446808,0.0,0.0,0.014360905,0.043506175,-0.004702568,0.0,0.0,0.0
215.90756,275.31238,77902699,0.75,0.07446808,-0.026005547,-0.031614225,0.014360905,0.043506175,-0.004702568,0.0,0.0,0.0
215.90756,275.31238,77902716,0.7875,0.08510638,0.0067126416,0.007853509,0.014360905,0.043506175,-0.004702568,0.0,0.0,0.0
215.90756,275.31238,77902749,0.8,0.10638297,0.0052403375,0.0057040746,0.014360905,0.043506175,-0.004702568,0.0,0.0,0.0
215.90756,295.8307,77902766,0.8125,0.10638297,-0.0036351422,644.37744,0.014360905,0.043506175,-0.004702568,0.0,0.0,0.0
215.90756,319.1433,77902782,0.8125,0.08510638,-0.0022410352,1592.8824,0.014360905,0.043506175,-0.004702568,0.0,0.0,0.0
216.5546,337.1964,77902799,0.825,0.12765957,17.273386,1913.6558,0.014360905,0.043506175,-0.004702568,0.0,0.0,0.0
216.40741,353.68542,77902816,0.825,0.08510638,20.459341,1447.3816,0.014360905,0.043506175,-0.004702568,0.0,0.0,0.0
215.90756,375.63757,77902833,0.825,0.08510638,-7.3729663,1174.3107,0.014360905,0.043506175,-0.004702568,0.0,0.0,0.0
214.14984,391.7948,77902849,0.8125,0.12765957,-67.70876,941.91425,0.014360905,0.043506175,-0.004702568,0.0,0.0,0.0
213.09833,405.88904,77902866,0.83750004,0.10638297,-113.70766,919.27527,0.014360905,0.043506175,-0.004702568,0.0,0.0,0.0
211.56116,423.6538,77902883,0.825,0.09574468,-124.54003,888.31647,0.014360905,0.043506175,-0.004702568,0.0,0.0,0.0
209.15387,439.72742,77902899,0.825,0.09574468,-134.61298,867.2341,0.014360905,0.043506175,-0.004702568,0.0,0.0,0.0
207.99338,450.34863,77902916,0.825,0.12765957,-124.54527,809.6248,0.014360905,0.043506175,-0.004702568,0.0,0.0,0.0
207.91019,458.99792,77902933,0.8,0.11702127,-64.71462,631.78107,0.014360905,0.043506175,-0.004702568,0.0,0.0,0.0
208.92218,465.49585,77902950,0.275,0.11702127,36.4353,311.28537,0.014360905,0.043506175,-0.004702568,0.0,0.0,0.0
208.92218,465.49585,77902957,0.275,0.11702127,36.4353,311.28537,0.014360905,0.043506175,-0.004702568,0.0,0.0,0.0
193.41489,325.95703,77903223,0.5125,0.06382979,0.0,0.0,-0.02051127,-0.013195068,-0.051761627,0.0,0.0,0.0
193.41489,325.95703,77903250,0.6875,0.07446808,-8.697425E-4,-0.0041746763,-0.02051127,-0.013195068,-0.051761627,0.0,0.0,0.0
196.6387,314.9734,77903267,0.75,0.10638297,180.86755,-616.0888,-0.02051127,-0.013195068,-0.051761627,0.0,0.0,0.0
201.52686,296.0255,77903284,0.77500004,0.11702127,419.99292,-1533.0864,-0.02051127,-0.013195068,-0.051761627,0.0,0.0,0.0
203.94574,282.85034,77903300,0.8125,0.09574468,331.99796,-1408.4973,-0.02051127,-0.013195068,-0.051761627,0.0,0.0,0.0
206.65201,270.47144,77903317,0.8,0.09574468,266.6288,-1230.0917,-0.02051127,-0.013195068,-0.051761627,0.0,0.0,0.0
209.24774,261.67212,77903334,0.83750004,0.09574468,161.72801,-788.3701,-0.02051127,-0.013195068,-0.051761627,0.0,0.0,0.0
211.29245,256.86096,77903351,0.825,0.10638297,70.736824,-238.81323,-0.02051127,-0.013195068,-0.051761627,0.0,0.0,0.0
214.91376,251.31494,77903367,0.83750004,0.12765957,166.13327,-194.24736,-0.02051127,-0.013195068,-0.051761627,0.0,0.0,0.0
219.07571,247.61853,77903384,0.83750004,0.10638297,224.36119,-81.96694,-0.02051127,-0.013195068,-0.051761627,0.0,0.0,0.0
223.8182,246.88025,77903401,0.83750004,0.09574468,293.69165,-25.980598,-0.02051127,-0.013195068,-0.051761627,0.0,0.0,0.0
228.60577,250.04504,77903417,0.85,0.08510638,331.75293,125.46478,-0.02051127,-0.013195068,-0.051761627,0.0,0.0,0.0
235.17688,258.27295,77903434,0.83750004,0.08510638,371.67157,430.81113,-0.02051127,-0.013195068,-0.051761627,0.0,0.0,0.0
241.96725,269.40576,77903451,0.825,0.10638297,422.15164,772.0002,-0.02051127,-0.013195068,-0.051761627,0.0,0.0,0.0
249.54712,280.07288,77903467,0.8,0.12765957,503.8817,940.81683,-0.02051127,-0.013195068,-0.051761627,0.0,0.0,0.0
258.39413,290.21997,77903484,0.7875,0.12765957,554.7535,861.7519,-0.02051127,-0.013195068,-0.051761627,0.0,0.0,0.0
270.98355,297.42676,77903501,0.8,0.09574468,671.1771,620.4681,-0.02051127,-0.013195068,-0.051761627,0.0,0.0,0.0
284.8207,299.302,77903518,0.7875,0.09574468,848.3109,258.24786,-0.048409015,0.06944394,0.09459114,0.0,0.0,0.0
297.61688,296.15637,77903534,0.8,0.12765957,950.6102,-153.0015,-0.048409015,0.06944394,0.09459114,0.0,0.0,0.0
305.86923,291.6931,77903551,0.8125,0.11702127,801.5947,-466.03104,-0.048409015,0.06944394,0.09459114,0.0,0.0,0.0
311.72055,286.1405,77903568,0.8,0.09574468,457.9886,-612.3211,-0.048409015,0.06944394,0.09459114,0.0,0.0,0.0
316.3527,279.7943,77903584,0.8125,0.08510638,172.86214,-587.55975,-0.048409015,0.06944394,0.09459114,0.0,0.0,0.0
320.0394,273.24084,77903601,0.83750004,0.08510638,61.3177,-493.38995,-0.048409015,0.06944394,0.09459114,0.0,0.0,0.0
322.05853,269.65173,77903618,0.825,0.08510638,34.159576,-365.24158,-0.048409015,0.06944394,0.09459114,0.0,0.0,0.0
323.00006,267.97803,77903635,0.83750004,0.08510638,5.4065223,-184.9997,-0.048409015,0.06944394,0.09459114,0.0,0.0,0.0
324.00717,266.18787,77903651,0.85,0.08510638,-23.431602,-38.966423,-0.048409015,0.06944394,0.09459114,3.355443E-6,0.0,0.0
325.06625,267.11755,77903668,0.83750004,0.08510638,-15.314522,74.20152,-0.048409015,0.06944394,0.09459114,3.355443E-6,0.0,0.0
326.11127,272.57275,77903685,0.83750004,0.08510638,33.90009,244.13924,-0.048409015,0.06944394,0.09459114,3.355443E-6,0.0,0.0
326.3716,279.97766,77903701,0.83750004,0.10638297,39.160053,493.3557,-0.048409015,0.06944394,0.09459114,3.355443E-6,0.0,0.0
326.0533,290.2577,77903718,0.825,0.12765957,0.047552828,721.85144,-0.048409015,0.06944394,0.09459114,0.0,0.0,0.0
324.66235,303.45886,77903735,0.825,0.08510638,-71.157295,893.5693,-0.048409015,0.06944394,0.09459114,0.0,0.0,0.0
322.24353,319.31946,77903751,0.825,0.08510638,-148.8921,1007.4015,-0.048409015,0.06944394,0.09459114,0.0,0.0,0.0
320.0005,334.82935,77903768,0.8125,0.11702127,-198.68678,1122.0425,-0.048409015,0.06944394,0.09459114,0.0,0.0,0.0
316.88867,350.76062,77903785,0.8125,0.12765957,-215.33698,1107.6775,-0.048409015,0.06944394,0.09459114,0.0,0.0,0.0
314.80048,371.04785,77903802,0.8125,0.09574468,-190.98146,1167.7379,-0.048409015,0.06944394,0.09459114,0.0,0.0,0.0
313.24167,387.32935,77903818,0.8125,0.11702127,-131.82779,1154.1554,-0.048409015,0.06944394,0.09459114,0.0,0.0,0.0
312.25116,400.5918,77903835,0.8125,0.11702127,-70.38833,976.4948,-0.048409015,0.06944394,0.09459114,0.0,0.0,0.0
311.7037,413.7085,77903852,0.8125,0.09574468,-18.136091,786.4526,-0.048409015,0.06944394,0.09459114,0.0,0.0,0.0
311.06754,426.06763,77903869,0.7875,0.08510638,2.005741,631.8774,-0.048409015,0.06944394,0.09459114,0.0,0.0,0.0
311.3765,436.87305,77903885,0.75,0.09574468,12.382695,653.2236,-0.048409015,0.06944394,0.09459114,0.0,0.0,0.0
311.8972,444.20215,77903902,0.7,0.11702127,32.70136,538.0956,-0.048409015,0.06944394,0.09459114,0.0,0.0,0.0
312.37616,445.90503,77903906,0.6125,0.12765957,45.065308,502.16354,-0.048409015,0.06944394,0.09459114,0.0,0.0,0.0
312.37616,445.90503,77903914,0.6125,0.12765957,45.065308,502.16354,-0.048409015,0.06944394,0.09459114,0.0,0.0,0.0
371.35696,363.27417,77904139,0.7,0.09574468,0.0,0.0,-0.0067272186,-0.03244485,0.05167198,0.0,0.0,0.0
371.35696,363.27417,77904167,0.7625,0.09574468,0.015488546,0.016192725,-0.0067272186,-0.03244485,0.05167198,0.0,0.0,0.0
371.35696,363.27417,77904186,0.77500004,0.09574468,-0.006333633,-0.0045477147,-0.0067272186,-0.03244485,0.05167198,0.0,0.0,0.0
371.35696,363.27417,77904199,0.8,0.09574468,-0.009384028,-0.009078375,-0.0067272186,-0.03244485,0.05167198,0.0,0.0,0.0
369.82864,384.90552,77904220,0.8,0.11702127,-60.782528,875.5985,-0.0067272186,-0.03244485,0.05167198,0.0,0.0,0.0
370.9255,393.08118,77904236,0.7875,0.12765957,-19.47284,949.3846,-0.0067272186,-0.03244485,0.05167198,0.0,0.0,0.0
374.16763,399.36804,77904253,0.7875,0.12765957,101.14226,829.04156,-0.0067272186,-0.03244485,0.05167198,0.0,0.0,0.0
378.99417,403.76318,77904270,0.7875,0.09574468,288.22305,312.47134,-0.0067272186,-0.03244485,0.05167198,0.0,0.0,0.0
388.47238,407.12488,77904286,0.7875,0.09574468,507.82568,70.22462,-0.0067272186,-0.03244485,0.05167198,0.0,0.0,0.0
399.33472,406.02625,77904303,0.77500004,0.12765957,757.8004,-30.816933,-0.0067272186,-0.03244485,0.05167198,0.0,0.0,0.0
408.70163,402.3141,77904320,0.77500004,0.12765957,814.48315,-245.9164,-0.0067272186,-0.03244485,0.05167198,0.0,0.0,0.0
415.14206,398.10413,77904337,0.8,0.11702127,638.5322,-408.22214,-0.0067272186,-0.03244485,0.05167198,0.0,0.0,0.0
419.35687,394.05725,77904353,0.7875,0.09574468,326.24298,-456.81305,-0.0067272186,-0.03244485,0.05167198,0.0,0.0,0.0
421.98102,387.43982,77904370,0.77500004,0.09574468,79.9537,-412.23248,-0.0067272186,-0.03244485,0.05167198,0.0,0.0,0.0
423.76102,379.828,77904387,0.7875,0.09574468,-14.242718,-452.58862,-0.0067272186,-0.03244485,0.05167198,0.0,0.0,0.0
423.3745,374.12,77904403,0.7875,0.09574468,-76.4177,-487.7784,-0.0067272186,-0.03244485,0.05167198,0.0,0.0,0.0
421.33124,370.36536,77904420,0.8,0.08510638,-158.27992,-365.03192,-0.0067272186,-0.03244485,0.05167198,0.0,0.0,0.0
414.48962,367.63818,77904437,0.7875,0.08510638,-344.03836,-198.51947,-0.0067272186,-0.03244485,0.05167198,0.0,0.0,0.0
400.0292,369.80603,77904453,0.8,0.08510638,-731.60065,62.71597,-0.0067272186,-0.03244485,0.05167198,0.0,0.0,0.0
386.89307,376.5774,77904470,0.7875,0.08510638,-1038.0887,359.14575,-0.0067272186,-0.03244485,0.05167198,0.0,0.0,0.0
375.98145,385.37476,77904487,0.8,0.11702127,-1052.0732,630.9571,-0.0067272186,-0.03244485,0.05167198,0.0,0.0,0.0
367.70358,393.96265,77904504,0.8125,0.12765957,-826.71954,790.0768,-0.0067272186,-0.03244485,0.05167198,0.0,0.0,0.0
358.67743,408.45312,77904520,0.8125,0.08510638,-453.39352,869.07806,-0.0067272186,-0.03244485,0.05167198,0.0,0.0,0.0
353.80988,424.16138,77904537,0.8125,0.08510638,-303.59097,1000.9057,-0.0067272186,-0.03244485,0.05167198,0.0,0.0,0.0
354.3078,438.60254,77904554,0.8,0.08510638,-82.80335,1108.3741,-0.0067272186,-0.03244485,0.05167198,0.0,0.0,0.0
358.14984,447.30627,77904570,0.8125,0.12765957,271.79785,882.74414,-0.0067272186,-0.03244485,0.05167198,0.0,0.0,0.0
363.2481,454.06567,77904587,0.8,0.12765957,528.78314,486.63617,-0.005381763,-0.0019558966,-0.006661415,0.0,0.0,0.0
375.00595,462.2472,77904604,0.7875,0.10638297,749.9546,217.84346,-0.005381763,-0.0019558966,-0.006661415,0.0,0.0,0.0
393.44345,468.0415,77904621,0.7875,0.08510638,1051.2085,217.94435,-0.005381763,-0.0019558966,-0.006661415,0.0,0.0,0.0
408.09302,469.0061,77904637,0.7875,0.09574468,1252.3335,154.14139,-0.005381763,-0.0019558966,-0.006661415,0.0,0.0,0.0
418.40073,468.0072,77904654,0.75,0.11702127,1094.7543,-51.251568,-0.005381763,-0.0019558966,-0.006661415,0.0,0.0,0.0
430.11255,463.15234,77904671,0.7375,0.10638297,782.4125,-337.21066,-0.005381763,-0.0019558966,-0.006661415,0.0,0.0,0.0
441.1598,457.85498,77904687,0.22500001,0.09574468,571.5993,-530.38715,-0.005381763,-0.0019558966,-0.006661415,0.0,0.0,0.0
441.1598,457.85498,77904693,0.22500001,0.09574468,571.5993,-530.38715,-0.005381763,-0.0019558966,-0.006661415,0.0,0.0,0.0
449.83142,235.32971,77904894,0.7625,0.10638297,0.0,0.0,-0.005381763,-0.0019558966,-0.006661415,0.0,0.0,0.0
449.83142,235.32971,77904921,0.8125,0.10638297,-0.028625144,-0.015675632,-0.005381763,-0.0019558966,-0.006661415,0.0,0.0,0.0
449.83142,235.32971,77904938,0.825,0.12765957,0.0397997,0.020718874,-0.005381763,-0.0019558966,-0.006661415,0.0,0.0,0.0
443.2869,249.70044,77904955,0.83750004,0.12765957,-298.56985,655.63574,-0.005381763,-0.0019558966,-0.006661415,0.0,0.0,0.0
437.39597,271.10388,77904972,0.8,0.08510638,-505.16177,1383.5457,-0.005381763,-0.0019558966,-0.006661415,0.0,0.0,0.0
435.33615,290.61792,77904988,0.725,0.12765957,-432.61673,1618.8079,-0.005381763,-0.0019558966,-0.006661415,0.0,0.0,0.0
435.33615,294.85938,77904991,0.5125,0.10638297,-392.77994,1655.2958,-0.005381763,-0.0019558966,-0.006661415,0.0,0.0,0.0
435.33615,294.85938,77904998,0.5125,0.10638297,-392.77994,1655.2958,-0.005381763,-0.0019558966,-0.006661415,0.0,0.0,0.0
450.83112,451.23596,77905353,0.6625,0.09574468,0.0,0.0,-0.0043054223,-0.0015647113,0.04267025,0.0,0.0,0.0
450.83112,451.23596,77905373,0.71250004,0.09574468,-0.14182073,-0.14161451,-0.0043054223,-0.0015647113,0.04267025,0.0,0.0,0.0
450.83112,451.23596,77905389,0.75,0.09574468,0.033845685,0.03457582,-0.0043054223,-0.0015647113,0.04267025,3.355443E-6,0.0,0.0
450.83112,451.23596,77905402,0.77500004,0.09574468,0.053838536,0.053347144,-0.0043054223,-0.0015647113,0.04267025,3.355443E-6,0.0,0.0
450.83112,451.23596,77905418,0.77500004,0.08510638,0.008143173,0.00887689,-0.0043054223,-0.0015647113,0.04267025,3.355443E-6,0.0,0.0
450.83112,451.23596,77905439,0.7875,0.08510638,-0.0015644113,-6.4127066E-4,-0.0043054223,-0.0015647113,0.04267025,3.355443E-6,0.0,0.0
462.2708,442.42407,77905456,0.7625,0.09574468,263.51788,-202.91551,-0.0043054223,-0.0015647113,0.04267025,0.0,0.0,0.0
472.87524,430.57642,77905473,0.7625,0.09574468,786.109,-709.01996,-0.0043054223,-0.0015647113,0.04267025,0.0,0.0,0.0
477.6833,421.33582,77905490,0.7625,0.10638297,808.05206,-916.0372,-0.0043054223,-0.0015647113,0.04267025,0.0,0.0,0.0
482.3407,406.71667,77905506,0.77500004,0.10638297,428.52603,-957.7428,-0.0043054223,-0.0015647113,0.04267025,0.0,0.0,0.0
484.4685,389.49963,77905523,0.7875,0.09574468,47.44142,-976.9039,-0.0043054223,-0.0015647113,0.04267025,0.0,0.0,0.0
482.64624,373.5846,77905540,0.7875,0.09574468,-215.87105,-1071.5516,-0.0043054223,-0.0015647113,0.04267025,0.0,0.0,0.0
480.552,365.8706,77905556,0.8,0.11702127,-224.75214,-943.5065,-0.0043054223,-0.0015647113,0.04267025,0.0,0.0,0.0
478.42938,361.68787,77905573,0.8,0.12765957,-285.8718,-474.1878,-0.0043054223,-0.0015647113,0.04267025,0.0,0.0,0.0
475.76514,359.38977,77905590,0.8,0.12765957,-273.65527,-16.118376,-0.0043054223,-0.0015647113,0.04267025,0.0,0.0,0.0
473.3435,357.9431,77905607,0.8125,0.10638297,-188.5486,222.90517,-0.0043054223,-0.0015647113,0.04267025,0.0,0.0,0.0
472.04254,357.9431,77905623,0.8125,0.10638297,-136.04819,137.09529,-0.0043054223,-0.0015647113,0.04267025,0.0,0.0,0.0
471.3244,358.51343,77905640,0.8,0.10638297,-68.04321,114.05044,-0.0043054223,-0.0015647113,0.04267025,0.0,0.0,0.0
472.53918,362.5149,77905657,0.8,0.09574468,45.093124,198.82782,0.028555661,-0.01725176,-0.029863358,0.0,0.0,0.0
476.3266,368.8324,77905673,0.8,0.09574468,201.77641,377.8084,0.028555661,-0.01725176,-0.029863358,0.0,0.0,0.0
484.49225,377.5763,77905690,0.77500004,0.08510638,399.60657,549.22455,0.028555661,-0.01725176,-0.029863358,0.0,0.0,0.0
499.04425,387.1156,77905707,0.7875,0.09574468,788.27527,724.5311,0.028555661,-0.01725176,-0.029863358,0.0,0.0,0.0
513.6491,394.53223,77905723,0.77500004,0.12765957,1090.8994,665.30817,0.028555661,-0.01725176,-0.029863358,0.0,0.0,0.0
522.845,400.021,77905740,0.7625,0.12765957,1025.3015,486.01352,0.028555661,-0.01725176,-0.029863358,0.0,0.0,0.0
530.6252,405.58032,77905757,0.7625,0.11702127,708.4181,317.48206,0.028555661,-0.01725176,-0.029863358,0.0,0.0,0.0
536.5835,411.1969,77905774,0.77500004,0.08510638,350.166,231.20241,0.028555661,-0.01725176,-0.029863358,0.0,0.0,0.0
541.5515,417.0287,77905790,0.7625,0.08510638,149.56818,266.55615,0.028555661,-0.01725176,-0.029863358,0.0,0.0,0.0
544.5202,428.30933,77905807,0.75,0.08510638,102.65708,474.54584,0.028555661,-0.01725176,-0.029863358,0.0,0.0,0.0
544.28143,437.08826,77905824,0.7625,0.08510638,16.760809,662.4905,0.028555661,-0.01725176,-0.029863358,0.0,0.0,0.0
541.4064,443.9419,77905840,0.7625,0.11702127,-186.37683,626.432,0.028555661,-0.01725176,-0.029863358,0.0,0.0,0.0
538.13947,448.27124,77905857,0.75,0.12765957,-345.7668,404.8462,0.028555661,-0.01725176,-0.029863358,0.0,0.0,0.0
534.49805,452.27295,77905874,0.7625,0.12765957,-383.68466,123.853165,0.028555661,-0.01725176,-0.029863358,0.0,0.0,0.0
527.4296,457.13904,77905891,0.75,0.10638297,-405.6991,117.72267,0.028555661,-0.01725176,-0.029863358,0.0,0.0,0.0
520.5902,459.14905,77905907,0.75,0.09574468,-471.5401,130.92711,0.028555661,-0.01725176,-0.029863358,0.0,0.0,0.0
514.8281,459.23254,77905924,0.77500004,0.10638297,-494.39523,59.855904,0.028555661,-0.01725176,-0.029863358,0.0,0.0,0.0
512.27673,457.3944,77905941,0.625,0.10638297,-340.66745,-104.19818,0.028555661,-0.01725176,-0.029863358,0.0,0.0,0.0
512.27673,457.3944,77905948,0.625,0.10638297,-340.66745,-104.19818,0.028555661,-0.01725176,-0.029863358,0.0,0.0,0.0
530.30524,372.15918,77906141,0.75,0.08510638,0.0,0.0,0.028555661,-0.01725176,-0.029863358,0.0,0.0,0.0
530.30524,372.15918,77906158,0.77500004,0.09574468,0.09660013,0.059869733,0.028555661,-0.01725176,-0.029863358,0.0,0.0,0.0
530.30524,372.15918,77906175,0.7875,0.11702127,-0.053095333,-0.038781837,-0.009155452,0.034198582,0.040109634,0.0,0.0,0.0
530.30524,372.15918,77906191,0.77500004,0.12765957,0.024610993,0.017603416,-0.009155452,0.034198582,0.040109634,0.0,0.0,0.0
541.9333,352.05066,77906225,0.7875,0.10638297,402.99594,-733.09235,-0.009155452,0.034198582,0.040109634,0.0,0.0,0.0
552.44507,345.10974,77906241,0.7875,0.09574468,667.6753,-777.2138,-0.009155452,0.034198582,0.040109634,0.0,0.0,0.0
563.3675,341.44202,77906258,0.77500004,0.10638297,837.48157,-488.52362,-0.009155452,0.034198582,0.040109634,0.0,0.0,0.0
571.8978,342.52893,77906275,0.7875,0.12765957,772.95996,-19.314047,-0.009155452,0.034198582,0.040109634,0.0,0.0,0.0
578.81384,346.5381,77906292,0.77500004,0.12765957,460.68027,347.18604,-0.009155452,0.034198582,0.040109634,0.0,0.0,0.0
585.49036,355.63855,77906308,0.77500004,0.11702127,364.13138,579.97943,-0.009155452,0.034198582,0.040109634,0.0,0.0,0.0
590.61743,374.6178,77906325,0.7625,0.09574468,257.61905,1043.7249,-0.009155452,0.034198582,0.040109634,0.0,0.0,0.0
591.7852,389.6355,77906342,0.75,0.11702127,145.89001,1344.4694,-0.009155452,0.034198582,0.040109634,0.0,0.0,0.0
589.2385,405.37122,77906358,0.7375,0.09574468,-111.00608,1313.4293,-0.009155452,0.034198582,0.040109634,0.0,0.0,0.0
583.89056,420.19104,77906375,0.725,0.07446808,-381.27826,1114.8945,-0.009155452,0.034198582,0.040109634,0.0,0.0,0.0
578.16376,431.9126,77906392,0.725,0.06382979,-549.5278,805.8231,-0.009155452,0.034198582,0.040109634,0.0,0.0,0.0
571.0069,437.14648,77906409,0.7375,0.08510638,-574.52856,454.80508,-0.009155452,0.034198582,0.040109634,0.0,0.0,0.0
562.2753,441.24902,77906425,0.75,0.08510638,-601.14343,189.04564,-0.009155452,0.034198582,0.040109634,0.0,0.0,0.0
555.9667,441.09363,77906442,0.7375,0.08510638,-566.1644,-97.500404,-0.009155452,0.034198582,0.040109634,0.0,0.0,0.0
553.5385,439.22498,77906459,0.7375,0.07446808,-345.4832,-275.7908,-0.009155452,0.034198582,0.040109634,0.0,0.0,0.0
552.7979,436.8401,77906475,0.7625,0.07446808,-57.18434,-312.73282,-0.009155452,0.034198582,0.040109634,0.0,0.0,0.0
553.8207,434.03088,77906492,0.75,0.06382979,181.0643,-334.19504,-0.009155452,0.034198582,0.040109634,0.0,0.0,0.0
560.52893,430.4121,77906509,0.7625,0.06382979,372.4351,-279.56094,-0.009155452,0.034198582,0.040109634,0.0,0.0,0.0
573.2993,429.02344,77906526,0.75,0.07446808,699.38086,-209.69266,-0.009155452,0.034198582,0.040109634,0.0,0.0,0.0
587.1304,431.50952,77906542,0.75,0.08510638,1018.8753,-23.83577,-0.009155452,0.034198582,0.040109634,0.0,0.0,0.0
601.24414,437.0055,77906559,0.75,0.08510638,1181.9825,270.1521,-0.009155452,0.034198582,0.040109634,0.0,0.0,0.0
611.5426,442.5072,77906576,0.75,0.09574468,973.88556,488.93048,-0.009155452,0.034198582,0.040109634,0.0,0.0,0.0
621.98065,447.0719,77906592,0.75,0.12765957,701.2958,506.0057,-0.009155452,0.034198582,0.040109634,0.0,0.0,0.0
629.5452,450.93567,77906609,0.7375,0.12765957,473.21146,364.07516,-0.009155452,0.034198582,0.040109634,0.0,0.0,0.0
636.55615,455.3484,77906626,0.75,0.12765957,332.0237,250.42091,-0.009155452,0.034198582,0.040109634,0.0,0.0,0.0
641.0008,458.1056,77906643,0.7375,0.11702127,237.76852,178.16394,-0.009155452,0.034198582,0.040109634,0.0,0.0,0.0
644.69934,460.5348,77906659,0.725,0.10638297,148.91203,139.79364,-0.009155452,0.034198582,0.040109634,0.0,0.0,0.0
648.30145,461.00952,77906676,0.6625,0.10638297,121.97471,57.879913,-0.009155452,0.034198582,0.040109634,0.0,0.0,0.0
648.76666,461.00952,77906680,0.38750002,0.12765957,111.45175,36.09456,-0.009155452,0.034198582,0.040109634,0.0,0.0,0.0
648.76666,461.00952,77906687,0.38750002,0.12765957,111.45175,36.09456,-0.009155452,0.034198582,0.040109634,0.0,0.0,0.0
572.29156,389.92932,77906840,0.71250004,0.08510638,0.0,0.0,-0.0073243678,-0.044641137,-0.06391239,0.0,0.0,0.0
572.29156,389.92932,77906860,0.75,0.08510638,-0.2040262,-0.1400857,-0.0073243678,-0.044641137,-0.06391239,0.0,0.0,0.0
572.29156,389.92932,77906876,0.7625,0.08510638,0.018932225,0.012040651,-0.0073243678,-0.044641137,-0.06391239,0.0,0.0,0.0
580.73755,389.41162,77906893,0.7875,0.09574468,352.10153,-21.63067,-0.0073243678,-0.044641137,-0.06391239,0.0,0.0,0.0
599.194,389.6007,77906910,0.7875,0.08510638,1202.7598,-25.898058,-0.0073243678,-0.044641137,-0.06391239,0.0,0.0,0.0
615.6345,391.41333,77906927,0.7875,0.08510638,1421.3319,55.297104,-0.0073243678,-0.044641137,-0.06391239,0.0,0.0,0.0
630.0084,392.59485,77906943,0.7375,0.10638297,1404.086,122.77384,-0.0073243678,-0.044641137,-0.06391239,0.0,0.0,0.0
633.77155,392.59485,77906955,0.3625,0.12765957,1225.8007,111.30673,-0.0073243678,-0.044641137,-0.06391239,0.0,0.0,0.0
633.77155,392.59485,77906960,0.3625,0.12765957,1225.8007,111.30673,-0.0073243678,-0.044641137,-0.06391239,0.0,0.0,0.0
722.74255,380.15576,77907977,0.6375,0.06382979,0.0,0.0,-0.0014876127,-0.044570327,-0.09210396,0.0,0.0,0.0
722.74255,380.15576,77907996,0.65000004,0.06382979,0.17659757,0.0943807,-0.0014876127,-0.044570327,-0.09210396,0.0,0.0,0.0
722.74255,380.15576,77908013,0.7,0.06382979,-3.274048E-4,0.0010370233,-0.0014876127,-0.044570327,-0.09210396,0.0,0.0,0.0
722.74255,380.15576,77908030,0.725,0.06382979,-0.05073054,-0.02653963,-0.0014876127,-0.044570327,-0.09210396,0.0,0.0,0.0
722.74255,380.15576,77908046,0.75,0.08510638,0.016788838,0.007446243,-0.0014876127,-0.044570327,-0.09210396,0.0,0.0,0.0
722.74255,380.15576,77908063,0.75,0.08510638,0.01732982,0.009492749,-0.0014876127,-0.044570327,-0.09210396,0.0,0.0,0.0
706.7096,375.0404,77908080,0.75,0.09574468,-332.82968,-106.190414,-0.0014876127,-0.044570327,-0.09210396,0.0,0.0,0.0
690.4472,371.3589,77908096,0.77500004,0.08510638,-1065.5852,-307.9118,-0.0014876127,-0.044570327,-0.09210396,0.0,0.0,0.0
677.4093,372.13843,77908113,0.7625,0.08510638,-1395.8922,-271.9229,-0.0014876127,-0.044570327,-0.09210396,0.0,0.0,0.0
666.4307,376.76172,77908130,0.7875,0.08510638,-1139.7554,73.973915,-0.0014876127,-0.044570327,-0.09210396,0.0,0.0,0.0
659.2409,381.95264,77908146,0.77500004,0.11702127,-645.5483,403.97797,-0.0014876127,-0.044570327,-0.09210396,0.0,0.0,0.0
651.7235,389.81152,77908163,0.77500004,0.12765957,-242.29056,638.82947,-0.0014876127,-0.044570327,-0.09210396,0.0,0.0,0.0
645.0616,402.3484,77908180,0.7625,0.11702127,-266.1135,742.92804,-0.0014876127,-0.044570327,-0.09210396,0.0,0.0,0.0
640.8977,414.12244,77908197,0.77500004,0.08510638,-217.57187,865.27014,-0.0014876127,-0.044570327,-0.09210396,0.0,0.0,0.0
639.9948,422.6283,77908213,0.75,0.08510638,-106.37354,811.8786,-0.0014876127,-0.044570327,-0.09210396,0.0,0.0,0.0
642.0721,429.56226,77908230,0.7625,0.09574468,122.04351,568.21265,-0.0014876127,-0.044570327,-0.09210396,0.0,0.0,0.0
645.0064,432.7893,77908247,0.75,0.08510638,317.6221,229.27954,-0.0014876127,-0.044570327,-0.09210396,0.0,0.0,0.0
654.2742,437.36426,77908263,0.7625,0.08510638,520.1203,51.755222,-0.0014876127,-0.044570327,-0.09210396,0.0,0.0,0.0
666.5221,439.68542,77908280,0.75,0.08510638,790.7325,63.02218,-0.0014876127,-0.044570327,-0.09210396,0.0,0.0,0.0
679.48987,437.29248,77908297,0.7625,0.08510638,999.8362,-50.0792,-0.0014876127,-0.044570327,-0.09210396,0.0,0.0,0.0
689.94824,431.92993,77908314,0.7375,0.08510638,982.0482,-282.06277,-0.0014876127,-0.044570327,-0.09210396,0.0,0.0,0.0
698.7647,424.5681,77908330,0.7625,0.08510638,710.89307,-554.95013,-0.017190084,0.004343748,0.022316933,0.0,0.0,0.0
708.16266,414.3153,77908347,0.7625,0.12765957,498.53442,-746.1304,-0.017190084,0.004343748,0.022316933,0.0,0.0,0.0
715.32623,405.18457,77908364,0.75,0.08510638,403.5499,-764.05426,-0.017190084,0.004343748,0.022316933,0.0,0.0,0.0
721.09235,391.35352,77908380,0.7625,0.08510638,334.13577,-819.64874,-0.017190084,0.004343748,0.022316933,0.0,0.0,0.0
722.9161,383.67297,77908397,0.77500004,0.08510638,188.27892,-758.28015,-0.017190084,0.004343748,0.022316933,0.0,0.0,0.0
723.24243,379.7987,77908414,0.77500004,0.08510638,-13.146176,-494.23337,-0.017190084,0.004343748,0.022316933,0.0,0.0,0.0
722.49896,378.37878,77908431,0.7875,0.08510638,-173.83035,-76.88202,-0.017190084,0.004343748,0.022316933,0.0,0.0,0.0
719.89545,380.27197,77908447,0.77500004,0.08510638,-249.95467,248.43184,-0.017190084,0.004343748,0.022316933,0.0,0.0,0.0
716.28955,388.88135,77908464,0.7875,0.10638297,-294.54303,527.0647,-0.017190084,0.004343748,0.022316933,0.0,0.0,0.0
715.60657,402.17883,77908481,0.7625,0.12765957,-240.90973,839.2213,-0.017190084,0.004343748,0.022316933,0.0,0.0,0.0
718.74255,416.93604,77908497,0.7875,0.08510638,-25.592598,1147.7135,-0.017190084,0.004343748,0.022316933,0.0,0.0,0.0
724.9766,430.3291,77908514,0.7625,0.08510638,330.71634,1224.5138,-0.017190084,0.004343748,0.022316933,0.0,0.0,0.0
733.52594,440.34668,77908531,0.7625,0.10638297,613.83905,937.42816,-0.017190084,0.004343748,0.022316933,0.0,0.0,0.0
744.9346,450.52454,77908548,0.71250004,0.12765957,803.8153,614.21387,-0.017190084,0.004343748,0.022316933,0.0,0.0,0.0
756.9595,456.8905,77908564,0.6625,0.10638297,871.79584,386.77255,-0.017190084,0.004343748,0.022316933,0.0,0.0,0.0
764.7289,459.23254,77908579,0.275,0.12765957,847.0765,201.13606,-0.017190084,0.004343748,0.022316933,0.0,0.0,0.0
764.7289,459.23254,77908587,0.275,0.12765957,847.0765,201.13606,-0.017190084,0.004343748,0.022316933,0.0,0.0,0.0
701.7494,252.2113,77908837,0.725,0.11702127,0.0,0.0,-0.017190084,0.004343748,0.022316933,0.0,0.0,0.0
701.7494,252.2113,77908865,0.7875,0.11702127,-0.0070089623,-7.6007895E-4,0.0022479296,-0.03652501,-0.09414673,0.0,0.0,0.0
701.7494,252.2113,77908882,0.83750004,0.11702127,0.062313784,0.021768868,0.0022479296,-0.03652501,-0.09414673,0.0,0.0,0.0
700.0543,271.04358,77908898,0.825,0.09574468,-76.62501,851.6153,0.0022479296,-0.03652501,-0.09414673,0.0,0.0,0.0
699.63336,289.02307,77908915,0.77500004,0.12765957,-95.61103,1404.4446,0.0022479296,-0.03652501,-0.09414673,0.0,0.0,0.0
703.2334,311.9635,77908932,0.7,0.09574468,23.662722,1683.2423,0.0022479296,-0.03652501,-0.09414673,0.0,0.0,0.0
703.7488,314.4065,77908933,0.5,0.09574468,62.51002,1705.7742,0.0022479296,-0.03652501,-0.09414673,0.0,0.0,0.0
703.7488,314.4065,77908940,0.5,0.09574468,62.51002,1705.7742,0.0022479296,-0.03652501,-0.09414673,0.0,0.0,0.0
764.22906,443.2395,77910070,0.6875,0.08510638,0.0,0.0,0.0014386773,0.058224022,0.010145187,0.0,0.0,0.0
764.22906,443.2395,77910102,0.7375,0.07446808,0.001569049,-3.940389E-4,0.0014386773,0.058224022,0.010145187,0.0,0.0,0.0
772.52924,431.2516,77910118,0.7625,0.09574468,547.501,-790.78485,0.0014386773,0.058224022,0.010145187,0.0,0.0,0.0
781.77515,417.59863,77910135,0.75,0.12765957,791.9083,-1162.4149,0.0014386773,0.058224022,0.010145187,0.0,0.0,0.0
788.3673,407.6311,77910152,0.7625,0.10638297,736.7391,-1089.8777,0.0014386773,0.058224022,0.010145187,0.0,0.0,0.0
794.1271,393.72913,77910168,0.7625,0.08510638,617.84186,-1048.2413,0.0014386773,0.058224022,0.010145187,0.0,0.0,0.0
795.9167,379.47046,77910185,0.77500004,0.08510638,314.3877,-959.83777,0.0014386773,0.058224022,0.010145187,0.0,0.0,0.0
792.9004,369.8147,77910202,0.7875,0.10638297,-108.31041,-739.30804,0.0014386773,0.058224022,0.010145187,0.0,0.0,0.0
787.2095,362.37488,77910219,0.7875,0.10638297,-415.57208,-600.0337,0.0014386773,0.058224022,0.010145187,0.0,0.0,0.0
776.5892,355.4934,77910235,0.7875,0.12765957,-730.97986,-345.7611,0.0014386773,0.058224022,0.010145187,0.0,0.0,0.0
767.91064,351.43567,77910252,0.77500004,0.12765957,-852.4887,-141.14531,0.0014386773,0.058224022,0.010145187,0.0,0.0,0.0
762.7697,349.2981,77910269,0.7875,0.12765957,-662.34357,-69.21779,0.0014386773,0.058224022,0.010145187,0.0,0.0,0.0
759.40985,349.0581,77910285,0.7875,0.12765957,-326.30493,48.665443,0.0014386773,0.058224022,0.010145187,0.0,0.0,0.0
758.73083,349.0581,77910302,0.8,0.12765957,-14.730853,134.72446,0.0014386773,0.058224022,0.010145187,0.0,0.0,0.0
762.1833,349.93286,77910319,0.77500004,0.12765957,227.04256,147.70634,0.0014386773,0.058224022,0.010145187,0.0,0.0,0.0
777.8886,353.64807,77910335,0.7875,0.10638297,707.1169,203.41145,0.0014386773,0.058224022,0.010145187,0.0,0.0,0.0
795.4553,356.31262,77910352,0.75,0.11702127,1230.1198,252.0941,0.0014386773,0.058224022,0.010145187,0.0,0.0,0.0
806.5607,358.1604,77910369,0.7625,0.10638297,1323.9514,229.61516,0.0014386773,0.058224022,0.010145187,0.0,0.0,0.0
817.50385,360.0387,77910386,0.77500004,0.08510638,1054.4878,165.30457,0.0014386773,0.058224022,0.010145187,0.0,0.0,0.0
823.69727,361.84814,77910402,0.7875,0.08510638,561.18024,91.396965,0.0014386773,0.058224022,0.010145187,0.0,0.0,0.0
827.6833,365.00647,77910419,0.77500004,0.08510638,136.64038,118.18559,0.0014386773,0.058224022,0.010145187,0.0,0.0,0.0
830.253,372.40125,77910436,0.77500004,0.08510638,36.268726,298.42206,0.0014386773,0.058224022,0.010145187,0.0,0.0,0.0
828.76483,384.3966,77910452,0.77500004,0.09574468,-131.26039,631.1736,0.0011509359,0.03057921,-0.039883614,0.0,0.0,0.0
824.7881,395.49463,77910469,0.7625,0.12765957,-311.5599,877.258,0.0011509359,0.03057921,-0.039883614,0.0,0.0,0.0
819.7301,406.5924,77910486,0.75,0.10638297,-455.3804,912.0285,0.0011509359,0.03057921,-0.039883614,0.0,0.0,0.0
815.14264,419.80383,77910503,0.7625,0.09574468,-480.52133,841.97015,0.0011509359,0.03057921,-0.039883614,0.0,0.0,0.0
811.7676,436.63635,77910519,0.75,0.09574468,-387.5406,895.58356,0.0011509359,0.03057921,-0.039883614,0.0,0.0,0.0
811.7136,446.89502,77910536,0.725,0.12765957,-129.97916,881.33905,0.0011509359,0.03057921,-0.039883614,0.0,0.0,0.0
813.8642,455.14856,77910553,0.7375,0.10638297,100.651215,679.6281,0.0011509359,0.03057921,-0.039883614,0.0,0.0,0.0
819.2584,460.60742,77910569,0.75,0.09574468,341.51614,358.1559,0.0011509359,0.03057921,-0.039883614,0.0,0.0,0.0
831.86005,465.05322,77910586,0.7375,0.09574468,678.03217,108.70845,0.0011509359,0.03057921,-0.039883614,0.0,0.0,0.0
845.85156,463.38123,77910603,0.7,0.12765957,983.73285,-93.546036,0.0011509359,0.03057921,-0.039883614,0.0,0.0,0.0
860.97815,455.09338,77910620,0.6375,0.10638297,1164.0157,-396.47205,0.0011509359,0.03057921,-0.039883614,0.0,0.0,0.0
869.9728,448.09937,77910636,0.35,0.08510638,955.07153,-683.94763,0.0011509359,0.03057921,-0.039883614,0.0,0.0,0.0
873.1936,445.01648,77910640,0.175,0.053191487,920.27893,-732.5237,0.0011509359,0.03057921,-0.039883614,0.0,0.0,0.0
873.1936,445.01648,77910648,0.175,0.053191487,920.27893,-732.5237,0.0011509359,0.03057921,-0.039883614,0.0,0.0,0.0
922.1777,389.04077,77910801,0.71250004,0.09574468,0.0,0.0,0.0011509359,0.03057921,-0.039883614,0.0,0.0,0.0
922.1777,389.04077,77910820,0.725,0.09574468,-0.072380304,-0.03655585,0.0011509359,0.03057921,-0.039883614,0.0,0.0,0.0
922.1777,389.04077,77910837,0.7375,0.09574468,-0.04985553,-0.021313712,0.0011509359,0.03057921,-0.039883614,0.0,0.0,0.0
922.1777,389.04077,77910854,0.75,0.08510638,-0.016668456,-0.0065306043,0.0011509359,0.03057921,-0.039883614,0.0,0.0,0.0
910.7323,392.25317,77910870,0.75,0.08510638,-333.2994,93.530914,0.0011509359,0.03057921,-0.039883614,0.0,0.0,0.0
894.0949,397.98022,77910887,0.75,0.10638297,-1067.99,323.69168,0.0011509359,0.03057921,-0.039883614,0.0,0.0,0.0
886.0218,405.07715,77910904,0.75,0.10638297,-1189.9761,514.1629,0.0011509359,0.03057921,-0.039883614,0.0,0.0,0.0
878.2604,418.09546,77910920,0.75,0.08510638,-897.64496,729.65125,0.0011509359,0.03057921,-0.039883614,0.0,0.0,0.0
874.3063,431.15332,77910937,0.75,0.08510638,-377.378,924.9075,0.0011509359,0.03057921,-0.039883614,0.0,0.0,0.0
874.1933,440.59424,77910954,0.71250004,0.10638297,130.17863,875.5241,0.0011509359,0.03057921,-0.039883614,0.0,0.0,0.0
876.2685,445.15137,77910971,0.725,0.10638297,199.71082,596.85925,0.0011509359,0.03057921,-0.039883614,0.0,0.0,0.0
882.16956,448.85425,77910987,0.75,0.10638297,426.40475,205.07953,0.01692076,0.008463353,0.06409359,0.0,0.0,0.0
894.48694,452.1245,77911004,0.7375,0.12765957,727.2924,-14.742294,0.01692076,0.008463353,0.06409359,0.0,0.0,0.0
906.69,450.70032,77911021,0.725,0.11702127,939.8903,-117.87562,0.01692076,0.008463353,0.06409359,0.0,0.0,0.0
916.0434,445.75488,77911037,0.725,0.09574468,948.78613,-267.06754,0.01692076,0.008463353,0.06409359,0.0,0.0,0.0
923.55054,438.4934,77911054,0.75,0.08510638,660.1033,-520.303,0.01692076,0.008463353,0.06409359,0.0,0.0,0.0
929.2803,430.614,77911071,0.75,0.08510638,352.7136,-690.18915,0.01692076,0.008463353,0.06409359,0.0,0.0,0.0
935.4392,417.09033,77911087,0.75,0.12765957,219.61543,-809.5948,0.01692076,0.008463353,0.06409359,0.0,0.0,0.0
936.3247,404.87366,77911104,0.7625,0.10638297,118.50007,-902.09424,0.01692076,0.008463353,0.06409359,0.0,0.0,0.0
934.50995,392.9015,77911121,0.7625,0.08510638,-83.41995,-910.49695,0.01692076,0.008463353,0.06409359,0.0,0.0,0.0
931.36786,384.94153,77911138,0.75,0.07446808,-308.02826,-740.6599,0.01692076,0.008463353,0.06409359,0.0,0.0,0.0
928.13,380.28467,77911154,0.75,0.09574468,-404.9109,-403.09485,0.01692076,0.008463353,0.06409359,0.0,0.0,0.0
918.5512,373.87964,77911171,0.75,0.08510638,-523.3676,-183.21056,0.01692076,0.008463353,0.06409359,0.0,0.0,0.0
910.7717,373.04773,77911188,0.7625,0.08510638,-598.56226,-42.38583,0.01692076,0.008463353,0.06409359,0.0,0.0,0.0
903.5162,374.1057,77911204,0.77500004,0.08510638,-614.9119,106.47357,0.01692076,0.008463353,0.06409359,0.0,0.0,0.0
899.9577,377.69214,77911221,0.7625,0.08510638,-458.39545,269.78662,0.01692076,0.008463353,0.06409359,0.0,0.0,0.0
897.34937,383.1283,77911238,0.75,0.09574468,-199.83554,429.59863,0.01692076,0.008463353,0.06409359,0.0,0.0,0.0
896.89545,390.1577,77911255,0.7625,0.10638297,37.099033,547.78937,0.01692076,0.008463353,0.06409359,0.0,0.0,0.0
899.42944,396.1421,77911271,0.7625,0.12765957,183.57825,531.43445,0.01692076,0.008463353,0.06409359,0.0,0.0,0.0
905.225,401.2578,77911288,0.7625,0.12765957,359.7074,432.05243,0.01692076,0.008463353,0.06409359,0.0,0.0,0.0
913.30774,406.20093,77911305,0.75,0.11702127,565.9353,327.89407,0.01692076,0.008463353,0.06409359,0.0,0.0,0.0
924.3971,408.94922,77911321,0.75,0.10638297,759.13477,180.73889,0.01692076,0.008463353,0.06409359,0.0,0.0,0.0
937.54504,409.47632,77911338,0.7625,0.09574468,881.7527,66.07252,0.01692076,0.008463353,0.06409359,0.0,0.0,0.0
950.4373,407.01074,77911355,0.7625,0.12765957,953.89124,-115.018875,0.01692076,0.008463353,0.06409359,0.0,0.0,0.0
959.58435,403.29285,77911372,0.75,0.12765957,844.30707,-313.87308,0.01692076,0.008463353,0.06409359,0.0,0.0,0.0
967.88464,398.6454,77911388,0.7625,0.11702127,590.8069,-400.08344,0.01692076,0.008463353,0.06409359,0.0,0.0,0.0
978.72473,390.86475,77911405,0.75,0.08510638,469.52676,-484.02023,0.01692076,0.008463353,0.06409359,0.0,0.0,0.0
984.8386,383.79102,77911422,0.7625,0.08510638,397.37357,-537.3029,0.01692076,0.008463353,0.06409359,0.0,0.0,0.0
992.8535,374.19153,77911438,0.7625,0.08510638,410.97653,-606.64014,0.01692076,0.008463353,0.06409359,0.0,0.0,0.0
997.5735,366.40833,77911455,0.7625,0.09574468,352.2232,-622.3476,0.01692076,0.008463353,0.06409359,0.0,0.0,0.0
1000.3782,360.6941,77911472,0.77500004,0.10638297,185.60812,-481.80875,0.01692076,0.008463353,0.06409359,0.0,0.0,0.0
1002.1832,354.74902,77911489,0.7875,0.12765957,42.672127,-325.8339,0.01692076,0.008463353,0.06409359,0.0,0.0,0.0
1003.15125,349.23987,77911505,0.7625,0.10638297,-40.664112,-255.59314,0.01692076,0.008463353,0.06409359,0.0,0.0,0.0
1002.32227,343.74866,77911522,0.77500004,0.10638297,-97.412025,-258.63382,-0.018463403,0.022770703,0.019274712,0.0,0.0,0.0
1001.27893,339.51025,77911539,0.77500004,0.08510638,-129.25356,-283.2682,-0.018463403,0.022770703,0.019274712,0.0,0.0,0.0
998.3943,336.0166,77911555,0.77500004,0.08510638,-179.58826,-225.01227,-0.018463403,0.022770703,0.019274712,0.0,0.0,0.0
995.7731,332.318,77911572,0.7625,0.08510638,-234.67685,-162.53015,-0.018463403,0.022770703,0.019274712,0.0,0.0,0.0
994.65,330.39246,77911589,0.77500004,0.08510638,-177.97433,-120.28904,-0.018463403,0.022770703,0.019274712,0.0,0.0,0.0
993.6084,328.54077,77911606,0.7875,0.08510638,-101.478035,-82.51138,-0.018463403,0.022770703,0.019274712,0.0,0.0,0.0
993.15454,328.62256,77911622,0.7875,0.08510638,-24.589067,-17.278635,-0.018463403,0.022770703,0.019274712,0.0,0.0,0.0
993.79065,331.77246,77911639,0.7875,0.10638297,46.511776,134.6592,-0.018463403,0.022770703,0.019274712,0.0,0.0,0.0
995.51355,334.59277,77911656,0.77500004,0.10638297,101.63328,247.1054,-0.018463403,0.022770703,0.019274712,0.0,0.0,0.0
1000.9375,341.93567,77911672,0.77500004,0.12765957,234.7862,405.00244,-0.018463403,0.022770703,0.019274712,0.0,0.0,0.0
1009.07764,351.1997,77911689,0.77500004,0.10638297,489.13745,607.92554,-0.018463403,0.022770703,0.019274712,0.0,0.0,0.0
1017.8959,361.32996,77911706,0.7625,0.09574468,660.09094,738.87024,-0.018463403,0.022770703,0.019274712,0.0,0.0,0.0
1025.6511,370.50122,77911723,0.7375,0.09574468,672.73193,745.7433,-0.018463403,0.022770703,0.019274712,0.0,0.0,0.0
1034.7861,379.7068,77911739,0.75,0.08510638,599.72473,637.56805,-0.018463403,0.022770703,0.019274712,0.0,0.0,0.0
1043.9257,387.29053,77911756,0.75,0.09574468,543.20825,505.71423,-0.018463403,0.022770703,0.019274712,0.0,0.0,0.0
1052.5542,395.5752,77911773,0.7375,0.10638297,553.83606,445.8279,-0.018463403,0.022770703,0.019274712,0.0,0.0,0.0
1058.5028,403.07153,77911789,0.7375,0.10638297,487.3083,428.81497,-0.018463403,0.022770703,0.019274712,0.0,0.0,0.0
1063.6205,410.349,77911806,0.7375,0.08510638,338.4012,421.02106,-0.018463403,0.022770703,0.019274712,0.0,0.0,0.0
1069.5175,421.81458,77911823,0.71250004,0.07446808,239.03235,520.763,-0.018463403,0.022770703,0.019274712,0.0,0.0,0.0
1071.2314,428.68066,77911839,0.725,0.08510638,147.38942,564.53015,-0.018463403,0.022770703,0.019274712,0.0,0.0,0.0
1071.629,433.09985,77911856,0.71250004,0.08510638,34.326145,435.3486,-0.018463403,0.022770703,0.019274712,0.0,0.0,0.0
1069.7368,436.8296,77911873,0.7375,0.08510638,-119.48936,245.62172,-0.018463403,0.022770703,0.019274712,0.0,0.0,0.0
1064.1167,439.56604,77911890,0.7375,0.09574468,-334.4358,62.12946,-0.018463403,0.022770703,0.019274712,0.0,0.0,0.0
1054.5746,443.26074,77911906,0.7375,0.10638297,-594.20154,62.87537,-0.018463403,0.022770703,0.019274712,0.0,0.0,0.0
1042.2373,447.8246,77911923,0.7375,0.11702127,-843.4882,209.86018,-0.018463403,0.022770703,0.019274712,0.0,0.0,0.0
1033.0397,449.97278,77911940,0.7375,0.12765957,-893.9085,222.86778,-0.018463403,0.022770703,0.019274712,0.0,0.0,0.0
1022.8152,451.23596,77911956,0.725,0.12765957,-752.3506,135.50697,-0.018463403,0.022770703,0.019274712,0.0,0.0,0.0
1013.66235,452.1245,77911973,0.6625,0.10638297,-603.0929,16.595377,-0.018463403,0.022770703,0.019274712,0.0,0.0,0.0
1013.1481,452.1245,77911974,0.475,0.10638297,-589.1646,11.223756,-0.018463403,0.022770703,0.019274712,0.0,0.0,0.0
1013.1481,452.1245,77911983,0.475,0.10638297,-589.1646,11.223756,-0.018463403,0.022770703,0.019274712,0.0,0.0,0.0
