x,y,timestamp,pressure,fingerarea,velocityx,velocityy,accelx,accely,accelz,gyrox,gyroy,gyroz
168.42303,277.9779,12815148,0.6875,0.08510638,0.0,0.0,0.010262828,0.0011960268,0.0019426346,0.0,0.0,0.0
168.42303,277.9779,12815165,0.7375,0.08510638,0.21918368,0.35904866,0.010262828,0.0011960268,0.0019426346,0.0,0.0,0.0
168.42303,277.9779,12815181,0.77500004,0.08510638,-0.006535423,-0.011659366,0.010262828,0.0011960268,0.0019426346,0.0,0.0,0.0
168.42303,277.9779,12815198,0.8,0.10638297,0.012568201,0.021507423,0.010262828,0.0011960268,0.0019426346,0.0,0.0,0.0
168.42303,277.9779,12815215,0.8,0.12765957,0.017436229,0.028474607,0.010262828,0.0011960268,0.0019426346,0.0,0.0,0.0
165.42401,296.58875,12815231,0.8125,0.10638297,-110.036316,627.7786,0.010262828,0.0011960268,0.0019426346,0.0,0.0,0.0
165.50334,313.84937,12815248,0.8125,0.08510638,-116.26072,1208.3379,0.010262828,0.0011960268,0.0019426346,0.0,0.0,0.0
168.76431,330.72437,12815265,0.8,0.09574468,38.826614,1487.747,0.010262828,0.0011960268,0.0019426346,0.0,0.0,0.0
172.17075,348.60437,12815282,0.8125,0.10638297,248.71645,1423.1753,0.010262828,0.0011960268,0.0019426346,0.0,0.0,0.0
173.32648,369.96545,12815298,0.8,0.08510638,298.28403,1160.7819,0.010262828,0.0011960268,0.0019426346,0.0,0.0,0.0
172.53062,386.48962,12815315,0.8125,0.09574468,78.03429,1198.4781,0.010262828,0.0011960268,0.0019426346,0.0,0.0,0.0
171.4314,403.12402,12815332,0.8125,0.10638297,-91.15881,1100.9265,0.010262828,0.0011960268,0.0019426346,0.0,0.0,0.0
170.38728,419.87366,12815348,0.8125,0.08510638,-175.11018,983.2381,0.010262828,0.0011960268,0.0019426346,0.0,0.0,0.0
170.42238,435.448,12815365,0.8,0.09574468,-110.99955,882.9475,0.010262828,0.0011960268,0.0019426346,0.0,0.0,0.0
170.42238,449.13037,12815382,0.7875,0.10638297,-23.455866,828.3945,0.010262828,0.0011960268,0.0019426346,0.0,0.0,0.0
172.94014,458.99146,12815399,0.75,0.09574468,89.69629,700.08936,0.010262828,0.0011960268,0.0019426346,0.0,0.0,0.0
174.92091,463.67505,12815412,0.3375,0.09574468,164.14008,479.65848,0.010262828,0.0011960268,0.0019426346,0.0,0.0,0.0
174.92091,463.67505,12815419,0.3375,0.09574468,164.14008,479.65848,0.010262828,0.0011960268,0.0019426346,0.0,0.0,0.0
187.91669,340.1731,12815661,0.475,0.09574468,0.0,0.0,-0.0077897385,-0.015043169,0.0015544891,0.0,0.0,0.0
187.91669,340.1731,12815683,0.4625,0.08510638,-0.033430908,-0.06053059,-0.0077897385,-0.015043169,0.0015544891,0.0,0.0,0.0
187.91669,340.1731,12815699,0.38750002,0.08510638,-0.0020637913,-0.0032775067,-0.0077897385,-0.015043169,0.0015544891,0.0,0.0,0.0
187.91669,340.1731,12815701,0.1875,0.053191487,0.013236587,0.02585542,-0.0077897385,-0.015043169,0.0015544891,0.0,0.0,0.0
187.91669,340.1731,12815709,0.1875,0.053191487,0.013236587,0.02585542,-0.0077897385,-0.015043169,0.0015544891,0.0,0.0,0.0
167.9232,302.85596,12816153,0.625,0.09574468,0.0,0.0,0.00976821,-0.028034538,0.03324318,0.0,0.0,0.0
167.9232,302.85596,12816184,0.675,0.10638297,0.007540741,0.013179708,0.00976821,-0.028034538,0.03324318,0.0,0.0,0.0
167.9232,302.85596,12816201,0.725,0.09574468,-0.008813937,-0.015615398,0.00976821,-0.028034538,0.03324318,0.0,0.0,0.0
174.75374,279.50635,12816217,0.75,0.06382979,302.14728,-1032.8359,0.00976821,-0.028034538,0.03324318,0.0,0.0,0.0
179.76987,267.33228,12816234,0.7625,0.08510638,453.4259,-1372.5359,0.00976821,-0.028034538,0.03324318,0.0,0.0,0.0
186.67447,258.35803,12816251,0.7625,0.10638297,530.87146,-1246.2446,0.00976821,-0.028034538,0.03324318,0.0,0.0,0.0
193.91205,249.42163,12816268,0.77500004,0.12765957,580.76324,-932.8495,0.00976821,-0.028034538,0.03324318,0.0,0.0,0.0
200.50607,242.35474,12816284,0.7625,0.11702127,512.90594,-442.37134,0.00976821,-0.028034538,0.03324318,0.0,0.0,0.0
206.53769,237.19409,12816301,0.7875,0.10638297,386.62454,-103.19944,0.00976821,-0.028034538,0.03324318,0.0,0.0,0.0
211.46533,235.32971,12816318,0.77500004,0.10638297,329.31165,-135.4764,0.00976821,-0.028034538,0.03324318,0.0,0.0,0.0
215.62918,235.87244,12816334,0.7875,0.10638297,232.95076,72.579094,0.00976821,-0.028034538,0.03324318,0.0,0.0,0.0
219.25494,239.79236,12816351,0.7875,0.09574468,177.14352,281.65002,0.00976821,-0.028034538,0.03324318,0.0,0.0,0.0
226.12286,255.4596,12816368,0.77500004,0.08510638,244.89694,710.2273,0.00976821,-0.028034538,0.03324318,0.0,0.0,0.0
230.66473,271.51892,12816384,0.77500004,0.08510638,329.73276,1189.5453,0.00976821,-0.028034538,0.03324318,0.0,0.0,0.0
234.72113,282.82812,12816401,0.7875,0.10638297,316.66214,1267.3427,0.00976821,-0.028034538,0.03324318,0.0,0.0,0.0
239.91733,293.11365,12816418,0.7625,0.10638297,287.2547,957.67664,0.00976821,-0.028034538,0.03324318,0.0,0.0,0.0
244.62137,298.65137,12816435,0.7625,0.08510638,258.54065,475.77496,0.00976821,-0.028034538,0.03324318,0.0,0.0,0.0
250.90396,303.15674,12816451,0.77500004,0.09574468,314.28586,133.53021,0.00976821,-0.028034538,0.03324318,0.0,0.0,0.0
259.51062,305.52148,12816468,0.75,0.08510638,456.95554,27.210331,0.00976821,-0.028034538,0.03324318,0.0,0.0,0.0
270.9256,304.0763,12816485,0.7625,0.09574468,627.64954,-119.46865,0.00976821,-0.028034538,0.03324318,0.0,0.0,0.0
282.9157,299.20667,12816501,0.75,0.10638297,803.9674,-317.41586,0.00976821,-0.028034538,0.03324318,0.0,0.0,0.0
292.0695,293.57483,12816518,0.7625,0.10638297,793.3669,-504.31696,0.00976821,-0.028034538,0.03324318,0.0,0.0,0.0
298.00354,287.53333,12816535,0.75,0.08510638,550.0985,-550.8679,0.00976821,-0.028034538,0.03324318,0.0,0.0,0.0
302.32904,280.17053,12816552,0.75,0.08510638,240.8308,-528.89703,0.00976821,-0.028034538,0.03324318,0.0,0.0,0.0
304.95132,273.65918,12816568,0.7875,0.09574468,35.091923,-473.4513,0.00976821,-0.028034538,0.03324318,0.0,0.0,0.0
307.17093,268.57214,12816585,0.7875,0.09574468,-10.8152685,-407.02304,0.00976821,-0.028034538,0.03324318,0.0,0.0,0.0
308.31058,265.6577,12816602,0.7875,0.09574468,-6.5040054,-262.99448,0.00976821,-0.028034538,0.03324318,0.0,0.0,0.0
309.34723,264.65027,12816618,0.7875,0.09574468,-4.528223,-71.88797,0.00976821,-0.028034538,0.03324318,0.0,0.0,0.0
309.8965,264.65027,12816635,0.77500004,0.09574468,-5.0236177,76.99018,0.00976821,-0.028034538,0.03324318,0.0,0.0,0.0
311.43814,272.30615,12816652,0.8,0.11702127,28.309927,328.01306,-0.008185431,-0.0064276457,0.026594162,0.0,0.0,0.0
311.87634,283.41516,12816669,0.7875,0.12765957,44.34469,668.9523,-0.008185431,-0.0064276457,0.026594162,0.0,0.0,0.0
309.61014,295.8683,12816685,0.7875,0.10638297,-37.665062,942.71027,-0.008185431,-0.0064276457,0.026594162,0.0,0.0,0.0
307.53687,314.48706,12816702,0.7875,0.08510638,-143.9148,1194.9211,-0.008185431,-0.0064276457,0.026594162,0.0,0.0,0.0
305.952,332.91968,12816719,0.77500004,0.10638297,-196.23755,1355.2864,-0.008185431,-0.0064276457,0.026594162,0.0,0.0,0.0
303.1135,352.72363,12816735,0.7875,0.10638297,-186.05942,1346.8439,-0.008185431,-0.0064276457,0.026594162,0.0,0.0,0.0
301.646,374.94983,12816752,0.77500004,0.08510638,-140.369,1441.0532,-0.008185431,-0.0064276457,0.026594162,0.0,0.0,0.0
300.56802,393.1421,12816769,0.77500004,0.10638297,-91.26874,1295.8298,-0.008185431,-0.0064276457,0.026594162,0.0,0.0,0.0
299.88025,410.0415,12816785,0.77500004,0.08510638,-45.609222,1118.2605,-0.008185431,-0.0064276457,0.026594162,0.0,0.0,0.0
299.88025,430.10217,12816802,0.77500004,0.08510638,14.41842,1068.1176,-0.008185431,-0.0064276457,0.026594162,0.0,0.0,0.0
299.88025,441.8806,12816819,0.7625,0.09574468,39.583515,881.67096,-0.008185431,-0.0064276457,0.026594162,0.0,0.0,0.0
301.36157,450.26672,12816836,0.71250004,0.12765957,61.1475,606.82935,-0.008185431,-0.0064276457,0.026594162,0.0,0.0,0.0
301.87958,452.1245,12816844,0.475,0.12765957,89.65196,433.26843,-0.008185431,-0.0064276457,0.026594162,0.0,0.0,0.0
301.87958,452.1245,12816851,0.475,0.12765957,89.65196,433.26843,-0.008185431,-0.0064276457,0.026594162,0.0,0.0,0.0
359.86072,350.83508,12817053,0.71250004,0.12765957,0.0,0.0,-0.008185431,-0.0064276457,0.026594162,0.0,0.0,0.0
359.86072,350.83508,12817070,0.725,0.12765957,-0.9424949,-0.89798176,-0.008185431,-0.0064276457,0.026594162,0.0,0.0,0.0
359.86072,350.83508,12817086,0.75,0.10638297,-0.012970054,-0.013436009,-0.008185431,-0.0064276457,0.026594162,0.0,0.0,0.0
359.86072,350.83508,12817103,0.7625,0.10638297,0.0063340385,0.0063802623,-0.008185431,-0.0064276457,0.026594162,0.0,0.0,0.0
359.86072,350.83508,12817120,0.77500004,0.08510638,0.0045730774,0.0036253596,-0.008185431,-0.0064276457,0.026594162,0.0,0.0,0.0
357.57098,372.4724,12817136,0.7625,0.08510638,-91.32275,780.00055,-0.008185431,-0.0064276457,0.026594162,0.0,0.0,0.0
359.85596,381.92432,12817153,0.7625,0.08510638,-18.00955,1160.3654,-0.008185431,-0.0064276457,0.026594162,0.0,0.0,0.0
364.0738,386.12158,12817170,0.75,0.11702127,151.79901,888.8184,-0.008185431,-0.0064276457,0.026594162,0.0,0.0,0.0
372.87238,390.4972,12817187,0.7625,0.10638297,494.46686,247.36598,0.009451654,0.01085788,0.0052757263,0.0,0.0,0.0
387.26486,391.06494,12817203,0.7625,0.09574468,845.6146,-130.33226,0.009451654,0.01085788,0.0052757263,0.0,0.0,0.0
401.66965,387.64417,12817220,0.7625,0.08510638,1107.5153,-232.06143,0.009451654,0.01085788,0.0052757263,0.0,0.0,0.0
410.81216,380.62842,12817237,0.7375,0.07446808,1019.0253,-432.3967,0.009451654,0.01085788,0.0052757263,0.0,0.0,0.0
415.77472,373.1682,12817253,0.7375,0.09574468,627.8118,-661.30817,0.009451654,0.01085788,0.0052757263,0.0,0.0,0.0
418.4176,365.71472,12817270,0.75,0.11702127,125.17744,-662.80945,0.009451654,0.01085788,0.0052757263,0.0,0.0,0.0
418.84152,360.2683,12817287,0.7625,0.12765957,-150.36537,-529.82166,0.009451654,0.01085788,0.0052757263,0.0,0.0,0.0
417.73965,356.87305,12817304,0.7625,0.12765957,-234.74702,-326.48816,0.009451654,0.01085788,0.0052757263,0.0,0.0,0.0
408.87933,354.38916,12817320,0.75,0.10638297,-416.764,-138.29752,0.009451654,0.01085788,0.0052757263,0.0,0.0,0.0
392.925,355.60254,12817337,0.75,0.10638297,-840.0768,49.854015,0.009451654,0.01085788,0.0052757263,0.0,0.0,0.0
376.81427,362.0797,12817354,0.75,0.09574468,-1238.3799,313.53326,0.009451654,0.01085788,0.0052757263,0.0,0.0,0.0
361.6635,373.66663,12817370,0.7625,0.08510638,-1339.323,699.9317,0.009451654,0.01085788,0.0052757263,0.0,0.0,0.0
349.97443,385.90198,12817387,0.7625,0.09574468,-1046.8041,983.7296,0.009451654,0.01085788,0.0052757263,0.0,0.0,0.0
340.09125,402.02307,12817404,0.7625,0.09574468,-628.0367,1092.8737,0.009451654,0.01085788,0.0052757263,0.0,0.0,0.0
334.73126,424.45618,12817421,0.75,0.08510638,-347.723,1331.1826,0.009451654,0.01085788,0.0052757263,0.0,0.0,0.0
334.7869,442.07422,12817437,0.7625,0.09574468,-30.986902,1433.6594,0.009451654,0.01085788,0.0052757263,0.0,0.0,0.0
338.66745,456.88647,12817454,0.75,0.10638297,311.07596,1268.6147,0.009451654,0.01085788,0.0052757263,0.0,0.0,0.0
344.38214,464.5818,12817471,0.725,0.08510638,547.96454,730.7619,0.009451654,0.01085788,0.0052757263,0.0,0.0,0.0
359.11652,471.9402,12817487,0.71250004,0.08510638,874.3762,270.74255,0.009451654,0.01085788,0.0052757263,0.0,0.0,0.0
381.73062,469.6277,12817504,0.71250004,0.09574468,1310.7715,-107.53451,0.009451654,0.01085788,0.0052757263,0.0,0.0,0.0
406.77524,454.83984,12817521,0.65000004,0.10638297,1782.7802,-700.3857,0.009451654,0.01085788,0.0052757263,0.0,0.0,0.0
422.116,443.1565,12817538,0.3125,0.08510638,1750.0948,-1186.4707,0.009451654,0.01085788,0.0052757263,0.0,0.0,0.0
437.83533,430.8004,12817545,0.16250001,0.07446808,1754.6448,-1396.3479,0.009451654,0.01085788,0.0052757263,0.0,0.0,0.0
437.83533,430.8004,12817550,0.16250001,0.07446808,1754.6448,-1396.3479,0.009451654,0.01085788,0.0052757263,0.0,0.0,0.0
419.34134,214.89417,12817760,0.6875,0.08510638,0.0,0.0,-0.008438677,0.024686307,0.0042209625,0.0,0.0,0.0
419.34134,214.89417,12817788,0.77500004,0.08510638,-0.03645753,-0.019379271,-0.008438677,0.024686307,0.0042209625,0.0,0.0,0.0
419.34134,214.89417,12817804,0.8125,0.08510638,0.021020852,0.011149946,-0.008438677,0.024686307,0.0042209625,0.0,0.0,0.0
419.34134,214.89417,12817822,0.77500004,0.08510638,0.03502682,0.018710019,-0.008438677,0.024686307,0.0042209625,0.0,0.0,0.0
417.87057,225.35193,12817838,0.8,0.10638297,-35.914093,255.38548,-0.008438677,0.024686307,0.0042209625,0.0,0.0,0.0
415.52634,250.81421,12817855,0.75,0.10638297,-121.36152,1081.8834,-0.008438677,0.024686307,0.0042209625,0.0,0.0,0.0
414.39606,274.3689,12817872,0.7,0.08510638,-159.26031,1891.1122,-0.008438677,0.024686307,0.0042209625,0.0,0.0,0.0
414.343,287.75146,12817881,0.3125,0.12765957,-141.06439,2087.985,-0.008438677,0.024686307,0.0042209625,0.0,0.0,0.0
414.343,287.75146,12817890,0.3125,0.12765957,-141.06439,2087.985,-0.008438677,0.024686307,0.0042209625,0.0,0.0,0.0
422.34036,468.11755,12818146,0.6375,0.11702127,0.0,0.0,-0.008438677,0.024686307,0.0042209625,0.0,0.0,0.0
422.34036,468.11755,12818173,0.7,0.11702127,0.021034492,0.021738295,-0.008438677,0.024686307,0.0042209625,0.0,0.0,0.0
422.34036,468.11755,12818189,0.725,0.11702127,0.012102785,0.014585801,-0.008438677,0.024686307,0.0042209625,0.0,0.0,0.0
422.34036,468.11755,12818206,0.7375,0.11702127,-0.0032011599,-0.0043847226,-0.008438677,0.024686307,0.0042209625,0.0,0.0,0.0
422.34036,468.11755,12818223,0.7375,0.11702127,0.011667716,0.012993262,-0.008438677,0.024686307,0.0042209625,0.0,0.0,0.0
422.34036,468.11755,12818239,0.75,0.10638297,0.0164105,0.016274836,-0.008438677,0.024686307,0.0042209625,0.0,0.0,0.0
436.93396,461.25073,12818256,0.7375,0.10638297,355.85706,-167.42047,0.009249058,-0.01225096,-0.012623787,0.0,0.0,0.0
450.7248,452.12964,12818273,0.7375,0.09574468,941.273,-504.7179,0.009249058,-0.01225096,-0.012623787,0.0,0.0,0.0
461.2105,437.22827,12818289,0.725,0.07446808,1138.702,-874.0708,0.009249058,-0.01225096,-0.012623787,0.0,0.0,0.0
471.96326,416.44434,12818306,0.7375,0.11702127,964.2205,-1267.8188,0.009249058,-0.01225096,-0.012623787,0.0,0.0,0.0
478.37323,399.53918,12818323,0.7625,0.09574468,540.8775,-1425.2462,0.009249058,-0.01225096,-0.012623787,0.0,0.0,0.0
481.43243,381.04285,12818340,0.75,0.09574468,171.31628,-1363.756,0.009249058,-0.01225096,-0.012623787,0.0,0.0,0.0
482.32086,367.34558,12818356,0.77500004,0.11702127,-1.7649221,-1114.972,0.009249058,-0.01225096,-0.012623787,0.0,0.0,0.0
481.68713,358.5304,12818373,0.77500004,0.12765957,-180.59413,-676.2133,0.009249058,-0.01225096,-0.012623787,0.0,0.0,0.0
479.4312,351.22412,12818390,0.77500004,0.11702127,-286.8617,-335.67664,0.009249058,-0.01225096,-0.012623787,0.0,0.0,0.0
477.89124,348.2921,12818406,0.7875,0.10638297,-256.03296,-105.609924,0.009249058,-0.01225096,-0.012623787,0.0,0.0,0.0
475.56244,345.0536,12818423,0.7875,0.10638297,-196.68845,3.713823,0.009249058,-0.01225096,-0.012623787,0.0,0.0,0.0
473.53107,343.20715,12818440,0.77500004,0.10638297,-164.55447,23.449547,0.009249058,-0.01225096,-0.012623787,0.0,0.0,0.0
472.51813,342.83862,12818457,0.7875,0.10638297,-103.96146,50.764206,0.009249058,-0.01225096,-0.012623787,0.0,0.0,0.0
472.67175,342.83862,12818473,0.77500004,0.12765957,-33.959053,66.0604,0.009249058,-0.01225096,-0.012623787,0.0,0.0,0.0
476.24567,345.87976,12818490,0.77500004,0.12765957,117.02137,138.39093,0.009249058,-0.01225096,-0.012623787,0.0,0.0,0.0
487.42487,353.82153,12818507,0.77500004,0.10638297,458.6614,365.03217,0.009249058,-0.01225096,-0.012623787,0.0,0.0,0.0
506.05988,365.76465,12818523,0.7625,0.08510638,1006.38043,692.5158,0.009249058,-0.01225096,-0.012623787,0.0,0.0,0.0
521.2302,377.89404,12818540,0.75,0.09574468,1351.4342,939.3901,0.009249058,-0.01225096,-0.012623787,0.0,0.0,0.0
533.0166,387.8966,12818557,0.75,0.12765957,1225.8232,932.7501,0.009249058,-0.01225096,-0.012623787,0.0,0.0,0.0
544.4916,399.0802,12818574,0.7625,0.10638297,863.9609,782.2323,0.009249058,-0.01225096,-0.012623787,0.0,0.0,0.0
550.85175,407.41956,12818590,0.7625,0.08510638,434.21295,579.5946,0.009249058,-0.01225096,-0.012623787,0.0,0.0,0.0
556.6739,418.59558,12818607,0.7375,0.08510638,219.38449,528.4349,0.009249058,-0.01225096,-0.012623787,0.0,0.0,0.0
557.5678,430.57153,12818624,0.7375,0.08510638,67.58927,663.60944,0.009249058,-0.01225096,-0.012623787,0.0,0.0,0.0
555.49445,438.9215,12818640,0.75,0.09574468,-174.46057,677.0743,0.009249058,-0.01225096,-0.012623787,0.0,0.0,0.0
551.2738,443.97656,12818657,0.75,0.12765957,-377.76892,479.50085,0.009249058,-0.01225096,-0.012623787,0.0,0.0,0.0
543.9522,449.47058,12818674,0.75,0.12765957,-565.165,213.0132,0.009249058,-0.01225096,-0.012623787,0.0,0.0,0.0
537.1708,454.3495,12818690,0.75,0.12765957,-617.9776,109.503426,0.009249058,-0.01225096,-0.012623787,0.0,0.0,0.0
530.3986,457.99243,12818707,0.7625,0.12765957,-569.73303,146.88289,0.009249058,-0.01225096,-0.012623787,0.0,0.0,0.0
525.9273,459.23254,12818724,0.7375,0.10638297,-443.44794,133.15005,0.009249058,-0.01225096,-0.012623787,0.0,0.0,0.0
524.807,459.23254,12818733,0.5,0.12765957,-334.6892,65.12596,0.009249058,-0.01225096,-0.012623787,0.0,0.0,0.0
524.807,459.23254,12818740,0.5,0.12765957,-334.6892,65.12596,0.009249058,-0.01225096,-0.012623787,0.0,0.0,0.0
546.79987,395.26025,12818925,0.6875,0.10638297,0.0,0.0,0.007399246,0.022199228,-0.026098251,0.0,0.0,0.0
546.79987,395.26025,12818958,0.75,0.09574468,-0.015118589,-0.012509438,0.007399246,0.022199228,-0.026098251,0.0,0.0,0.0
541.4989,374.53015,12818975,0.75,0.09574468,-352.62192,-1379.1091,0.007399246,0.022199228,-0.026098251,0.0,0.0,0.0
540.8018,363.10327,12818991,0.77500004,0.12765957,-234.52959,-1308.9817,0.007399246,0.022199228,-0.026098251,0.0,0.0,0.0
545.46893,354.32715,12819008,0.77500004,0.12765957,69.316666,-1020.9516,0.007399246,0.022199228,-0.026098251,0.0,0.0,0.0
556.0492,342.06848,12819025,0.7625,0.08510638,426.5197,-870.74524,0.007399246,0.022199228,-0.026098251,0.0,0.0,0.0
568.54333,332.96216,12819041,0.7625,0.08510638,883.55286,-587.22296,0.007399246,0.022199228,-0.026098251,0.0,0.0,0.0
579.99994,325.5288,12819058,0.77500004,0.09574468,1024.6587,-525.82733,0.007399246,0.022199228,-0.026098251,0.0,0.0,0.0
593.9053,323.81458,12819075,0.7625,0.08510638,984.40894,-298.80295,0.007399246,0.022199228,-0.026098251,0.0,0.0,0.0
610.64655,329.2301,12819092,0.7625,0.08510638,982.03436,187.99132,0.007399246,0.022199228,-0.026098251,0.0,0.0,0.0
625.4301,338.66064,12819108,0.75,0.12765957,1009.834,715.8597,0.007399246,0.022199228,-0.026098251,0.0,0.0,0.0
635.51855,349.83228,12819125,0.7625,0.11702127,892.88885,1000.7431,0.007399246,0.022199228,-0.026098251,0.0,0.0,0.0
645.2902,369.34497,12819142,0.7625,0.09574468,625.12445,1227.2305,0.007399246,0.022199228,-0.026098251,0.0,0.0,0.0
648.2402,387.07434,12819158,0.7375,0.09574468,258.82175,1374.2233,0.007399246,0.022199228,-0.026098251,0.0,0.0,0.0
647.72546,402.07007,12819175,0.75,0.11702127,-93.04752,1243.7064,0.007399246,0.022199228,-0.026098251,0.0,0.0,0.0
644.7583,416.62305,12819192,0.75,0.09574468,-323.6782,1048.0737,0.007399246,0.022199228,-0.026098251,0.0,0.0,0.0
637.9704,431.33313,12819209,0.7375,0.08510638,-544.4109,860.2533,0.007399246,0.022199228,-0.026098251,0.0,0.0,0.0
628.2731,439.24146,12819225,0.7375,0.09574468,-720.2273,593.6271,0.007399246,0.022199228,-0.026098251,0.0,0.0,0.0
616.52893,445.1267,12819242,0.75,0.09574468,-834.2663,385.6463,0.007399246,0.022199228,-0.026098251,0.0,0.0,0.0
610.13763,445.01648,12819259,0.75,0.10638297,-750.4811,-31.483183,0.007399246,0.022199228,-0.026098251,0.0,0.0,0.0
605.7429,444.5387,12819275,0.7625,0.08510638,-454.04645,-261.93466,0.007399246,0.022199228,-0.026098251,0.0,0.0,0.0
604.4751,442.6958,12819292,0.7625,0.08510638,-94.06481,-312.1599,0.007399246,0.022199228,-0.026098251,0.0,0.0,0.0
604.97797,440.84314,12819309,0.75,0.08510638,160.97368,-303.26117,-0.010080606,0.0017593801,-0.004878998,0.0,0.0,0.0
612.6932,438.16455,12819325,0.75,0.08510638,393.4429,-226.72829,-0.010080606,0.0017593801,-0.004878998,0.0,0.0,0.0
625.7962,440.30664,12819342,0.7625,0.08510638,774.51666,-92.07799,-0.010080606,0.0017593801,-0.004878998,0.0,0.0,0.0
636.86584,443.9972,12819359,0.7625,0.11702127,1021.9981,149.19655,-0.010080606,0.0017593801,-0.004878998,0.0,0.0,0.0
649.8057,450.36755,12819376,0.75,0.12765957,1029.9707,403.97247,-0.010080606,0.0017593801,-0.004878998,0.0,0.0,0.0
663.816,457.75854,12819392,0.7625,0.09574468,971.43884,575.9155,-0.010080606,0.0017593801,-0.004878998,0.0,0.0,0.0
677.3257,464.11316,12819409,0.7625,0.08510638,875.8611,581.43365,-0.010080606,0.0017593801,-0.004878998,0.0,0.0,0.0
686.7674,468.56763,12819426,0.7375,0.09574468,767.23846,438.83026,-0.010080606,0.0017593801,-0.004878998,0.0,0.0,0.0
694.0561,471.06885,12819442,0.71250004,0.09574468,548.1115,245.39369,-0.010080606,0.0017593801,-0.004878998,0.0,0.0,0.0
700.0667,471.67163,12819459,0.5625,0.08510638,290.23422,29.259457,-0.010080606,0.0017593801,-0.004878998,0.0,0.0,0.0
701.2496,471.67163,12819464,0.2875,0.10638297,212.64178,-33.734623,-0.010080606,0.0017593801,-0.004878998,0.0,0.0,0.0
701.2496,471.67163,12819471,0.2875,0.10638297,212.64178,-33.734623,-0.010080606,0.0017593801,-0.004878998,0.0,0.0,0.0
615.2776,397.03735,12819601,0.6875,0.09574468,0.0,0.0,-0.010080606,0.0017593801,-0.004878998,0.0,0.0,0.0
615.2776,397.03735,12819626,0.75,0.09574468,0.05246721,0.035570152,-0.010080606,0.0017593801,-0.004878998,0.0,0.0,0.0
615.2776,397.03735,12819643,0.75,0.09574468,0.034939837,0.025358805,-0.010080606,0.0017593801,-0.004878998,0.0,0.0,0.0
636.7736,397.03735,12819660,0.7625,0.11702127,1094.5474,-5.561229E-4,-0.010080606,0.0017593801,-0.004878998,0.0,0.0,0.0
659.48395,397.03735,12819676,0.7625,0.10638297,1743.6272,-0.021527786,-0.010080606,0.0017593801,-0.004878998,0.0,0.0,0.0
683.11536,396.1283,12819693,0.725,0.10638297,2027.7219,-15.515735,-0.010080606,0.0017593801,-0.004878998,0.0,0.0,0.0
700.2499,391.7063,12819705,0.4375,0.10638297,2077.417,-134.2721,-0.010080606,0.0017593801,-0.004878998,0.0,0.0,0.0
700.2499,391.7063,12819712,0.4375,0.10638297,2077.417,-134.2721,-0.010080606,0.0017593801,-0.004878998,0.0,0.0,0.0
794.2193,380.15576,12819931,0.6875,0.07446808,0.0,0.0,0.007935517,-0.030592486,0.012097359,0.0,0.0,0.0
794.2193,380.15576,12819960,0.725,0.08510638,-0.04167152,-0.017279208,0.007935517,-0.030592486,0.012097359,0.0,0.0,0.0
794.2193,380.15576,12819977,0.7375,0.10638297,0.045725096,0.022349205,0.007935517,-0.030592486,0.012097359,0.0,0.0,0.0
794.2193,380.15576,12819982,0.7375,0.09574468,-0.03202758,-0.015942797,0.007935517,-0.030592486,0.012097359,0.0,0.0,0.0
764.68097,365.04053,12820011,0.71250004,0.11702127,-1135.6511,-600.3777,0.007935517,-0.030592486,0.012097359,0.0,0.0,0.0
740.7108,366.97412,12820027,0.725,0.08510638,-1569.3811,-409.55435,0.007935517,-0.030592486,0.012097359,0.0,0.0,0.0
717.5889,371.69092,12820044,0.71250004,0.08510638,-1904.1669,28.418238,0.007935517,-0.030592486,0.012097359,0.0,0.0,0.0
701.37256,379.19446,12820061,0.7375,0.08510638,-1608.3407,560.8679,0.007935517,-0.030592486,0.012097359,0.0,0.0,0.0
689.7114,386.5448,12820077,0.7625,0.09574468,-1053.4762,800.9984,0.007935517,-0.030592486,0.012097359,0.0,0.0,0.0
682.78937,396.77563,12820094,0.75,0.10638297,-332.64432,679.56683,0.007935517,-0.030592486,0.012097359,0.0,0.0,0.0
681.2164,412.6775,12820111,0.75,0.08510638,65.23685,848.0648,0.007935517,-0.030592486,0.012097359,0.0,0.0,0.0
685.8412,429.17725,12820127,0.7375,0.08510638,389.22284,1130.806,0.007935517,-0.030592486,0.012097359,0.0,0.0,0.0
693.5346,438.42468,12820144,0.725,0.11702127,668.42914,1018.8715,0.007935517,-0.030592486,0.012097359,0.0,0.0,0.0
709.81476,447.76025,12820161,0.71250004,0.10638297,1044.8834,718.1308,0.007935517,-0.030592486,0.012097359,0.0,0.0,0.0
730.748,449.45898,12820177,0.71250004,0.10638297,1418.6322,212.11734,0.007935517,-0.030592486,0.012097359,0.0,0.0,0.0
747.3879,443.0548,12820194,0.725,0.09574468,1529.0626,-318.45187,0.007935517,-0.030592486,0.012097359,0.0,0.0,0.0
761.28784,430.37036,12820211,0.7375,0.08510638,1312.1675,-827.1064,0.007935517,-0.030592486,0.012097359,0.0,0.0,0.0
771.3475,417.28906,12820228,0.75,0.10638297,787.9536,-1205.2828,0.007935517,-0.030592486,0.012097359,0.0,0.0,0.0
777.58984,406.162,12820245,0.75,0.09574468,336.1956,-1150.1063,0.007935517,-0.030592486,0.012097359,0.0,0.0,0.0
782.02277,394.3734,12820261,0.75,0.08510638,88.103386,-925.0875,0.007935517,-0.030592486,0.012097359,0.0,0.0,0.0
782.2232,391.4756,12820278,0.7625,0.08510638,-77.14582,-486.99332,0.007935517,-0.030592486,0.012097359,0.0,0.0,0.0
782.2232,389.6129,12820295,0.7625,0.08510638,-188.81038,-87.451645,0.007935517,-0.030592486,0.012097359,0.0,0.0,0.0
781.3067,390.67004,12820311,0.77500004,0.09574468,-212.59259,185.37767,0.007935517,-0.030592486,0.012097359,0.0,0.0,0.0
777.21484,398.39075,12820328,0.7625,0.12765957,-258.78027,485.57016,0.007935517,-0.030592486,0.012097359,0.0,0.0,0.0
772.6233,413.48816,12820345,0.7625,0.08510638,-331.6982,835.3934,0.007935517,-0.030592486,0.012097359,0.0,0.0,0.0
770.7269,431.09485,12820362,0.7375,0.08510638,-332.7005,1287.2101,0.007935517,-0.030592486,0.012097359,0.0,0.0,0.0
771.8445,442.77002,12820378,0.725,0.09574468,-137.30388,1329.272,0.0063484125,-0.008473992,-0.022321701,0.0,0.0,0.0
776.3491,451.6234,12820395,0.71250004,0.10638297,210.26701,933.97046,0.0063484125,-0.008473992,-0.022321701,0.0,0.0,0.0
785.6464,460.49805,12820412,0.6625,0.09574468,554.22437,458.05017,0.0063484125,-0.008473992,-0.022321701,0.0,0.0,0.0
788.72107,463.67505,12820421,0.3375,0.09574468,667.02527,309.73813,0.0063484125,-0.008473992,-0.022321701,0.0,0.0,0.0
788.72107,463.67505,12820428,0.3375,0.09574468,667.02527,309.73813,0.0063484125,-0.008473992,-0.022321701,0.0,0.0,0.0
743.2359,216.67114,12820678,0.7375,0.08510638,0.0,0.0,0.0063484125,-0.008473992,-0.022321701,0.0,0.0,0.0
743.2359,216.67114,12820696,0.75,0.08510638,-0.21214089,-0.06285929,0.0063484125,-0.008473992,-0.022321701,0.0,0.0,0.0
743.2359,216.67114,12820712,0.7875,0.08510638,-0.022940774,-0.005978931,0.0063484125,-0.008473992,-0.022321701,0.0,0.0,0.0
743.2359,216.67114,12820729,0.7875,0.10638297,-0.06508474,-0.018841946,0.0063484125,-0.008473992,-0.022321701,0.0,0.0,0.0
741.9773,240.00879,12820746,0.77500004,0.12765957,-64.57991,1004.607,0.0063484125,-0.008473992,-0.022321701,0.0,0.0,0.0
745.9313,266.35242,12820763,0.75,0.08510638,66.20406,1821.7083,0.0063484125,-0.008473992,-0.022321701,0.0,0.0,0.0
753.3047,290.3557,12820779,0.675,0.12765957,352.38846,2235.725,0.0063484125,-0.008473992,-0.022321701,0.0,0.0,0.0
754.7322,295.74792,12820782,0.45000002,0.11702127,401.81558,2233.1892,0.0063484125,-0.008473992,-0.022321701,0.0,0.0,0.0
754.7322,295.74792,12820790,0.45000002,0.11702127,401.81558,2233.1892,0.0063484125,-0.008473992,-0.022321701,0.0,0.0,0.0
796.2186,478.77966,12821106,0.625,0.07446808,0.0,0.0,-0.026921272,-0.022779197,-0.0018577576,0.0,0.0,0.0
796.2186,478.77966,12821130,0.6875,0.08510638,0.040192172,0.02273036,-0.026921272,-0.022779197,-0.0018577576,0.0,0.0,0.0
796.2186,478.77966,12821147,0.7,0.10638297,0.015843911,0.0110369,-0.026921272,-0.022779197,-0.0018577576,0.0,0.0,0.0
796.2186,478.77966,12821164,0.7375,0.12765957,0.0057681925,0.003250496,-0.026921272,-0.022779197,-0.0018577576,0.0,0.0,0.0
806.76306,463.36316,12821180,0.725,0.10638297,380.14502,-555.97687,-0.026921272,-0.022779197,-0.0018577576,0.0,0.0,0.0
817.21765,446.29944,12821197,0.71250004,0.06382979,710.82367,-1087.835,-0.026921272,-0.022779197,-0.0018577576,0.0,0.0,0.0
829.1036,428.79333,12821214,0.725,0.08510638,984.97675,-1511.6201,-0.026921272,-0.022779197,-0.0018577576,0.0,0.0,0.0
838.83014,413.69617,12821230,0.71250004,0.12765957,950.21643,-1454.554,-0.026921272,-0.022779197,-0.0018577576,0.0,0.0,0.0
847.26306,395.09778,12821247,0.75,0.08510638,663.08563,-1161.2709,-0.026921272,-0.022779197,-0.0018577576,0.0,0.0,0.0
852.3277,378.36768,12821264,0.7375,0.08510638,347.72226,-975.94586,-0.026921272,-0.022779197,-0.0018577576,0.0,0.0,0.0
854.11646,368.30896,12821280,0.7375,0.10638297,126.164986,-867.66516,-0.026921272,-0.022779197,-0.0018577576,0.0,0.0,0.0
854.19977,362.63098,12821297,0.7375,0.12765957,-97.4252,-492.00836,-0.026921272,-0.022779197,-0.0018577576,0.0,0.0,0.0
854.69244,357.96875,12821314,0.725,0.12765957,-190.16237,-104.2639,-0.026921272,-0.022779197,-0.0018577576,0.0,0.0,0.0
855.23126,355.2212,12821330,0.7375,0.12765957,-125.63069,78.30719,-0.026921272,-0.022779197,-0.0018577576,0.0,0.0,0.0
857.41003,352.36182,12821347,0.71250004,0.12765957,14.509766,43.88838,-0.026921272,-0.022779197,-0.0018577576,0.0,0.0,0.0
864.6067,349.7445,12821364,0.725,0.12765957,263.65884,-56.24141,-0.026921272,-0.022779197,-0.0018577576,0.0,0.0,0.0
876.68494,349.0581,12821381,0.7375,0.10638297,618.8628,-48.83255,-0.026921272,-0.022779197,-0.0018577576,0.0,0.0,0.0
888.6321,350.6703,12821398,0.75,0.10638297,884.54663,38.16725,-0.026921272,-0.022779197,-0.0018577576,0.0,0.0,0.0
899.64874,353.48462,12821414,0.7375,0.10638297,966.9356,202.04294,-0.026921272,-0.022779197,-0.0018577576,0.0,0.0,0.0
905.329,356.29578,12821431,0.7375,0.11702127,671.1849,297.58105,-0.026921272,-0.022779197,-0.0018577576,0.0,0.0,0.0
908.31604,359.958,12821448,0.75,0.09574468,245.10301,294.23535,-0.026921272,-0.022779197,-0.0018577576,0.0,0.0,0.0
911.2389,366.66858,12821464,0.75,0.09574468,-20.07462,340.7256,0.010462981,0.029776633,0.014513969,0.0,0.0,0.0
911.2883,376.5381,12821481,0.7375,0.08510638,-135.00337,522.11597,0.010462981,0.029776633,0.014513969,0.0,0.0,0.0
908.51965,386.36414,12821498,0.75,0.10638297,-183.55527,689.59216,0.010462981,0.029776633,0.014513969,0.0,0.0,0.0
903.28845,398.5912,12821515,0.7625,0.12765957,-331.75418,832.42175,0.010462981,0.029776633,0.014513969,0.0,0.0,0.0
896.0308,415.16223,12821531,0.7625,0.08510638,-521.40564,971.7484,0.010462981,0.029776633,0.014513969,0.0,0.0,0.0
889.66675,434.24548,12821548,0.7375,0.08510638,-572.244,1139.3271,0.010462981,0.029776633,0.014513969,0.0,0.0,0.0
885.8987,446.05005,12821565,0.725,0.12765957,-453.04013,1128.2289,0.010462981,0.029776633,0.014513969,0.0,0.0,0.0
885.1897,458.32312,12821581,0.725,0.09574468,-194.87463,892.8224,0.010462981,0.029776633,0.014513969,0.0,0.0,0.0
887.1369,469.61658,12821598,0.6875,0.08510638,86.99153,658.5472,0.010462981,0.029776633,0.014513969,0.0,0.0,0.0
889.62775,474.2296,12821615,0.625,0.06382979,291.89328,378.59473,0.010462981,0.029776633,0.014513969,0.0,0.0,0.0
890.18805,475.2256,12821619,0.3375,0.06382979,321.10825,297.4495,0.010462981,0.029776633,0.014513969,0.0,0.0,0.0
890.18805,475.2256,12821627,0.3375,0.06382979,321.10825,297.4495,0.010462981,0.029776633,0.014513969,0.0,0.0,0.0
987.6564,393.48328,12821732,0.65000004,0.10638297,0.0,0.0,0.010462981,0.029776633,0.014513969,0.0,0.0,0.0
987.6564,393.48328,12821748,0.7,0.08510638,-2.0547712,-0.7575583,0.010462981,0.029776633,0.014513969,0.0,0.0,0.0
987.6564,393.48328,12821765,0.7375,0.08510638,-0.06266937,-0.024826698,0.010462981,0.029776633,0.014513969,0.0,0.0,0.0
987.6564,393.48328,12821782,0.75,0.08510638,-0.03993366,-0.016358169,0.010462981,0.029776633,0.014513969,0.0,0.0,0.0
987.6564,393.48328,12821799,0.7375,0.09574468,-0.0011553855,0.0025481784,0.010462981,0.029776633,0.014513969,0.0,0.0,0.0
987.6564,393.48328,12821815,0.7375,0.09574468,0.06845022,0.027442878,0.010462981,0.029776633,0.014513969,0.0,0.0,0.0
969.93115,399.54346,12821832,0.7375,0.10638297,-438.77988,142.00346,0.010462981,0.029776633,0.014513969,0.0,0.0,0.0
959.8085,406.91943,12821849,0.7375,0.09574468,-978.8075,438.7521,0.010462981,0.029776633,0.014513969,0.0,0.0,0.0
952.41187,419.56018,12821865,0.7375,0.08510638,-993.7639,726.3001,0.010462981,0.029776633,0.014513969,0.0,0.0,0.0
947.4923,434.41016,12821882,0.725,0.08510638,-626.9862,1062.4828,0.010462981,0.029776633,0.014513969,0.0,0.0,0.0
947.54834,444.8291,12821899,0.725,0.10638297,-13.8590765,1027.3507,0.010462981,0.029776633,0.014513969,0.0,0.0,0.0
950.0115,451.84534,12821916,0.725,0.10638297,348.82352,734.72144,0.010462981,0.029776633,0.014513969,0.0,0.0,0.0
956.34314,457.20935,12821932,0.7,0.10638297,460.71753,339.3191,0.010462981,0.029776633,0.014513969,0.0,0.0,0.0
965.6826,461.90564,12821949,0.7,0.11702127,687.9632,92.001495,0.010462981,0.029776633,0.014513969,0.0,0.0,0.0
979.765,459.9673,12821966,0.7,0.10638297,896.3838,-53.57293,0.010462981,0.029776633,0.014513969,0.0,0.0,0.0
991.0032,453.2987,12821982,0.71250004,0.08510638,982.0621,-353.08182,0.024370383,0.007821307,-0.020388603,0.0,0.0,0.0
999.0593,442.74695,12821999,0.725,0.06382979,825.18384,-703.6487,0.024370383,0.007821307,-0.020388603,0.0,0.0,0.0
1008.282,419.45056,12822016,0.71250004,0.12765957,598.0886,-1296.892,0.024370383,0.007821307,-0.020388603,0.0,0.0,0.0
1012.34656,401.8617,12822032,0.7375,0.10638297,329.48782,-1566.4495,0.024370383,0.007821307,-0.020388603,0.0,0.0,0.0
1012.1875,385.76465,12822049,0.71250004,0.08510638,22.382875,-1427.5544,0.024370383,0.007821307,-0.020388603,0.0,0.0,0.0
1009.7998,375.09253,12822066,0.725,0.08510638,-233.59912,-991.873,0.024370383,0.007821307,-0.020388603,0.0,0.0,0.0
1003.2495,368.09058,12822083,0.7375,0.09574468,-494.47064,-400.40677,0.024370383,0.007821307,-0.020388603,0.0,0.0,0.0
990.59143,362.91504,12822099,0.7375,0.10638297,-763.15814,-128.77977,0.024370383,0.007821307,-0.020388603,0.0,0.0,0.0
977.77344,361.4972,12822116,0.7375,0.11702127,-1003.3005,55.057858,0.024370383,0.007821307,-0.020388603,0.0,0.0,0.0
967.3634,362.17236,12822133,0.7375,0.08510638,-967.65106,165.99443,0.024370383,0.007821307,-0.020388603,0.0,0.0,0.0
958.3556,365.85535,12822149,0.75,0.08510638,-796.5507,294.81595,0.024370383,0.007821307,-0.020388603,0.0,0.0,0.0
952.11115,371.3313,12822166,0.7375,0.08510638,-452.19772,452.3882,0.024370383,0.007821307,-0.020388603,0.0,0.0,0.0
946.4457,383.41858,12822183,0.75,0.09574468,-259.02618,684.54407,0.024370383,0.007821307,-0.020388603,0.0,0.0,0.0
946.11926,395.54065,12822200,0.7375,0.10638297,-67.55179,875.7016,0.024370383,0.007821307,-0.020388603,0.0,0.0,0.0
949.1389,407.59302,12822216,0.725,0.08510638,191.06305,958.7833,0.024370383,0.007821307,-0.020388603,0.0,0.0,0.0
952.9989,413.6189,12822233,0.71250004,0.07446808,376.0177,745.2482,0.024370383,0.007821307,-0.020388603,0.0,0.0,0.0
962.72644,421.656,12822250,0.725,0.09574468,604.06195,486.39572,0.024370383,0.007821307,-0.020388603,0.0,0.0,0.0
976.83716,425.46936,12822266,0.71250004,0.07446808,851.72034,248.54207,0.024370383,0.007821307,-0.020388603,0.0,0.0,0.0
995.5785,421.0603,12822283,0.71250004,0.08510638,1217.6501,-91.574844,0.024370383,0.007821307,-0.020388603,0.0,0.0,0.0
1011.73206,411.91284,12822300,0.71250004,0.12765957,1371.5365,-552.30096,0.024370383,0.007821307,-0.020388603,0.0,0.0,0.0
1024.944,401.21338,12822317,0.725,0.11702127,1148.7914,-959.1412,0.024370383,0.007821307,-0.020388603,0.0,0.0,0.0
1038.9098,388.35657,12822333,0.725,0.08510638,866.1364,-1092.3973,0.024370383,0.007821307,-0.020388603,0.0,0.0,0.0
1049.9615,375.6637,12822350,0.7375,0.08510638,630.2876,-981.4089,0.024370383,0.007821307,-0.020388603,0.0,0.0,0.0
1059.529,364.28577,12822367,0.7375,0.10638297,531.11774,-855.1721,0.024370383,0.007821307,-0.020388603,0.0,0.0,0.0
1067.8859,354.06458,12822383,0.725,0.11702127,475.03058,-715.0188,0.024370383,0.007821307,-0.020388603,0.0,0.0,0.0
1072.8179,346.05627,12822400,0.725,0.09574468,309.29788,-542.5042,0.024370383,0.007821307,-0.020388603,0.0,0.0,0.0
1076.7136,336.04907,12822417,0.75,0.09574468,156.30318,-452.88327,0.024370383,0.007821307,-0.020388603,0.0,0.0,0.0
1077.7927,329.22205,12822434,0.75,0.09574468,23.941048,-410.8482,0.024370383,0.007821307,-0.020388603,0.0,0.0,0.0
1076.1927,323.9099,12822450,0.75,0.08510638,-128.59131,-351.33582,0.024370383,0.007821307,-0.020388603,0.0,0.0,0.0
1074.7089,321.1421,12822467,0.7375,0.08510638,-215.73933,-216.00203,0.024370383,0.007821307,-0.020388603,0.0,0.0,0.0
1072.0927,318.37268,12822484,0.7625,0.08510638,-263.02795,-71.20352,0.024370383,0.007821307,-0.020388603,0.0,0.0,0.0
1069.5182,317.07202,12822500,0.77500004,0.08510638,-258.55405,14.063894,0.024370383,0.007821307,-0.020388603,0.0,0.0,0.0
1067.4681,317.07202,12822517,0.7625,0.08510638,-187.30174,49.044407,0.024370383,0.007821307,-0.020388603,0.0,0.0,0.0
1065.7969,319.7412,12822534,0.7625,0.08510638,-130.88531,130.85739,-0.012503691,0.022257045,0.015688896,0.0,0.0,0.0
1066.4465,327.07947,12822551,0.7625,0.08510638,-37.62101,359.26465,-0.012503691,0.022257045,0.015688896,0.0,0.0,0.0
1069.4764,333.6814,12822567,0.75,0.12765957,128.31575,556.023,-0.012503691,0.022257045,0.015688896,0.0,0.0,0.0
1075.1337,342.84766,12822584,0.7375,0.11702127,337.0138,656.5759,-0.012503691,0.022257045,0.015688896,0.0,0.0,0.0
1085.6074,356.79028,12822601,0.725,0.08510638,603.0991,814.0871,-0.012503691,0.022257045,0.015688896,0.0,0.0,0.0
1093.9982,370.87817,12822617,0.7375,0.08510638,727.909,933.1298,-0.012503691,0.022257045,0.015688896,0.0,0.0,0.0
1104.3604,384.47656,12822634,0.725,0.10638297,767.9473,1016.33954,-0.012503691,0.022257045,0.015688896,0.0,0.0,0.0
1113.1235,396.3817,12822651,0.7,0.12765957,696.8075,942.0519,-0.012503691,0.022257045,0.015688896,0.0,0.0,0.0
1118.73,407.20618,12822668,0.71250004,0.08510638,495.05,717.4536,-0.012503691,0.022257045,0.015688896,0.0,0.0,0.0
1123.8386,422.7212,12822684,0.7,0.07446808,306.51038,744.91113,-0.012503691,0.022257045,0.015688896,0.0,0.0,0.0
1124.3292,432.42273,12822701,0.71250004,0.08510638,67.33073,734.008,-0.012503691,0.022257045,0.015688896,0.0,0.0,0.0
1122.1526,439.04553,12822718,0.725,0.09574468,-168.78299,573.82947,-0.012503691,0.022257045,0.015688896,0.0,0.0,0.0
1113.507,446.88977,12822734,0.725,0.10638297,-471.52365,326.51556,-0.012503691,0.022257045,0.015688896,0.0,0.0,0.0
1098.3878,457.297,12822751,0.71250004,0.12765957,-919.4761,306.01953,-0.012503691,0.022257045,0.015688896,0.0,0.0,0.0
1084.4818,465.833,12822768,0.71250004,0.08510638,-1185.7517,506.82895,-0.012503691,0.022257045,0.015688896,0.0,0.0,0.0
1073.8561,470.70215,12822784,0.71250004,0.08510638,-1121.7242,500.68942,-0.012503691,0.022257045,0.015688896,0.0,0.0,0.0
1069.6296,472.56006,12822793,0.55,0.08510638,-985.63306,410.20682,-0.012503691,0.022257045,0.015688896,0.0,0.0,0.0
1069.6296,472.56006,12822800,0.55,0.08510638,-985.63306,410.20682,-0.012503691,0.022257045,0.015688896,0.0,0.0,0.0
