x,y,timestamp,pressure,fingerarea,velocityx,velocityy,accelx,accely,accelz,gyrox,gyroy,gyroz
234.40155,317.96057,77949197,0.6625,0.053191487,0.0,0.0,0.007222444,-0.009880841,0.012285233,0.0,0.0,0.0
234.40155,317.96057,77949220,0.71250004,0.08510638,0.03785725,0.053557444,0.007222444,-0.009880841,0.012285233,0.0,0.0,0.0
234.40155,317.96057,77949237,0.7875,0.08510638,0.01730544,0.022907214,0.007222444,-0.009880841,0.012285233,0.0,0.0,0.0
234.40155,317.96057,77949254,0.77500004,0.08510638,-0.008071884,-0.00987522,0.007222444,-0.009880841,0.012285233,0.0,0.0,0.0
234.40155,317.96057,77949270,0.8,0.08510638,-0.027137697,-0.036504302,0.007222444,-0.009880841,0.012285233,0.0,0.0,0.0
234.40155,317.96057,77949287,0.83750004,0.08510638,0.013816989,0.01662186,0.007222444,-0.009880841,0.012285233,0.0,0.0,0.0
228.70114,331.4712,77949304,0.85,0.09574468,-104.81243,248.47742,0.007222444,-0.009880841,0.012285233,0.0,0.0,0.0
221.7182,348.28064,77949320,0.85,0.12765957,-407.08148,969.51733,0.007222444,-0.009880841,0.012285233,0.0,0.0,0.0
217.94922,362.23535,77949337,0.85,0.08510638,-529.18414,1403.2743,0.007222444,-0.009880841,0.012285233,0.0,0.0,0.0
214.80695,378.91724,77949354,0.825,0.08510638,-380.2371,1347.052,0.007222444,-0.009880841,0.012285233,0.0,0.0,0.0
212.788,392.4563,77949371,0.83750004,0.12765957,-165.58446,1073.9921,0.007222444,-0.009880841,0.012285233,0.0,0.0,0.0
212.40872,410.80908,77949387,0.85,0.08510638,14.767905,860.6953,0.007222444,-0.009880841,0.012285233,0.0,0.0,0.0
212.40872,430.8678,77949404,0.83750004,0.08510638,54.55501,1115.8865,0.007222444,-0.009880841,0.012285233,0.0,0.0,0.0
212.40872,445.9358,77949421,0.825,0.12765957,76.86965,1179.9603,0.007222444,-0.009880841,0.012285233,0.0,0.0,0.0
212.40872,462.3899,77949437,0.825,0.09574468,55.076572,1138.1116,0.007222444,-0.009880841,0.012285233,0.0,0.0,0.0
212.90854,479.0774,77949454,0.8,0.07446808,34.793106,1011.8011,0.005777955,0.024095327,0.0098285675,0.0,0.0,0.0
213.71454,492.1626,77949471,0.7875,0.08510638,40.706806,784.6876,0.005777955,0.024095327,0.0098285675,0.0,0.0,0.0
215.25864,497.79663,77949488,0.65000004,0.09574468,85.17209,545.79956,0.005777955,0.024095327,0.0098285675,0.0,0.0,0.0
215.40775,498.32666,77949490,0.3125,0.12765957,89.503914,479.61777,0.005777955,0.024095327,0.0098285675,0.0,0.0,0.0
215.40775,498.32666,77949498,0.3125,0.12765957,89.503914,479.61777,0.005777955,0.024095327,0.0098285675,0.0,0.0,0.0
221.40579,360.60864,77949877,0.475,0.09574468,0.0,0.0,0.005777955,0.024095327,0.0098285675,0.0,0.0,0.0
221.40579,360.60864,77949905,0.6375,0.09574468,0.015366683,0.024020255,0.005777955,0.024095327,0.0098285675,0.0,0.0,0.0
221.40579,360.60864,77949922,0.6875,0.12765957,0.010456836,0.017340159,0.005777955,0.024095327,0.0098285675,0.0,0.0,0.0
221.40579,360.60864,77949939,0.75,0.12765957,-3.6081258E-4,-0.002956371,0.005777955,0.024095327,0.0098285675,0.0,0.0,0.0
218.37228,346.45386,77949955,0.77500004,0.08510638,-72.83897,-339.914,0.005777955,0.024095327,0.0098285675,0.0,0.0,0.0
217.83282,330.4331,77949972,0.8,0.08510638,-141.25201,-976.99725,0.005777955,0.024095327,0.0098285675,0.0,0.0,0.0
220.29858,319.23132,77949989,0.8125,0.08510638,-47.06722,-1276.3169,-0.011377633,0.0032762587,-0.024137497,0.0,0.0,0.0
224.42609,310.8147,77950006,0.83750004,0.10638297,190.62167,-1002.367,-0.011377633,0.0032762587,-0.024137497,0.0,0.0,0.0
230.24655,302.4198,77950022,0.85,0.12765957,402.9785,-559.45355,-0.011377633,0.0032762587,-0.024137497,0.0,0.0,0.0
238.6619,294.18262,77950039,0.83750004,0.10638297,582.8636,-267.09964,-0.011377633,0.0032762587,-0.024137497,0.0,0.0,0.0
245.27512,290.8601,77950056,0.85,0.10638297,565.92004,-267.0178,-0.011377633,0.0032762587,-0.024137497,0.0,0.0,0.0
252.08847,290.41687,77950072,0.83750004,0.12765957,526.5524,-83.032166,-0.011377633,0.0032762587,-0.024137497,0.0,0.0,0.0
258.6063,292.02368,77950089,0.825,0.12765957,451.6195,137.42291,-0.011377633,0.0032762587,-0.024137497,0.0,0.0,0.0
266.1096,297.4928,77950106,0.825,0.10638297,394.06104,409.3352,-0.011377633,0.0032762587,-0.024137497,0.0,0.0,0.0
274.69223,305.79138,77950123,0.825,0.08510638,477.47125,589.0031,-0.011377633,0.0032762587,-0.024137497,0.0,0.0,0.0
284.3213,315.52795,77950139,0.8125,0.08510638,567.40076,740.56445,-0.011377633,0.0032762587,-0.024137497,0.0,0.0,0.0
293.69208,324.12866,77950156,0.8125,0.08510638,625.6934,757.6936,-0.011377633,0.0032762587,-0.024137497,0.0,0.0,0.0
303.6082,328.4513,77950173,0.8125,0.09574468,637.06464,544.9712,-0.011377633,0.0032762587,-0.024137497,0.0,0.0,0.0
312.38242,329.5111,77950189,0.8,0.09574468,589.61127,191.28389,-0.011377633,0.0032762587,-0.024137497,0.0,0.0,0.0
322.73816,326.88904,77950206,0.8,0.08510638,565.3954,-170.52124,-0.011377633,0.0032762587,-0.024137497,0.0,0.0,0.0
330.55115,321.3767,77950223,0.8,0.08510638,536.7658,-461.14938,-0.011377633,0.0032762587,-0.024137497,0.0,0.0,0.0
337.89407,312.93347,77950240,0.8,0.09574468,463.4104,-635.5766,-0.011377633,0.0032762587,-0.024137497,0.0,0.0,0.0
344.60226,303.5421,77950256,0.8125,0.12765957,388.90222,-725.0679,-0.011377633,0.0032762587,-0.024137497,0.0,0.0,0.0
349.0168,294.29834,77950273,0.8125,0.08510638,282.44788,-745.5914,-0.011377633,0.0032762587,-0.024137497,0.0,0.0,0.0
353.89108,285.0354,77950290,0.83750004,0.09574468,212.53714,-686.3387,-0.011377633,0.0032762587,-0.024137497,0.0,0.0,0.0
355.08517,281.6283,77950306,0.825,0.08510638,118.99225,-435.63464,-0.011377633,0.0032762587,-0.024137497,0.0,0.0,0.0
356.8846,278.40173,77950323,0.83750004,0.09574468,23.095953,-184.83833,-0.011377633,0.0032762587,-0.024137497,0.0,0.0,0.0
358.16208,277.08936,77950340,0.83750004,0.08510638,1.478148,15.587512,-0.011377633,0.0032762587,-0.024137497,0.0,0.0,0.0
358.86102,277.08936,77950357,0.83750004,0.09574468,-5.9183855,121.60926,-0.011377633,0.0032762587,-0.024137497,0.0,0.0,0.0
360.24084,281.56946,77950373,0.85,0.11702127,24.004469,221.70912,-0.011377633,0.0032762587,-0.024137497,0.0,0.0,0.0
359.94467,292.9264,77950390,0.825,0.12765957,16.031712,542.12146,-0.011377633,0.0032762587,-0.024137497,0.0,0.0,0.0
356.51837,309.26843,77950407,0.825,0.08510638,-101.84571,986.26685,-0.011377633,0.0032762587,-0.024137497,0.0,0.0,0.0
351.8504,326.89722,77950423,0.825,0.09574468,-286.22534,1339.5044,-0.011377633,0.0032762587,-0.024137497,0.0,0.0,0.0
347.68832,340.7998,77950440,0.8125,0.10638297,-383.61844,1297.0063,-0.011377633,0.0032762587,-0.024137497,0.0,0.0,0.0
342.48355,360.32825,77950457,0.8,0.08510638,-403.78745,1190.1727,-0.011377633,0.0032762587,-0.024137497,0.0,0.0,0.0
336.85226,382.67712,77950474,0.8125,0.09574468,-382.45618,1258.141,-0.011377633,0.0032762587,-0.024137497,0.0,0.0,0.0
332.11276,401.62512,77950490,0.8,0.10638297,-335.4261,1281.0609,-0.011377633,0.0032762587,-0.024137497,0.0,0.0,0.0
328.98236,421.9591,77950507,0.8,0.08510638,-273.11285,1321.9836,-0.011377633,0.0032762587,-0.024137497,0.0,0.0,0.0
328.14734,439.31165,77950524,0.7875,0.10638297,-99.97146,1189.7577,-0.009102106,0.018621027,-0.0033102036,0.0,0.0,0.0
328.42578,453.79846,77950540,0.7625,0.12765957,53.185444,958.38513,-0.009102106,0.018621027,-0.0033102036,0.0,0.0,0.0
331.31744,468.1648,77950557,0.7625,0.08510638,194.01683,800.1064,-0.009102106,0.018621027,-0.0033102036,0.0,0.0,0.0
334.4376,479.912,77950574,0.7,0.06382979,299.38132,602.0463,-0.009102106,0.018621027,-0.0033102036,0.0,0.0,0.0
335.76917,485.53442,77950591,0.375,0.08510638,265.21786,400.58234,-0.009102106,0.018621027,-0.0033102036,0.0,0.0,0.0
335.86853,485.8877,77950592,0.1875,0.06382979,245.53151,365.8333,-0.009102106,0.018621027,-0.0033102036,0.0,0.0,0.0
335.86853,485.8877,77950599,0.1875,0.06382979,245.53151,365.8333,-0.009102106,0.018621027,-0.0033102036,0.0,0.0,0.0
388.35144,419.24988,77950785,0.7,0.08510638,0.0,0.0,-0.009102106,0.018621027,-0.0033102036,0.0,0.0,0.0
388.35144,419.24988,77950808,0.75,0.08510638,0.007821904,0.010570987,-0.009102106,0.018621027,-0.0033102036,0.0,0.0,0.0
388.35144,419.24988,77950824,0.77500004,0.09574468,-0.033373035,-0.03734135,-0.009102106,0.018621027,-0.0033102036,0.0,0.0,0.0
388.35144,419.24988,77950829,0.7875,0.08510638,0.022123966,0.023564667,-0.009102106,0.018621027,-0.0033102036,0.0,0.0,0.0
388.35144,419.24988,77950849,0.8,0.08510638,-0.008942853,-0.009656103,-0.009102106,0.018621027,-0.0033102036,3.355443E-6,0.0,0.0
388.35144,419.24988,77950874,0.7875,0.08510638,-0.028017325,-0.030434988,-0.009102106,0.018621027,-0.0033102036,3.355443E-6,0.0,0.0
404.84607,427.24646,77950890,0.7875,0.08510638,493.30197,239.1497,-0.009102106,0.018621027,-0.0033102036,3.355443E-6,0.0,0.0
416.16058,431.32092,77950908,0.77500004,0.08510638,897.1742,389.61438,-0.009102106,0.018621027,-0.0033102036,3.355443E-6,0.0,0.0
426.46973,431.36694,77950925,0.77500004,0.07446808,978.5636,290.99002,-0.009102106,0.018621027,-0.0033102036,0.0,0.0,0.0
435.1669,428.2102,77950941,0.7875,0.08510638,710.3358,-88.23975,-0.009102106,0.018621027,-0.0033102036,0.0,0.0,0.0
441.68845,423.13684,77950958,0.7875,0.08510638,394.4617,-415.31897,-0.009102106,0.018621027,-0.0033102036,0.0,0.0,0.0
445.45087,417.60254,77950975,0.77500004,0.09574468,238.9212,-505.78632,-0.009102106,0.018621027,-0.0033102036,0.0,0.0,0.0
447.3322,408.1775,77950992,0.7875,0.10638297,69.83561,-598.93646,-0.009102106,0.018621027,-0.0033102036,0.0,0.0,0.0
445.21326,401.2671,77951008,0.8,0.10638297,-137.80693,-603.36743,-0.009102106,0.018621027,-0.0033102036,0.0,0.0,0.0
439.83057,395.7008,77951025,0.7875,0.08510638,-362.02176,-495.28473,-0.009102106,0.018621027,-0.0033102036,0.0,0.0,0.0
430.65982,390.93225,77951042,0.7875,0.09574468,-604.37067,-351.90744,-0.009102106,0.018621027,-0.0033102036,0.0,0.0,0.0
417.181,390.83813,77951058,0.8,0.09574468,-882.39795,-94.834915,0.008718327,-0.0011031926,0.029351234,0.0,0.0,0.0
401.1825,395.44202,77951075,0.8,0.12765957,-1116.9946,231.65572,0.008718327,-0.0011031926,0.029351234,0.0,0.0,0.0
389.3434,404.0708,77951092,0.8,0.10638297,-1085.4099,545.5857,0.008718327,-0.0011031926,0.029351234,0.0,0.0,0.0
380.84744,413.4193,77951109,0.8125,0.09574468,-813.40674,788.21985,0.008718327,-0.0011031926,0.029351234,0.0,0.0,0.0
371.0856,436.37085,77951125,0.8,0.09574468,-550.6863,1216.094,0.008718327,-0.0011031926,0.029351234,0.0,0.0,0.0
369.16537,446.52002,77951142,0.77500004,0.12765957,-216.54167,1220.9515,0.008718327,-0.0011031926,0.029351234,0.0,0.0,0.0
369.09662,458.22595,77951159,0.7875,0.11702127,42.829697,977.5073,0.008718327,-0.0011031926,0.029351234,0.0,0.0,0.0
371.97763,469.32825,77951175,0.7875,0.09574468,285.99677,669.12396,0.008718327,-0.0011031926,0.029351234,0.0,0.0,0.0
377.41742,478.66846,77951192,0.7625,0.07446808,489.3193,446.2131,0.008718327,-0.0011031926,0.029351234,0.0,0.0,0.0
388.12912,486.7229,77951209,0.7625,0.06382979,641.46875,474.6848,0.008718327,-0.0011031926,0.029351234,0.0,0.0,0.0
404.34097,491.77283,77951226,0.77500004,0.08510638,976.3951,325.95816,0.008718327,-0.0011031926,0.029351234,0.0,0.0,0.0
420.44736,492.9956,77951242,0.75,0.08510638,1223.0273,112.54464,0.008718327,-0.0011031926,0.029351234,0.0,0.0,0.0
440.84903,486.10327,77951259,0.725,0.06382979,1382.4567,-260.59143,0.008718327,-0.0011031926,0.029351234,0.0,0.0,0.0
453.33026,478.77966,77951268,0.5,0.08510638,1468.1992,-532.5076,0.008718327,-0.0011031926,0.029351234,0.0,0.0,0.0
453.33026,478.77966,77951275,0.5,0.08510638,1468.1992,-532.5076,0.008718327,-0.0011031926,0.029351234,0.0,0.0,0.0
467.82556,293.0824,77951469,0.75,0.12765957,0.0,0.0,0.008718327,-0.0011031926,0.029351234,0.0,0.0,0.0
467.82556,293.0824,77951492,0.8,0.12765957,-0.011609051,-0.007794876,0.008718327,-0.0011031926,0.029351234,0.0,0.0,0.0
467.82556,293.0824,77951510,0.8125,0.10638297,-0.015798096,-0.010304536,0.008718327,-0.0011031926,0.029351234,0.0,0.0,0.0
456.6515,322.62793,77951526,0.8,0.08510638,-652.1648,1676.6218,0.008718327,-0.0011031926,0.029351234,0.0,0.0,0.0
453.2558,338.79346,77951543,0.77500004,0.10638297,-535.9489,1738.7739,0.008718327,-0.0011031926,0.029351234,0.0,0.0,0.0
451.1338,357.2173,77951560,0.5375,0.08510638,-372.7215,1707.8748,0.008718327,-0.0011031926,0.029351234,0.0,0.0,0.0
450.83112,358.83167,77951565,0.2,0.07446808,-327.96265,1628.6351,0.008718327,-0.0011031926,0.029351234,0.0,0.0,0.0
450.83112,358.83167,77951572,0.2,0.07446808,-327.96265,1628.6351,0.008718327,-0.0011031926,0.029351234,0.0,0.0,0.0
455.82947,468.11755,77951855,0.7,0.08510638,0.0,0.0,0.0069746673,0.03111747,0.023480415,0.0,0.0,0.0
455.82947,468.11755,77951877,0.7375,0.09574468,0.02118579,0.022213146,0.0069746673,0.03111747,0.023480415,0.0,0.0,0.0
455.82947,468.11755,77951894,0.75,0.09574468,-0.035658885,-0.036112983,0.0069746673,0.03111747,0.023480415,0.0,0.0,0.0
455.82947,468.11755,77951911,0.7625,0.09574468,0.009179732,0.009115191,0.0069746673,0.03111747,0.023480415,0.0,0.0,0.0
455.82947,468.11755,77951927,0.75,0.10638297,-0.009180955,-0.009692852,0.0069746673,0.03111747,0.023480415,3.355443E-6,0.0,0.0
471.5282,461.3817,77951944,0.7625,0.12765957,449.1882,-192.70561,0.0069746673,0.03111747,0.023480415,3.355443E-6,0.0,0.0
479.39313,456.13184,77951961,0.75,0.10638297,859.071,-425.06934,0.0069746673,0.03111747,0.023480415,3.355443E-6,0.0,0.0
486.72803,449.42493,77951978,0.7625,0.08510638,872.37213,-534.19635,0.0069746673,0.03111747,0.023480415,3.355443E-6,0.0,0.0
491.08466,441.8772,77951994,0.77500004,0.08510638,611.1227,-578.9298,0.0069746673,0.03111747,0.023480415,0.0,0.0,0.0
497.7547,426.68774,77952011,0.7875,0.08510638,310.9201,-733.022,0.0069746673,0.03111747,0.023480415,0.0,0.0,0.0
501.2649,414.18433,77952028,0.7875,0.10638297,122.401054,-918.3985,0.0069746673,0.03111747,0.023480415,0.0,0.0,0.0
502.0484,405.80835,77952044,0.7875,0.09574468,127.383896,-884.9591,0.0069746673,0.03111747,0.023480415,0.0,0.0,0.0
501.50763,400.38892,77952061,0.8,0.09574468,-51.68071,-532.56384,0.0069746673,0.03111747,0.023480415,0.0,0.0,0.0
500.9817,395.85352,77952078,0.8,0.08510638,-187.73781,-142.86371,0.0069746673,0.03111747,0.023480415,0.0,0.0,0.0
499.92267,393.67444,77952095,0.8125,0.08510638,-193.94423,40.546864,0.0069746673,0.03111747,0.023480415,0.0,0.0,0.0
499.3153,391.83496,77952111,0.8125,0.08510638,-110.10807,29.280104,0.0069746673,0.03111747,0.023480415,0.0,0.0,0.0
499.3153,390.81775,77952128,0.8125,0.08510638,-41.318825,15.918063,-0.010420263,-0.023106039,-0.029214859,0.0,0.0,0.0
501.85358,391.7295,77952145,0.7875,0.09574468,72.22155,63.22157,-0.010420263,-0.023106039,-0.029214859,0.0,0.0,0.0
509.25482,394.56848,77952161,0.77500004,0.12765957,314.8541,166.08124,-0.010420263,-0.023106039,-0.029214859,0.0,0.0,0.0
520.18945,400.2246,77952178,0.75,0.12765957,645.68835,327.88522,-0.010420263,-0.023106039,-0.029214859,0.0,0.0,0.0
530.37885,405.87268,77952195,0.77500004,0.11702127,824.2018,452.8638,-0.010420263,-0.023106039,-0.029214859,0.0,0.0,0.0
538.3044,411.3656,77952212,0.77500004,0.08510638,783.96576,473.692,-0.010420263,-0.023106039,-0.029214859,0.0,0.0,0.0
547.8936,417.6466,77952228,0.77500004,0.08510638,652.34845,447.1028,-0.010420263,-0.023106039,-0.029214859,0.0,0.0,0.0
557.2629,425.87634,77952245,0.7625,0.06382979,533.62665,444.8203,-0.010420263,-0.023106039,-0.029214859,0.0,0.0,0.0
563.7303,433.73022,77952262,0.75,0.08510638,495.07056,525.28015,-0.010420263,-0.023106039,-0.029214859,0.0,0.0,0.0
569.9328,443.48914,77952278,0.75,0.12765957,366.73953,573.9825,-0.010420263,-0.023106039,-0.029214859,0.0,0.0,0.0
573.14435,455.0005,77952295,0.7375,0.09574468,215.49043,683.87225,-0.010420263,-0.023106039,-0.029214859,0.0,0.0,0.0
572.8915,464.56226,77952312,0.725,0.08510638,1.0313708,702.08276,-0.010420263,-0.023106039,-0.029214859,0.0,0.0,0.0
569.5059,471.3872,77952329,0.75,0.06382979,-220.59811,598.7989,-0.010420263,-0.023106039,-0.029214859,0.0,0.0,0.0
563.57477,476.75342,77952345,0.7625,0.06382979,-440.05542,377.3993,-0.010420263,-0.023106039,-0.029214859,0.0,0.0,0.0
553.00714,484.31726,77952362,0.75,0.07446808,-696.5094,265.699,-0.010420263,-0.023106039,-0.029214859,0.0,0.0,0.0
544.3054,488.80457,77952379,0.77500004,0.09574468,-771.8989,260.02808,-0.010420263,-0.023106039,-0.029214859,0.0,0.0,0.0
539.4165,490.28955,77952395,0.77500004,0.08510638,-664.4403,185.70403,-0.010420263,-0.023106039,-0.029214859,0.0,0.0,0.0
535.77075,490.3302,77952412,0.75,0.07446808,-348.86917,15.715166,-0.010420263,-0.023106039,-0.029214859,0.0,0.0,0.0
534.8038,490.3302,77952426,0.4125,0.09574468,-110.559845,-113.687775,-0.010420263,-0.023106039,-0.029214859,0.0,0.0,0.0
534.8038,490.3302,77952434,0.4125,0.09574468,-110.559845,-113.687775,-0.010420263,-0.023106039,-0.029214859,0.0,0.0,0.0
568.29285,441.46252,77952636,0.675,0.08510638,0.0,0.0,-0.010420263,-0.023106039,-0.029214859,0.0,0.0,0.0
568.29285,441.46252,77952663,0.7375,0.06382979,-0.016847732,-0.011004271,0.0076638013,-0.002484858,-0.023371696,0.0,0.0,0.0
568.29285,441.46252,77952679,0.7625,0.08510638,0.026496593,0.018824503,0.0076638013,-0.002484858,-0.023371696,0.0,0.0,0.0
561.8774,419.88806,77952696,0.7625,0.09574468,-336.28647,-1116.5352,0.0076638013,-0.002484858,-0.023371696,0.0,0.0,0.0
562.01166,409.8462,77952713,0.75,0.10638297,-255.18993,-1195.6589,0.0076638013,-0.002484858,-0.023371696,0.0,0.0,0.0
565.8783,401.32947,77952730,0.7625,0.09574468,-8.9744625,-1017.17365,0.0076638013,-0.002484858,-0.023371696,3.355443E-6,0.0,0.0
571.3523,393.15283,77952746,0.77500004,0.08510638,317.76422,-669.76874,0.0076638013,-0.002484858,-0.023371696,3.355443E-6,0.0,0.0
577.67664,384.75928,77952763,0.7625,0.08510638,582.8964,-343.84378,0.0076638013,-0.002484858,-0.023371696,3.355443E-6,0.0,0.0
583.9163,379.1693,77952780,0.7875,0.09574468,511.46207,-370.04037,0.0076638013,-0.002484858,-0.023371696,3.355443E-6,0.0,0.0
590.6855,378.37878,77952796,0.77500004,0.07446808,475.86057,-182.67001,0.0076638013,-0.002484858,-0.023371696,0.0,0.0,0.0
599.1101,382.484,77952813,0.7625,0.08510638,486.7245,156.56017,0.0076638013,-0.002484858,-0.023371696,0.0,0.0,0.0
609.99347,391.31384,77952830,0.7625,0.10638297,581.97217,567.8849,0.0076638013,-0.002484858,-0.023371696,0.0,0.0,0.0
617.59534,400.4879,77952847,0.725,0.09574468,629.22577,822.72626,0.0076638013,-0.002484858,-0.023371696,0.0,0.0,0.0
626.0325,418.6776,77952863,0.725,0.07446808,586.09625,1078.2788,0.0076638013,-0.002484858,-0.023371696,0.0,0.0,0.0
630.76886,434.33508,77952880,0.71250004,0.08510638,412.1103,1253.7839,0.0076638013,-0.002484858,-0.023371696,0.0,0.0,0.0
631.7722,444.5758,77952897,0.725,0.12765957,137.60248,1078.6827,0.0076638013,-0.002484858,-0.023371696,0.0,0.0,0.0
630.8105,453.51538,77952913,0.725,0.12765957,-118.1028,720.3778,0.0076638013,-0.002484858,-0.023371696,0.0,0.0,0.0
626.3028,459.65125,77952930,0.725,0.09574468,-361.59747,306.9134,0.0076638013,-0.002484858,-0.023371696,0.0,0.0,0.0
619.38995,463.3634,77952947,0.725,0.08510638,-546.5232,46.10871,0.0076638013,-0.002484858,-0.023371696,0.0,0.0,0.0
611.6152,465.3667,77952964,0.75,0.08510638,-624.247,5.466688,0.0076638013,-0.002484858,-0.023371696,0.0,0.0,0.0
605.80865,464.5736,77952980,0.725,0.10638297,-600.6439,-105.26202,0.0076638013,-0.002484858,-0.023371696,0.0,0.0,0.0
602.1787,462.72546,77952997,0.725,0.12765957,-389.57135,-210.53638,0.0076638013,-0.002484858,-0.023371696,0.0,0.0,0.0
601.2075,460.87695,77953014,0.725,0.12765957,-128.09915,-246.76433,0.0076638013,-0.002484858,-0.023371696,0.0,0.0,0.0
601.90125,459.02063,77953030,0.75,0.12765957,92.072525,-228.20624,0.0076638013,-0.002484858,-0.023371696,0.0,0.0,0.0
610.825,457.1504,77953047,0.7625,0.10638297,398.79227,-169.15248,0.0076638013,-0.002484858,-0.023371696,0.0,0.0,0.0
623.89215,458.70178,77953064,0.7375,0.12765957,777.39325,-35.790573,0.0076638013,-0.002484858,-0.023371696,3.355443E-6,0.0,0.0
634.67426,462.19995,77953081,0.7375,0.11702127,1006.05396,156.21414,0.0076638013,-0.002484858,-0.023371696,3.355443E-6,0.0,0.0
648.2453,469.13098,77953097,0.75,0.08510638,1055.7926,406.82663,0.0076638013,-0.002484858,-0.023371696,3.355443E-6,0.0,0.0
661.5541,476.92847,77953114,0.7375,0.06382979,933.2378,595.4581,0.0076638013,-0.002484858,-0.023371696,3.355443E-6,0.0,0.0
673.57666,485.4176,77953131,0.7625,0.06382979,819.3458,665.3498,0.0076638013,-0.002484858,-0.023371696,0.0,0.0,0.0
683.46936,492.39697,77953147,0.7375,0.08510638,702.3688,607.23505,0.0076638013,-0.002484858,-0.023371696,0.0,0.0,0.0
689.8772,497.1709,77953164,0.71250004,0.11702127,452.83838,418.7619,0.0076638013,-0.002484858,-0.023371696,0.0,0.0,0.0
694.6183,500.87354,77953181,0.71250004,0.12765957,231.62187,230.90616,0.0076638013,-0.002484858,-0.023371696,0.0,0.0,0.0
699.78033,501.88074,77953198,0.625,0.10638297,135.48528,50.76344,-0.009868979,-0.017987877,-0.050697327,0.0,0.0,0.0
700.74976,501.88074,77953206,0.3,0.11702127,90.71816,-25.074095,-0.009868979,-0.017987877,-0.050697327,0.0,0.0,0.0
700.74976,501.88074,77953213,0.3,0.11702127,90.71816,-25.074095,-0.009868979,-0.017987877,-0.050697327,0.0,0.0,0.0
610.2792,435.24292,77953342,0.7,0.06382979,0.0,0.0,-0.009868979,-0.017987877,-0.050697327,0.0,0.0,0.0
610.2792,435.24292,77953365,0.725,0.06382979,-0.08189889,-0.059487578,-0.009868979,-0.017987877,-0.050697327,0.0,0.0,0.0
610.2792,435.24292,77953381,0.75,0.07446808,0.01657657,0.011009191,-0.009868979,-0.017987877,-0.050697327,0.0,0.0,0.0
610.2792,435.24292,77953394,0.77500004,0.06382979,-0.0104284175,-0.006695345,-0.009868979,-0.017987877,-0.050697327,0.0,0.0,0.0
633.6023,431.64978,77953415,0.75,0.08510638,1024.7092,-159.94307,-0.009868979,-0.017987877,-0.050697327,0.0,0.0,0.0
650.45605,431.68896,77953431,0.7375,0.07446808,1314.9177,-117.82841,-0.009868979,-0.017987877,-0.050697327,0.0,0.0,0.0
675.67535,428.62463,77953448,0.6875,0.06382979,1711.1954,-136.77899,-0.009868979,-0.017987877,-0.050697327,0.0,0.0,0.0
676.2577,428.1349,77953455,0.4375,0.09574468,1666.0255,-143.58473,-0.009868979,-0.017987877,-0.050697327,-3.355443E-6,0.0,0.0
676.2577,428.1349,77953462,0.4375,0.09574468,1666.0255,-143.58473,-0.009868979,-0.017987877,-0.050697327,-3.355443E-6,0.0,0.0
762.72955,418.36133,77953664,0.675,0.08510638,0.0,0.0,-0.009868979,-0.017987877,-0.050697327,0.0,0.0,0.0
762.72955,418.36133,77953682,0.7,0.10638297,-0.09348499,-0.039676312,-0.009868979,-0.017987877,-0.050697327,0.0,0.0,0.0
762.72955,418.36133,77953699,0.71250004,0.10638297,0.008594768,0.004778917,-0.009868979,-0.017987877,-0.050697327,0.0,0.0,0.0
762.72955,418.36133,77953708,0.71250004,0.12765957,0.011702911,0.0060518486,-0.007895172,0.017609686,0.09544182,3.355443E-6,0.0,0.0
762.72955,418.36133,77953749,0.725,0.11702127,-0.014304792,-0.008188853,-0.007895172,0.017609686,0.09544182,3.355443E-6,0.0,0.0
752.4925,408.94897,77953766,0.75,0.10638297,-239.92891,-220.6182,-0.007895172,0.017609686,0.09544182,3.355443E-6,0.0,0.0
738.1677,399.40076,77953782,0.7625,0.09574468,-970.60815,-788.43774,-0.007895172,0.017609686,0.09544182,0.0,0.0,0.0
726.58386,397.92578,77953799,0.75,0.09574468,-1139.6519,-677.4739,-0.007895172,0.017609686,0.09544182,0.0,0.0,0.0
715.5287,399.60193,77953816,0.7375,0.12765957,-930.32166,-18.727966,-0.007895172,0.017609686,0.09544182,0.0,0.0,0.0
706.8436,404.95813,77953832,0.7375,0.11702127,-762.9501,304.87207,-0.007895172,0.017609686,0.09544182,0.0,0.0,0.0
699.0786,413.28467,77953849,0.75,0.07446808,-450.34912,721.9499,-0.007895172,0.017609686,0.09544182,0.0,0.0,0.0
689.68964,429.1366,77953866,0.7375,0.07446808,-422.16357,976.13635,-0.007895172,0.017609686,0.09544182,0.0,0.0,0.0
685.9084,440.91577,77953882,0.7375,0.09574468,-324.4137,1065.1403,-0.007895172,0.017609686,0.09544182,0.0,0.0,0.0
686.9029,449.0027,77953899,0.7375,0.12765957,-77.98566,916.33716,-0.007895172,0.017609686,0.09544182,0.0,0.0,0.0
690.0954,456.28662,77953916,0.7375,0.11702127,223.70934,629.0324,-0.007895172,0.017609686,0.09544182,0.0,0.0,0.0
694.5853,461.47522,77953932,0.725,0.09574468,469.473,209.8807,-0.007895172,0.017609686,0.09544182,0.0,0.0,0.0
705.6466,469.51123,77953949,0.725,0.07446808,647.2441,257.5279,-0.007895172,0.017609686,0.09544182,0.0,0.0,0.0
721.89575,472.56006,77953966,0.71250004,0.06382979,954.6961,274.88443,-0.007895172,0.017609686,0.09544182,0.0,0.0,0.0
736.9785,470.463,77953983,0.725,0.08510638,1226.8206,40.138493,-0.007895172,0.017609686,0.09544182,0.0,0.0,0.0
748.3624,464.56152,77953999,0.725,0.12765957,1134.082,-319.20547,-0.007895172,0.017609686,0.09544182,0.0,0.0,0.0
759.00574,454.76038,77954016,0.7375,0.10638297,794.7242,-728.94946,-0.007895172,0.017609686,0.09544182,0.0,0.0,0.0
770.13837,435.56177,77954033,0.725,0.06382979,532.24567,-1078.6338,-0.007895172,0.017609686,0.09544182,0.0,0.0,0.0
777.7203,420.1471,77954049,0.7375,0.09574468,421.84457,-1317.7664,-0.007895172,0.017609686,0.09544182,0.0,0.0,0.0
781.30304,410.08215,77954066,0.7625,0.10638297,310.74362,-1157.2028,-0.007895172,0.017609686,0.09544182,0.0,0.0,0.0
781.7234,406.66016,77954083,0.7625,0.10638297,47.670135,-623.3044,-0.007895172,0.017609686,0.09544182,0.0,0.0,0.0
781.7234,404.79272,77954100,0.77500004,0.12765957,-166.23958,-30.423714,-0.007895172,0.017609686,0.09544182,0.0,0.0,0.0
781.7234,405.0338,77954116,0.7625,0.09574468,-229.55081,321.2465,-0.007895172,0.017609686,0.09544182,0.0,0.0,0.0
779.53906,415.10107,77954133,0.77500004,0.08510638,-205.17882,534.06647,-0.007895172,0.017609686,0.09544182,0.0,0.0,0.0
779.2242,432.3695,77954150,0.75,0.08510638,-113.67001,991.93744,-0.007895172,0.017609686,0.09544182,0.0,0.0,0.0
782.8445,445.2323,77954166,0.7375,0.10638297,27.563162,1292.7119,-0.007895172,0.017609686,0.09544182,0.0,0.0,0.0
788.48975,455.26733,77954183,0.725,0.10638297,299.6521,1149.7158,-0.007895172,0.017609686,0.09544182,0.0,0.0,0.0
796.3489,464.52832,77954200,0.6875,0.09574468,535.4294,663.8447,-0.007895172,0.017609686,0.09544182,0.0,0.0,0.0
810.9915,474.5055,77954217,0.6375,0.07446808,820.3391,402.02167,-0.007895172,0.017609686,0.09544182,0.0,0.0,0.0
815.7123,476.11414,77954227,0.2375,0.06382979,908.721,325.4081,-0.007895172,0.017609686,0.09544182,0.0,0.0,0.0
815.7123,476.11414,77954233,0.2375,0.06382979,908.721,325.4081,-0.007895172,0.017609686,0.09544182,0.0,0.0,0.0
737.7377,280.64343,77954435,0.725,0.08510638,0.0,0.0,0.025683865,0.030087769,-0.027647018,0.0,0.0,0.0
737.7377,280.64343,77954467,0.8,0.10638297,-0.032801323,-0.012090318,0.025683865,0.030087769,-0.027647018,0.0,0.0,0.0
736.71295,296.12683,77954484,0.7875,0.10638297,-68.42444,1034.0326,0.025683865,0.030087769,-0.027647018,0.0,0.0,0.0
737.2917,318.21985,77954500,0.7625,0.08510638,-18.197777,1707.2085,0.025683865,0.030087769,-0.027647018,0.0,0.0,0.0
741.0924,337.15344,77954517,0.725,0.12765957,137.03557,1803.5598,0.025683865,0.030087769,-0.027647018,1.5005995E-5,7.5029975E-6,0.0
745.82196,354.69812,77954534,0.675,0.08510638,270.8705,1681.5413,0.025683865,0.030087769,-0.027647018,1.5005995E-5,7.5029975E-6,0.0
750.23364,366.82825,77954548,0.25,0.09574468,416.70233,1381.297,0.025683865,0.030087769,-0.027647018,1.5005995E-5,7.5029975E-6,0.0
750.23364,366.82825,77954555,0.25,0.09574468,416.70233,1381.297,0.025683865,0.030087769,-0.027647018,1.5005995E-5,7.5029975E-6,0.0
810.7139,468.11755,77954805,0.625,0.11702127,0.0,0.0,0.0045471042,-0.007929802,-0.0061178207,0.0,0.0,0.0
810.7139,468.11755,77954835,0.6875,0.11702127,-0.020864699,-0.009882765,0.0045471042,-0.007929802,-0.0061178207,0.0,0.0,0.0
810.7139,468.11755,77954852,0.71250004,0.10638297,-0.013321593,-0.008165733,0.0045471042,-0.007929802,-0.0061178207,3.355443E-6,0.0,0.0
810.7139,468.11755,77954865,0.71250004,0.10638297,0.011596385,0.009603334,0.0045471042,-0.007929802,-0.0061178207,3.355443E-6,0.0,0.0
830.8922,454.1349,77954885,0.7375,0.09574468,750.2987,-515.9241,0.0045471042,-0.007929802,-0.0061178207,3.355443E-6,0.0,0.0
839.3138,444.87793,77954902,0.7375,0.07446808,908.4297,-725.23126,0.0045471042,-0.007929802,-0.0061178207,3.355443E-6,0.0,0.0
844.93445,430.07996,77954918,0.7375,0.08510638,800.7005,-990.3615,0.0045471042,-0.007929802,-0.0061178207,0.0,0.0,0.0
846.7996,417.1488,77954935,0.7375,0.12765957,350.54495,-1029.4568,0.0045471042,-0.007929802,-0.0061178207,0.0,0.0,0.0
843.73474,408.08875,77954952,0.725,0.10638297,-196.53558,-811.3038,0.0045471042,-0.007929802,-0.0061178207,0.0,0.0,0.0
839.229,401.86987,77954968,0.75,0.08510638,-441.19318,-493.16162,0.0045471042,-0.007929802,-0.0061178207,0.0,0.0,0.0
834.5722,396.7168,77954985,0.7625,0.08510638,-523.57404,-270.07166,0.0045471042,-0.007929802,-0.0061178207,0.0,0.0,0.0
832.7192,393.07214,77955002,0.75,0.08510638,-378.13553,-104.013084,0.0045471042,-0.007929802,-0.0061178207,0.0,0.0,0.0
832.49243,388.9143,77955019,0.75,0.08510638,-142.25266,-128.28119,0.0045471042,-0.007929802,-0.0061178207,0.0,0.0,0.0
839.9583,385.21228,77955035,0.7375,0.06382979,227.24864,-162.79604,0.0045471042,-0.007929802,-0.0061178207,0.0,0.0,0.0
852.14935,383.70972,77955052,0.7375,0.08510638,737.4053,-129.15355,0.0045471042,-0.007929802,-0.0061178207,0.0,0.0,0.0
865.87775,385.31946,77955069,0.75,0.08510638,1088.6964,18.874779,0.0045471042,-0.007929802,-0.0061178207,0.0,0.0,0.0
880.09644,388.8485,77955085,0.75,0.08510638,1215.0797,241.91849,0.0045471042,-0.007929802,-0.0061178207,0.0,0.0,0.0
887.6134,390.7909,77955102,0.75,0.09574468,942.7073,326.38068,0.0045471042,-0.007929802,-0.0061178207,0.0,0.0,0.0
892.81665,393.5293,77955119,0.75,0.12765957,426.1911,282.48053,0.0045471042,-0.007929802,-0.0061178207,0.0,0.0,0.0
895.31805,395.3772,77955136,0.75,0.12765957,83.65329,174.64682,0.0045471042,-0.007929802,-0.0061178207,0.0,0.0,0.0
896.7946,399.20044,77955152,0.7375,0.12765957,-116.47047,156.38889,0.0045471042,-0.007929802,-0.0061178207,0.0,0.0,0.0
894.7006,406.1853,77955169,0.75,0.08510638,-200.78758,286.60672,0.0045471042,-0.007929802,-0.0061178207,0.0,0.0,0.0
890.1658,416.09875,77955186,0.75,0.08510638,-305.84787,517.89526,0.0045471042,-0.007929802,-0.0061178207,0.0,0.0,0.0
883.5727,426.964,77955202,0.75,0.07446808,-491.65253,767.7214,0.0045471042,-0.007929802,-0.0061178207,0.0,0.0,0.0
879.40234,436.2245,77955219,0.7375,0.08510638,-513.80695,811.4099,0.0045471042,-0.007929802,-0.0061178207,0.0,0.0,0.0
876.88965,443.61462,77955236,0.725,0.10638297,-340.55737,637.81464,0.0045471042,-0.007929802,-0.0061178207,0.0,0.0,0.0
877.0276,450.9535,77955253,0.725,0.12765957,-66.024155,431.17874,0.0045471042,-0.007929802,-0.0061178207,0.0,0.0,0.0
878.9265,457.63696,77955269,0.725,0.10638297,173.09111,315.7599,0.0045471042,-0.007929802,-0.0061178207,0.0,0.0,0.0
882.7491,461.58435,77955286,0.7375,0.08510638,304.56265,247.25769,0.0045471042,-0.007929802,-0.0061178207,0.0,0.0,0.0
889.43085,466.1881,77955303,0.725,0.08510638,438.8584,216.09401,0.0045471042,-0.007929802,-0.0061178207,0.0,0.0,0.0
897.6724,469.0028,77955319,0.725,0.08510638,571.9701,143.55685,-0.012362331,0.009656161,-0.02089405,0.0,0.0,0.0
906.55554,469.0061,77955336,0.725,0.09574468,648.78094,23.448689,-0.012362331,0.009656161,-0.02089405,0.0,0.0,0.0
914.8386,467.0829,77955353,0.725,0.10638297,647.348,-117.33759,-0.012362331,0.009656161,-0.02089405,0.0,0.0,0.0
922.7739,463.1184,77955370,0.725,0.12765957,562.9524,-278.97842,-0.012362331,0.009656161,-0.02089405,0.0,0.0,0.0
932.2681,458.60315,77955386,0.725,0.10638297,533.85596,-397.97726,-0.012362331,0.009656161,-0.02089405,0.0,0.0,0.0
940.15063,454.04456,77955403,0.7375,0.09574468,515.76733,-397.70193,-0.012362331,0.009656161,-0.02089405,0.0,0.0,0.0
947.84985,446.8922,77955420,0.7375,0.08510638,504.72488,-418.22263,-0.012362331,0.009656161,-0.02089405,0.0,0.0,0.0
952.2591,439.52332,77955436,0.725,0.07446808,371.5487,-479.60388,-0.012362331,0.009656161,-0.02089405,0.0,0.0,0.0
956.28516,432.70544,77955453,0.7375,0.07446808,198.10086,-509.68954,-0.012362331,0.009656161,-0.02089405,0.0,0.0,0.0
958.34265,428.70935,77955470,0.75,0.08510638,66.96347,-404.7033,-0.012362331,0.009656161,-0.02089405,0.0,0.0,0.0
959.5394,426.5819,77955486,0.75,0.08510638,-12.685119,-179.11719,-0.012362331,0.009656161,-0.02089405,0.0,0.0,0.0
960.5946,424.7063,77955503,0.7375,0.08510638,-25.533585,-19.240456,-0.012362331,0.009656161,-0.02089405,0.0,0.0,0.0
961.1649,422.85095,77955520,0.75,0.08510638,-24.467445,22.594526,-0.012362331,0.009656161,-0.02089405,0.0,0.0,0.0
961.6648,421.0006,77955537,0.7375,0.08510638,-7.3171306,-37.27056,-0.012362331,0.009656161,-0.02089405,0.0,0.0,0.0
961.6648,419.15613,77955553,0.7375,0.08510638,-9.927803,-89.355644,-0.012362331,0.009656161,-0.02089405,0.0,0.0,0.0
961.6648,418.36133,77955570,0.7375,0.08510638,-18.193933,-85.25704,-0.012362331,0.009656161,-0.02089405,0.0,0.0,0.0
961.6648,418.36133,77955587,0.7375,0.08510638,-21.441475,-23.275545,-0.012362331,0.009656161,-0.02089405,0.0,0.0,0.0
961.6648,418.36133,77955603,0.475,0.09574468,-13.028644,29.717688,-0.012362331,0.009656161,-0.02089405,0.0,0.0,0.0
961.6648,418.36133,77955610,0.2125,0.09574468,-9.133207,44.52957,-0.012362331,0.009656161,-0.02089405,0.0,0.0,0.0
961.6648,418.36133,77955616,0.2125,0.09574468,-9.133207,44.52957,-0.012362331,0.009656161,-0.02089405,0.0,0.0,0.0
974.6605,389.92932,77955770,0.7,0.09574468,0.0,0.0,-0.012362331,0.009656161,-0.02089405,0.0,0.0,0.0
974.6605,389.92932,77955787,0.725,0.09574468,-0.027160231,-0.014759527,-0.012362331,0.009656161,-0.02089405,0.0,0.0,0.0
974.6605,389.92932,77955802,0.7375,0.09574468,0.059509523,0.024123544,-0.012362331,0.009656161,-0.02089405,0.0,0.0,0.0
974.6605,389.92932,77955837,0.75,0.10638297,0.008721082,0.0044855936,-0.012362331,0.009656161,-0.02089405,0.0,0.0,0.0
974.6605,389.92932,77955854,0.725,0.12765957,0.037603337,0.014442217,-0.009889871,0.023724943,-0.04871559,0.0,0.0,0.0
960.44055,409.33752,77955871,0.71250004,0.08510638,-504.29926,679.1962,-0.009889871,0.023724943,-0.04871559,0.0,0.0,0.0
950.9666,429.41907,77955888,0.71250004,0.06382979,-853.99084,1361.4149,-0.009889871,0.023724943,-0.04871559,0.0,0.0,0.0
947.9094,439.5072,77955904,0.71250004,0.08510638,-693.2882,1457.5586,-0.009889871,0.023724943,-0.04871559,0.0,0.0,0.0
947.6694,447.07507,77955921,0.71250004,0.10638297,-332.5659,1038.3816,-0.009889871,0.023724943,-0.04871559,0.0,0.0,0.0
949.5841,451.97412,77955938,0.71250004,0.10638297,225.33551,305.75018,-0.009889871,0.023724943,-0.04871559,0.0,0.0,0.0
954.1534,455.6703,77955954,0.71250004,0.10638297,511.64523,-129.13957,-0.009889871,0.023724943,-0.04871559,0.0,0.0,0.0
961.94617,458.4154,77955971,0.71250004,0.12765957,554.16754,-35.021946,-0.009889871,0.023724943,-0.04871559,0.0,0.0,0.0
972.07214,457.30847,77955988,0.7,0.12765957,679.92053,-58.5851,-0.009889871,0.023724943,-0.04871559,0.0,0.0,0.0
982.9702,454.3661,77956005,0.71250004,0.10638297,800.7177,-205.25381,-0.009889871,0.023724943,-0.04871559,0.0,0.0,0.0
991.73315,448.52417,77956021,0.725,0.08510638,765.06384,-388.3729,-0.009889871,0.023724943,-0.04871559,0.0,0.0,0.0
998.97534,440.33618,77956038,0.71250004,0.06382979,606.17535,-568.9535,-0.009889871,0.023724943,-0.04871559,0.0,0.0,0.0
1003.57166,431.83008,77956055,0.7375,0.08510638,347.34082,-666.6266,-0.009889871,0.023724943,-0.04871559,0.0,0.0,0.0
1008.1974,418.5089,77956071,0.725,0.10638297,182.83316,-783.19763,-0.009889871,0.023724943,-0.04871559,0.0,0.0,0.0
1008.64954,408.45605,77956088,0.725,0.12765957,38.372307,-824.6629,-0.009889871,0.023724943,-0.04871559,0.0,0.0,0.0
1007.15466,401.48816,77956105,0.725,0.09574468,-133.07973,-659.5712,-0.009889871,0.023724943,-0.04871559,0.0,0.0,0.0
1003.52344,395.03333,77956121,0.75,0.08510638,-299.31332,-413.27063,-0.009889871,0.023724943,-0.04871559,0.0,0.0,0.0
997.1748,389.438,77956138,0.7375,0.07446808,-447.23566,-237.54636,-0.009889871,0.023724943,-0.04871559,0.0,0.0,0.0
989.8861,384.71533,77956155,0.7375,0.07446808,-563.09015,-168.14682,-0.009889871,0.023724943,-0.04871559,0.0,0.0,0.0
982.057,381.91272,77956172,0.7375,0.09574468,-586.82196,-173.38548,-0.009889871,0.023724943,-0.04871559,0.0,0.0,0.0
975.73914,381.93274,77956188,0.75,0.08510638,-529.5613,-35.91947,-0.009889871,0.023724943,-0.04871559,0.0,0.0,0.0
971.2068,383.87134,77956205,0.75,0.08510638,-394.26596,145.22258,-0.009889871,0.023724943,-0.04871559,0.0,0.0,0.0
966.4282,387.78625,77956222,0.7625,0.10638297,-263.1731,302.6598,-0.009889871,0.023724943,-0.04871559,0.0,0.0,0.0
962.32263,394.97937,77956238,0.7375,0.12765957,-199.52156,452.24527,-0.009889871,0.023724943,-0.04871559,0.0,0.0,0.0
961.3606,403.21924,77956255,0.725,0.10638297,-119.19677,590.1598,-0.009889871,0.023724943,-0.04871559,0.0,0.0,0.0
962.9105,411.24402,77956272,0.725,0.08510638,47.72353,654.1524,-0.009889871,0.023724943,-0.04871559,0.0,0.0,0.0
966.23267,419.37305,77956289,0.75,0.08510638,258.6406,629.1732,-0.009889871,0.023724943,-0.04871559,0.0,0.0,0.0
971.272,426.59143,77956305,0.71250004,0.08510638,400.78854,492.41345,-0.009889871,0.023724943,-0.04871559,0.0,0.0,0.0
980.97974,433.5409,77956322,0.725,0.08510638,565.2984,407.97842,-0.009889871,0.023724943,-0.04871559,0.0,0.0,0.0
995.5543,438.46265,77956339,0.7375,0.08510638,826.9773,341.51987,-0.009889871,0.023724943,-0.04871559,0.0,0.0,0.0
1010.7882,437.22388,77956355,0.7375,0.08510638,1098.4983,119.792076,-0.009889871,0.023724943,-0.04871559,0.0,0.0,0.0
1023.9042,430.93176,77956372,0.7375,0.08510638,1144.1702,-278.38083,-0.009889871,0.023724943,-0.04871559,0.0,0.0,0.0
1038.4296,421.74377,77956389,0.7375,0.08510638,993.57666,-702.05786,-0.007911891,-0.037020043,-0.006972313,0.0,0.0,0.0
1050.7987,412.49487,77956406,0.7375,0.12765957,831.76416,-864.1673,-0.007911891,-0.037020043,-0.006972313,0.0,0.0,0.0
1060.6664,403.2268,77956422,0.7375,0.10638297,652.51086,-820.4036,-0.007911891,-0.037020043,-0.006972313,0.0,0.0,0.0
1067.9779,393.11658,77956439,0.7375,0.08510638,486.91046,-706.851,-0.007911891,-0.037020043,-0.006972313,0.0,0.0,0.0
1073.57,381.47864,77956456,0.75,0.09574468,286.77325,-669.8778,-0.007911891,-0.037020043,-0.006972313,0.0,0.0,0.0
1078.0623,370.61218,77956472,0.75,0.09574468,154.62215,-711.96497,-0.007911891,-0.037020043,-0.006972313,0.0,0.0,0.0
1079.1266,365.01794,77956489,0.75,0.11702127,51.567585,-569.718,-0.007911891,-0.037020043,-0.006972313,0.0,0.0,0.0
1078.8268,361.85278,77956506,0.75,0.11702127,-86.98948,-261.89352,-0.007911891,-0.037020043,-0.006972313,0.0,0.0,0.0
1077.81,360.04565,77956523,0.75,0.11702127,-175.89632,17.423592,-0.007911891,-0.037020043,-0.006972313,0.0,0.0,0.0
1076.748,358.83167,77956539,0.7625,0.10638297,-206.2276,135.32823,-0.007911891,-0.037020043,-0.006972313,0.0,0.0,0.0
1075.302,358.83167,77956556,0.75,0.10638297,-146.91937,93.65915,-0.007911891,-0.037020043,-0.006972313,0.0,0.0,0.0
1074.1722,358.83167,77956573,0.7625,0.08510638,-109.22612,74.032555,-0.007911891,-0.037020043,-0.006972313,0.0,0.0,0.0
1072.171,364.01257,77956589,0.77500004,0.08510638,-106.61788,176.87885,-0.007911891,-0.037020043,-0.006972313,0.0,0.0,0.0
1072.6637,372.4707,77956606,0.75,0.09574468,-58.00085,456.78745,-0.007911891,-0.037020043,-0.006972313,0.0,0.0,0.0
1075.3677,382.5011,77956623,0.7375,0.11702127,77.801895,713.65375,-0.007911891,-0.037020043,-0.006972313,0.0,0.0,0.0
1079.0016,389.70728,77956640,0.725,0.12765957,240.3878,752.58417,-0.007911891,-0.037020043,-0.006972313,0.0,0.0,0.0
1087.447,400.08557,77956656,0.725,0.10638297,439.54196,665.1064,-0.007911891,-0.037020043,-0.006972313,0.0,0.0,0.0
1097.3167,411.15063,77956673,0.725,0.08510638,655.8359,633.5318,-0.007911891,-0.037020043,-0.006972313,0.0,0.0,0.0
1107.7188,421.32446,77956690,0.7,0.07446808,787.71844,666.3136,-0.007911891,-0.037020043,-0.006972313,0.0,0.0,0.0
1114.4376,428.22083,77956706,0.71250004,0.07446808,721.8762,645.0935,-0.007911891,-0.037020043,-0.006972313,0.0,0.0,0.0
1117.0491,432.46167,77956723,0.725,0.08510638,366.09183,351.84598,-0.007911891,-0.037020043,-0.006972313,0.0,0.0,0.0
1118.1139,438.00183,77956740,0.725,0.08510638,-9.644502,135.59914,-0.007911891,-0.037020043,-0.006972313,0.0,0.0,0.0
1114.3822,442.46057,77956756,0.7375,0.09574468,-275.9362,115.90625,-0.007911891,-0.037020043,-0.006972313,0.0,0.0,0.0
1101.6376,451.47827,77956773,0.725,0.12765957,-645.3148,309.0502,-0.007911891,-0.037020043,-0.006972313,0.0,0.0,0.0
1088.0011,459.02612,77956790,0.725,0.11702127,-1016.9062,512.86206,-0.007911891,-0.037020043,-0.006972313,0.0,0.0,0.0
1075.9962,464.62732,77956807,0.7375,0.08510638,-1141.5115,493.06924,-0.007911891,-0.037020043,-0.006972313,0.0,0.0,0.0
1067.2147,469.1908,77956823,0.71250004,0.08510638,-919.5808,373.818,-0.007911891,-0.037020043,-0.006972313,0.0,0.0,0.0
1061.7369,471.8473,77956840,0.16250001,0.08510638,-499.66177,181.72377,-0.007911891,-0.037020043,-0.006972313,0.0,0.0,0.0
1061.7369,471.8473,77956846,0.16250001,0.08510638,-499.66177,181.72377,-0.007911891,-0.037020043,-0.006972313,0.0,0.0,0.0
