x,y,timestamp,pressure,fingerarea,velocityx,velocityy,accelx,accely,accelz,gyrox,gyroy,gyroz
197.4136,304.63293,127063114,0.625,0.12765957,0.0,0.0,0.02072516,-0.0303161,0.04322529,0.0,0.0,0.0
197.4136,304.63293,127063135,0.6375,0.12765957,-0.036358472,-0.05261823,0.02072516,-0.0303161,0.04322529,0.0,0.0,0.0
197.4136,304.63293,127063152,0.725,0.10638297,0.004253127,0.0062622824,0.02072516,-0.0303161,0.04322529,0.0,0.0,0.0
197.4136,304.63293,127063169,0.8,0.12765957,0.013257951,0.02019291,0.02072516,-0.0303161,0.04322529,0.0,0.0,0.0
197.4136,304.63293,127063185,0.83750004,0.12765957,0.011858487,0.018096417,0.02072516,-0.0303161,0.04322529,0.0,0.0,0.0
197.4136,304.63293,127063198,0.9125,0.10638297,-0.0062089665,-0.009128794,0.02072516,-0.0303161,0.04322529,0.0,0.0,0.0
197.4136,304.63293,127063219,0.925,0.08510638,0.0021890001,0.0025815985,0.02072516,-0.0303161,0.04322529,0.0,0.0,0.0
189.59796,332.7959,127063236,0.9125,0.10638297,-238.9999,843.6726,0.02072516,-0.0303161,0.04322529,0.0,0.0,0.0
187.2777,352.0266,127063252,0.9375,0.10638297,-331.40485,1490.8693,0.02072516,-0.0303161,0.04322529,0.0,0.0,0.0
185.37207,374.5017,127063269,0.95,0.08510638,-276.49774,1846.8761,0.02072516,-0.0303161,0.04322529,0.0,0.0,0.0
182.47527,392.4839,127063286,0.9125,0.10638297,-160.98108,1600.476,0.02072516,-0.0303161,0.04322529,0.0,0.0,0.0
181.39069,412.02246,127063302,0.9375,0.08510638,-30.913292,1112.1373,0.02072516,-0.0303161,0.04322529,0.0,0.0,0.0
179.11845,434.7273,127063319,0.925,0.08510638,-103.47868,1268.5444,0.02072516,-0.0303161,0.04322529,0.0,0.0,0.0
177.57776,451.98767,127063336,0.8875,0.10638297,-93.65003,1176.2161,0.02072516,-0.0303161,0.04322529,0.0,0.0,0.0
176.42043,467.1079,127063353,0.925,0.08510638,-70.81535,1034.3928,0.02072516,-0.0303161,0.04322529,0.0,0.0,0.0
176.81828,480.3573,127063369,0.875,0.06382979,-26.802845,804.8016,0.02072516,-0.0303161,0.04322529,0.0,0.0,0.0
176.92027,486.65454,127063386,0.7375,0.07446808,42.51661,451.94122,0.02072516,-0.0303161,0.04322529,0.0,0.0,0.0
176.92027,486.77612,127063386,0.425,0.09574468,42.543617,421.97665,0.02072516,-0.0303161,0.04322529,0.0,0.0,0.0
176.92027,486.77612,127063394,0.425,0.09574468,42.543617,421.97665,0.02072516,-0.0303161,0.04322529,0.0,0.0,0.0
188.91635,318.849,127063547,0.8,0.06382979,0.0,0.0,5.80132E-4,0.01574713,0.018580437,0.0,0.0,0.0
188.91635,318.849,127063570,0.8625,0.08510638,-0.0018127912,-0.0046190857,5.80132E-4,0.01574713,0.018580437,0.0,0.0,0.0
190.77109,294.99915,127063586,0.9125,0.12765957,149.39372,-2002.9222,5.80132E-4,0.01574713,0.018580437,0.0,0.0,0.0
193.7442,283.8141,127063603,0.925,0.08510638,221.94019,-1396.3451,5.80132E-4,0.01574713,0.018580437,0.0,0.0,0.0
195.93509,277.052,127063620,0.96250004,0.09574468,214.06128,-789.30566,5.80132E-4,0.01574713,0.018580437,0.0,0.0,0.0
198.57336,273.3457,127063637,0.9375,0.09574468,204.58409,-388.83188,5.80132E-4,0.01574713,0.018580437,0.0,0.0,0.0
204.35858,274.58276,127063653,0.95,0.09574468,273.56342,269.5885,5.80132E-4,0.01574713,0.018580437,0.0,0.0,0.0
212.30365,284.4613,127063670,0.975,0.12765957,408.8385,632.0235,5.80132E-4,0.01574713,0.018580437,0.0,0.0,0.0
224.20874,311.04395,127063687,0.9375,0.08510638,666.4249,1287.4492,5.80132E-4,0.01574713,0.018580437,0.0,0.0,0.0
231.87024,334.4984,127063703,0.95,0.10638297,753.1961,1938.7944,5.80132E-4,0.01574713,0.018580437,0.0,0.0,0.0
239.65842,353.51758,127063720,0.8875,0.09574468,604.7009,1974.1696,5.80132E-4,0.01574713,0.018580437,0.0,0.0,0.0
246.56015,368.0056,127063737,0.875,0.08510638,453.74408,1395.4052,5.80132E-4,0.01574713,0.018580437,0.0,0.0,0.0
254.73105,377.78882,127063754,0.8625,0.09574468,347.86847,595.01056,5.80132E-4,0.01574713,0.018580437,0.0,0.0,0.0
265.6356,383.48657,127063770,0.85,0.08510638,510.64377,182.46179,5.80132E-4,0.01574713,0.018580437,0.0,0.0,0.0
279.329,379.89392,127063787,0.8625,0.06382979,757.4164,-165.82544,5.80132E-4,0.01574713,0.018580437,0.0,0.0,0.0
293.21872,366.66553,127063804,0.8875,0.08510638,934.98773,-755.14844,5.80132E-4,0.01574713,0.018580437,0.0,0.0,0.0
308.1044,340.7124,127063820,0.825,0.10638297,1005.62933,-1467.0823,5.80132E-4,0.01574713,0.018580437,0.0,0.0,0.0
319.65842,309.00867,127063837,0.8125,0.12765957,888.61774,-2313.6074,5.80132E-4,0.01574713,0.018580437,0.0,0.0,0.0
327.84637,284.5266,127063854,0.8625,0.08510638,660.90173,-2404.1147,5.80132E-4,0.01574713,0.018580437,0.0,0.0,0.0
332.18793,267.58496,127063870,0.9375,0.08510638,333.83255,-1844.8798,5.80132E-4,0.01574713,0.018580437,0.0,0.0,0.0
334.86884,260.84753,127063887,0.95,0.09574468,52.287228,-850.1055,5.80132E-4,0.01574713,0.018580437,0.0,0.0,0.0
334.86884,258.98962,127063904,0.90000004,0.09574468,-154.99826,89.78193,5.80132E-4,0.01574713,0.018580437,0.0,0.0,0.0
334.86884,257.54236,127063921,0.96250004,0.09574468,-171.14284,432.37366,5.80132E-4,0.01574713,0.018580437,0.0,0.0,0.0
334.36902,260.30847,127063937,0.9375,0.08510638,-152.43639,429.12308,5.80132E-4,0.01574713,0.018580437,0.0,0.0,0.0
329.65912,275.36304,127063954,0.9125,0.10638297,-213.0519,688.96356,5.80132E-4,0.01574713,0.018580437,0.0,0.0,0.0
322.78613,299.5586,127063971,0.925,0.12765957,-372.87308,1350.0447,5.80132E-4,0.01574713,0.018580437,0.0,0.0,0.0
315.7277,328.25793,127063987,0.975,0.09574468,-557.166,2081.945,5.80132E-4,0.01574713,0.018580437,0.0,0.0,0.0
310.20135,355.03662,127064004,0.9375,0.11702127,-573.29834,2313.7263,5.80132E-4,0.01574713,0.018580437,0.0,0.0,0.0
305.99857,382.78333,127064021,0.8875,0.08510638,-404.8366,2107.6238,5.80132E-4,0.01574713,0.018580437,0.0,0.0,0.0
302.8678,405.08276,127064038,0.9125,0.08510638,-182.01161,1624.5719,4.6409667E-4,-0.019402295,-0.065135956,0.0,0.0,0.0
298.21375,432.80225,127064054,0.8875,0.08510638,-148.80685,1466.8938,4.6409667E-4,-0.019402295,-0.065135956,0.0,0.0,0.0
295.7252,454.81946,127064071,0.8625,0.09574468,-155.93979,1376.6514,4.6409667E-4,-0.019402295,-0.065135956,0.0,0.0,0.0
295.3817,481.15356,127064088,0.83750004,0.06382979,-92.13814,1418.0974,4.6409667E-4,-0.019402295,-0.065135956,0.0,0.0,0.0
297.71127,493.08557,127064104,0.83750004,0.10638297,79.180855,1154.7722,4.6409667E-4,-0.019402295,-0.065135956,0.0,0.0,0.0
300.78326,498.68506,127064121,0.6875,0.12765957,263.1246,591.39166,4.6409667E-4,-0.019402295,-0.065135956,0.0,0.0,0.0
301.37976,499.2152,127064126,0.38750002,0.12765957,309.5549,341.59714,4.6409667E-4,-0.019402295,-0.065135956,0.0,0.0,0.0
301.37976,499.2152,127064133,0.38750002,0.12765957,309.5549,341.59714,4.6409667E-4,-0.019402295,-0.065135956,0.0,0.0,0.0
358.86102,397.92578,127064264,0.9125,0.12765957,0.0,0.0,4.6409667E-4,-0.019402295,-0.065135956,0.0,0.0,0.0
358.86102,397.92578,127064288,0.95,0.12765957,0.013836773,0.013790899,4.6409667E-4,-0.019402295,-0.065135956,0.0,0.0,0.0
358.86102,397.92578,127064305,0.9125,0.12765957,-0.007982702,-0.00817446,4.6409667E-4,-0.019402295,-0.065135956,0.0,0.0,0.0
358.86102,397.92578,127064322,0.95,0.12765957,0.021002594,0.021020632,4.6409667E-4,-0.019402295,-0.065135956,0.0,0.0,0.0
358.86102,397.92578,127064338,0.95,0.11702127,-0.008285758,-0.008745846,4.6409667E-4,-0.019402295,-0.065135956,0.0,0.0,0.0
373.09235,415.23572,127064355,0.9125,0.08510638,413.33655,505.92303,4.6409667E-4,-0.019402295,-0.065135956,0.0,0.0,0.0
385.62344,424.35034,127064372,0.875,0.08510638,896.58527,944.3361,4.6409667E-4,-0.019402295,-0.065135956,0.0,0.0,0.0
398.24445,425.83704,127064388,0.8875,0.08510638,1144.7437,764.934,4.6409667E-4,-0.019402295,-0.065135956,0.0,0.0,0.0
408.52457,421.18115,127064405,0.9125,0.08510638,1030.2865,124.48261,4.6409667E-4,-0.019402295,-0.065135956,0.0,0.0,0.0
416.13367,413.87,127064422,0.875,0.12765957,616.77704,-654.93335,4.6409667E-4,-0.019402295,-0.065135956,0.0,0.0,0.0
420.39224,403.56445,127064439,0.8625,0.11702127,229.09155,-976.14215,4.6409667E-4,-0.019402295,-0.065135956,0.0,0.0,0.0
422.82642,393.60583,127064455,0.875,0.09574468,67.31396,-932.63446,4.6409667E-4,-0.019402295,-0.065135956,0.0,0.0,0.0
420.79083,387.1305,127064472,0.90000004,0.08510638,-155.8192,-703.0362,4.6409667E-4,-0.019402295,-0.065135956,0.0,0.0,0.0
414.74466,383.4735,127064489,0.925,0.08510638,-369.92438,-400.2149,4.6409667E-4,-0.019402295,-0.065135956,0.0,0.0,0.0
397.79846,382.8213,127064505,0.8875,0.08510638,-843.38043,-73.611084,4.6409667E-4,-0.019402295,-0.065135956,0.0,0.0,0.0
382.1696,389.12244,127064522,0.9375,0.11702127,-1245.8539,327.8967,4.6409667E-4,-0.019402295,-0.065135956,0.0,0.0,0.0
369.03793,396.2744,127064539,0.925,0.12765957,-1320.5865,585.6791,4.6409667E-4,-0.019402295,-0.065135956,0.0,0.0,0.0
358.08917,406.11353,127064555,0.925,0.09574468,-985.68146,788.2685,4.6409667E-4,-0.019402295,-0.065135956,0.0,0.0,0.0
349.2487,420.8905,127064572,0.9125,0.08510638,-526.60944,906.5186,4.6409667E-4,-0.019402295,-0.065135956,0.0,0.0,0.0
344.58072,438.4054,127064589,0.9375,0.09574468,-258.25995,1144.4308,-0.031628728,-0.015521824,-0.09210873,0.0,0.0,0.0
346.4019,451.98096,127064606,0.9125,0.12765957,57.040733,1173.2883,-0.031628728,-0.015521824,-0.09210873,0.0,0.0,0.0
351.24023,460.79053,127064622,0.90000004,0.08510638,394.53534,888.83966,-0.031628728,-0.015521824,-0.09210873,0.0,0.0,0.0
360.70602,473.85803,127064639,0.875,0.09574468,698.0095,595.32874,-0.031628728,-0.015521824,-0.09210873,0.0,0.0,0.0
376.84744,488.15833,127064656,0.8625,0.08510638,1048.8367,586.6319,-0.031628728,-0.015521824,-0.09210873,0.0,0.0,0.0
395.0244,493.91687,127064673,0.8,0.08510638,1283.7396,613.3196,-0.031628728,-0.015521824,-0.09210873,0.0,0.0,0.0
405.15546,493.88416,127064689,0.425,0.09574468,1201.4598,254.02173,-0.031628728,-0.015521824,-0.09210873,0.0,0.0,0.0
405.15546,493.88416,127064696,0.425,0.09574468,1201.4598,254.02173,-0.031628728,-0.015521824,-0.09210873,0.0,0.0,0.0
445.3329,254.87683,127064857,0.90000004,0.09574468,0.0,0.0,-0.031628728,-0.015521824,-0.09210873,0.0,0.0,0.0
445.3329,254.87683,127064890,1.0,0.10638297,-0.045710586,-0.02666776,-0.031628728,-0.015521824,-0.09210873,0.0,0.0,0.0
445.3329,254.87683,127064907,0.975,0.10638297,0.017907418,0.010355766,-0.031628728,-0.015521824,-0.09210873,0.0,0.0,0.0
435.53745,281.50732,127064923,0.90000004,0.12765957,-446.33997,1213.427,-0.031628728,-0.015521824,-0.09210873,0.0,0.0,0.0
435.09933,309.49597,127064940,0.83750004,0.08510638,-428.44977,2067.7878,-0.031628728,-0.015521824,-0.09210873,0.0,0.0,0.0
436.33582,333.06506,127064954,0.38750002,0.12765957,-281.81976,2420.6035,-0.031628728,-0.015521824,-0.09210873,0.0,0.0,0.0
436.33582,333.06506,127064961,0.38750002,0.12765957,-281.81976,2420.6035,-0.031628728,-0.015521824,-0.09210873,0.0,0.0,0.0
423.34006,486.77612,127065115,0.75,0.08510638,0.0,0.0,-0.031628728,-0.015521824,-0.09210873,0.0,0.0,0.0
423.34006,486.77612,127065141,0.8625,0.08510638,-0.033495765,-0.035288963,-0.031628728,-0.015521824,-0.09210873,0.0,0.0,0.0
423.34006,486.77612,127065157,0.85,0.09574468,0.026468448,0.029152898,0.022697017,-0.012417465,0.046313286,0.0,0.0,0.0
423.34006,486.77612,127065174,0.8875,0.09574468,0.021800503,0.024035547,0.022697017,-0.012417465,0.046313286,0.0,0.0,0.0
423.34006,486.77612,127065191,0.8625,0.08510638,-7.8363717E-4,-3.3523512E-4,0.022697017,-0.012417465,0.046313286,0.0,0.0,0.0
447.8401,463.8275,127065207,0.875,0.10638297,707.28894,-654.9485,0.022697017,-0.012417465,0.046313286,0.0,0.0,0.0
461.49567,441.6173,127065224,0.8875,0.08510638,1301.8414,-1423.923,0.022697017,-0.012417465,0.046313286,0.0,0.0,0.0
472.98108,415.32336,127065241,0.83750004,0.12765957,1404.7009,-2101.0168,0.022697017,-0.012417465,0.046313286,0.0,0.0,0.0
478.82983,397.22803,127065257,0.8875,0.09574468,884.14185,-1980.6981,0.022697017,-0.012417465,0.046313286,0.0,0.0,0.0
481.07135,385.33838,127065274,0.925,0.09574468,100.4538,-1204.3923,0.022697017,-0.012417465,0.046313286,0.0,0.0,0.0
481.76715,377.77734,127065291,0.925,0.09574468,-293.73114,-422.1807,0.022697017,-0.012417465,0.046313286,0.0,0.0,0.0
481.32117,373.02075,127065308,0.95,0.09574468,-251.28767,-1.3794967,0.022697017,-0.012417465,0.046313286,0.0,0.0,0.0
480.77484,371.1881,127065324,0.95,0.09574468,-199.11992,132.53534,0.022697017,-0.012417465,0.046313286,0.0,0.0,0.0
480.23865,370.3822,127065341,0.9375,0.09574468,-123.875305,167.25812,0.022697017,-0.012417465,0.046313286,0.0,0.0,0.0
479.32184,371.9297,127065358,0.9125,0.09574468,-91.80229,194.82692,0.022697017,-0.012417465,0.046313286,0.0,0.0,0.0
480.66132,381.0796,127065374,0.95,0.11702127,-18.36879,414.62405,0.022697017,-0.012417465,0.046313286,0.0,0.0,0.0
486.87378,396.6106,127065391,0.875,0.12765957,181.37837,834.0383,0.022697017,-0.012417465,0.046313286,0.0,0.0,0.0
497.0052,412.50684,127065408,0.8625,0.08510638,555.3069,1258.1837,0.022697017,-0.012417465,0.046313286,0.0,0.0,0.0
514.7915,432.1776,127065425,0.825,0.08510638,1045.7133,1458.921,0.022697017,-0.012417465,0.046313286,0.0,0.0,0.0
527.54144,444.912,127065441,0.825,0.12765957,1237.2393,1239.4834,0.022697017,-0.012417465,0.046313286,0.0,0.0,0.0
537.7078,456.2395,127065458,0.85,0.10638297,1025.9946,839.4802,0.022697017,-0.012417465,0.046313286,0.0,0.0,0.0
544.416,464.05103,127065475,0.83750004,0.08510638,596.9318,481.33078,0.022697017,-0.012417465,0.046313286,0.0,0.0,0.0
548.6195,473.02283,127065491,0.8625,0.08510638,181.15163,299.49286,0.022697017,-0.012417465,0.046313286,0.0,0.0,0.0
547.344,477.81238,127065508,0.8625,0.08510638,-110.53992,236.03815,0.022697017,-0.012417465,0.046313286,0.0,0.0,0.0
544.7399,480.62842,127065525,0.875,0.09574468,-304.81625,139.83347,0.022697017,-0.012417465,0.046313286,0.0,0.0,0.0
538.09406,484.21655,127065542,0.8625,0.09574468,-505.90445,75.36046,0.022697017,-0.012417465,0.046313286,0.0,0.0,0.0
527.0982,488.02246,127065558,0.8125,0.08510638,-715.5605,87.78034,0.022697017,-0.012417465,0.046313286,0.0,0.0,0.0
519.3088,488.5531,127065573,0.2375,0.06382979,-838.26544,63.094627,0.022697017,-0.012417465,0.046313286,0.0,0.0,0.0
519.3088,488.5531,127065580,0.2375,0.06382979,-838.26544,63.094627,0.022697017,-0.012417465,0.046313286,0.0,0.0,0.0
551.7982,404.1454,127065709,0.825,0.12765957,0.0,0.0,0.022697017,-0.012417465,0.046313286,0.0,0.0,0.0
551.7982,404.1454,127065742,0.8875,0.08510638,-0.015797699,-0.009905045,-0.029842392,-0.009933978,0.021050453,0.0,0.0,0.0
551.7982,404.1454,127065759,0.9375,0.08510638,7.816046E-4,0.0024403783,-0.029842392,-0.009933978,0.021050453,0.0,0.0,0.0
554.1124,387.21936,127065775,0.925,0.08510638,100.64006,-765.1083,-0.029842392,-0.009933978,0.021050453,0.0,0.0,0.0
556.9395,380.53613,127065792,0.90000004,0.08510638,197.09383,-924.75696,-0.029842392,-0.009933978,0.021050453,0.0,0.0,0.0
561.9324,375.92798,127065809,0.90000004,0.08510638,279.55902,-758.95306,-0.029842392,-0.009933978,0.021050453,0.0,0.0,0.0
568.88983,372.6422,127065826,0.9375,0.08510638,431.432,-472.14297,-0.029842392,-0.009933978,0.021050453,0.0,0.0,0.0
576.67065,372.6366,127065842,0.8625,0.09574468,544.5438,184.25568,-0.029842392,-0.009933978,0.021050453,0.0,0.0,0.0
584.2667,377.02734,127065859,0.8625,0.09574468,572.3256,354.71503,-0.029842392,-0.009933978,0.021050453,0.0,0.0,0.0
595.1182,385.9182,127065876,0.8875,0.10638297,627.3618,535.7658,-0.029842392,-0.009933978,0.021050453,0.0,0.0,0.0
602.7212,394.26428,127065892,0.85,0.10638297,609.57745,764.42883,-0.029842392,-0.009933978,0.021050453,0.0,0.0,0.0
609.4184,410.69812,127065909,0.8875,0.09574468,522.19305,971.4626,-0.029842392,-0.009933978,0.021050453,0.0,0.0,0.0
612.27856,432.00513,127065926,0.875,0.08510638,309.26645,1288.768,-0.029842392,-0.009933978,0.021050453,0.0,0.0,0.0
607.35016,449.2516,127065943,0.875,0.10638297,-112.83101,1426.536,-0.029842392,-0.009933978,0.021050453,0.0,0.0,0.0
599.47174,466.24146,127065959,0.825,0.09574468,-575.75757,1310.44,-0.029842392,-0.009933978,0.021050453,0.0,0.0,0.0
592.3618,476.71582,127065976,0.83750004,0.08510638,-768.2025,951.4726,-0.029842392,-0.009933978,0.021050453,0.0,0.0,0.0
582.146,486.01416,127065993,0.85,0.08510638,-819.6761,517.1989,-0.029842392,-0.009933978,0.021050453,0.0,0.0,0.0
567.10297,491.01318,127066009,0.8625,0.08510638,-862.79736,229.67941,-0.029842392,-0.009933978,0.021050453,0.0,0.0,0.0
560.4875,489.08276,127066026,0.8625,0.07446808,-771.3515,-99.1554,-0.029842392,-0.009933978,0.021050453,0.0,0.0,0.0
558.3139,486.80786,127066043,0.875,0.08510638,-437.59567,-354.86163,-0.029842392,-0.009933978,0.021050453,0.0,0.0,0.0
558.3559,482.22742,127066060,0.85,0.08510638,12.123528,-482.98965,-0.029842392,-0.009933978,0.021050453,0.0,0.0,0.0
566.4591,476.50195,127066076,0.875,0.08510638,497.09134,-519.7552,-0.029842392,-0.009933978,0.021050453,0.0,0.0,0.0
583.26105,474.33704,127066093,0.8625,0.09574468,973.19385,-385.3186,-0.029842392,-0.009933978,0.021050453,0.0,0.0,0.0
608.2551,478.24,127066110,0.83750004,0.08510638,1608.5402,-66.657524,-0.029842392,-0.009933978,0.021050453,0.0,0.0,0.0
631.89716,487.0829,127066126,0.825,0.07446808,1985.0194,425.28137,-0.029842392,-0.009933978,0.021050453,0.0,0.0,0.0
650.77576,493.70996,127066143,0.8125,0.08510638,1813.6969,742.0676,-0.029842392,-0.009933978,0.021050453,0.0,0.0,0.0
667.4369,499.26343,127066160,0.8125,0.09574468,1282.7792,680.7224,-0.029842392,-0.009933978,0.021050453,0.0,0.0,0.0
678.23334,501.98657,127066176,0.77500004,0.10638297,745.53204,372.0696,-0.029842392,-0.009933978,0.021050453,0.0,0.0,0.0
684.145,502.76917,127066193,0.65000004,0.11702127,317.05527,64.23333,-0.029842392,-0.009933978,0.021050453,0.0,0.0,0.0
685.25476,502.76917,127066200,0.3625,0.10638297,179.29941,-33.22356,-0.029842392,-0.009933978,0.021050453,0.0,0.0,0.0
685.25476,502.76917,127066207,0.3625,0.10638297,179.29941,-33.22356,-0.029842392,-0.009933978,0.021050453,0.0,0.0,0.0
574.2909,438.797,127066320,0.83750004,0.08510638,0.0,0.0,-0.02387391,-0.007947177,-0.015159607,0.0,0.0,0.0
574.2909,438.797,127066344,0.85,0.08510638,-0.05222207,-0.034935065,-0.02387391,-0.007947177,-0.015159607,0.0,0.0,0.0
574.2909,438.797,127066357,0.8875,0.09574468,0.009922767,0.009421804,-0.02387391,-0.007947177,-0.015159607,0.0,0.0,0.0
601.235,424.37976,127066377,0.875,0.08510638,1451.0039,-780.6873,-0.02387391,-0.007947177,-0.015159607,0.0,0.0,0.0
623.0139,420.9496,127066394,0.83750004,0.08510638,1768.3693,-597.11456,-0.02387391,-0.007947177,-0.015159607,0.0,0.0,0.0
647.5088,420.13843,127066410,0.71250004,0.08510638,1869.8746,-321.6052,-0.02387391,-0.007947177,-0.015159607,0.0,0.0,0.0
648.26685,420.13843,127066418,0.38750002,0.10638297,1771.2013,-237.57623,-0.02387391,-0.007947177,-0.015159607,0.0,0.0,0.0
648.26685,420.13843,127066424,0.38750002,0.10638297,1771.2013,-237.57623,-0.02387391,-0.007947177,-0.015159607,0.0,0.0,0.0
757.7312,409.47632,127066635,0.75,0.12765957,0.0,0.0,-0.02387391,-0.007947177,-0.015159607,0.0,0.0,0.0
757.7312,409.47632,127066661,0.825,0.12765957,0.0108454935,0.0070992336,-0.02387391,-0.007947177,-0.015159607,0.0,0.0,0.0
757.7312,409.47632,127066678,0.83750004,0.12765957,-0.037823066,-0.019465579,-0.02387391,-0.007947177,-0.015159607,0.0,0.0,0.0
757.7312,409.47632,127066694,0.83750004,0.11702127,-0.06783948,-0.038239352,-0.02387391,-0.007947177,-0.015159607,0.0,0.0,0.0
757.7312,409.47632,127066711,0.8125,0.10638297,-0.03444763,-0.015471948,-0.02387391,-0.007947177,-0.015159607,0.0,0.0,0.0
731.24725,403.25684,127066728,0.83750004,0.10638297,-756.8171,-197.36684,-0.02387391,-0.007947177,-0.015159607,0.0,0.0,0.0
709.5624,405.53052,127066745,0.83750004,0.12765957,-1638.2272,-189.1476,-0.02387391,-0.007947177,-0.015159607,0.0,0.0,0.0
696.9804,409.04053,127066761,0.85,0.10638297,-1732.2515,46.173443,-0.02387391,-0.007947177,-0.015159607,0.0,0.0,0.0
684.9789,414.67468,127066778,0.85,0.08510638,-1302.5463,353.60208,-0.02387391,-0.007947177,-0.015159607,0.0,0.0,0.0
677.22845,421.9497,127066795,0.875,0.08510638,-485.5457,572.9485,-0.02387391,-0.007947177,-0.015159607,0.0,0.0,0.0
672.1118,439.49487,127066812,0.8625,0.09574468,-46.341713,905.6138,-0.02387391,-0.007947177,-0.015159607,0.0,0.0,0.0
674.13586,453.46582,127066828,0.8125,0.09574468,116.64781,1072.916,-0.019099124,-0.014357761,0.0038728714,0.0,0.0,0.0
680.08356,463.96228,127066845,0.7875,0.08510638,425.10828,1048.0172,-0.019099124,-0.014357761,0.0038728714,0.0,0.0,0.0
696.0107,475.6206,127066862,0.8,0.08510638,903.021,833.40094,-0.019099124,-0.014357761,0.0038728714,0.0,0.0,0.0
720.99176,474.07104,127066878,0.8,0.08510638,1543.708,313.1771,-0.019099124,-0.014357761,0.0038728714,0.0,0.0,0.0
738.19855,464.59326,127066895,0.7875,0.12765957,1747.0745,-434.69925,-0.019099124,-0.014357761,0.0038728714,0.0,0.0,0.0
752.77997,452.00146,127066912,0.83750004,0.09574468,1438.5997,-1055.468,-0.019099124,-0.014357761,0.0038728714,0.0,0.0,0.0
763.4,437.30994,127066929,0.8125,0.08510638,827.34344,-1374.5415,-0.019099124,-0.014357761,0.0038728714,0.0,0.0,0.0
769.716,427.26648,127066945,0.8625,0.09574468,276.51974,-1181.4817,-0.019099124,-0.014357761,0.0038728714,0.0,0.0,0.0
773.86707,420.6167,127066962,0.85,0.09574468,48.837227,-683.99744,-0.019099124,-0.014357761,0.0038728714,0.0,0.0,0.0
775.6003,417.58398,127066979,0.875,0.09574468,-80.2944,-235.49689,-0.019099124,-0.014357761,0.0038728714,0.0,0.0,0.0
776.22516,416.58435,127066995,0.85,0.09574468,-143.34752,82.50761,-0.019099124,-0.014357761,0.0038728714,0.0,0.0,0.0
777.25195,423.09314,127067012,0.8625,0.08510638,-101.09692,366.01608,-0.019099124,-0.014357761,0.0038728714,0.0,0.0,0.0
779.9282,438.87646,127067029,0.85,0.09574468,4.2769713,847.94653,-0.019099124,-0.014357761,0.0038728714,0.0,0.0,0.0
781.4494,456.7976,127067045,0.8125,0.09574468,85.159584,1307.5361,-0.019099124,-0.014357761,0.0038728714,0.0,0.0,0.0
785.48645,472.61084,127067062,0.725,0.06382979,190.1585,1452.4896,-0.019099124,-0.014357761,0.0038728714,0.0,0.0,0.0
789.5842,477.10754,127067079,0.425,0.07446808,258.56445,1039.2454,-0.019099124,-0.014357761,0.0038728714,0.0,0.0,0.0
792.7198,478.77966,127067084,0.2375,0.09574468,307.8071,798.7866,-0.019099124,-0.014357761,0.0038728714,0.0,0.0,0.0
792.7198,478.77966,127067091,0.2375,0.09574468,307.8071,798.7866,-0.019099124,-0.014357761,0.0038728714,0.0,0.0,0.0
711.74615,261.0963,127067301,0.7875,0.08510638,0.0,0.0,-0.019099124,-0.014357761,0.0038728714,0.0,0.0,0.0
711.74615,261.0963,127067330,0.90000004,0.10638297,0.044543497,0.014294514,-0.019099124,-0.014357761,0.0038728714,0.0,0.0,0.0
711.74615,270.0985,127067346,0.90000004,0.08510638,0.01313572,502.30807,-0.019099124,-0.014357761,0.0038728714,0.0,0.0,0.0
713.45844,288.75378,127067363,0.90000004,0.12765957,78.51713,1330.2241,-0.019099124,-0.014357761,0.0038728714,0.0,0.0,0.0
717.34503,309.4348,127067380,0.85,0.08510638,202.82788,1629.4937,-0.019099124,-0.014357761,0.0038728714,0.0,0.0,0.0
719.1815,324.73694,127067396,0.75,0.08510638,238.54778,1662.5378,7.207021E-4,0.02851379,0.0030984879,0.0,0.0,0.0
719.2437,325.0686,127067397,0.275,0.10638297,228.56076,1576.1973,7.207021E-4,0.02851379,0.0030984879,0.0,0.0,0.0
719.2437,325.0686,127067405,0.275,0.10638297,228.56076,1576.1973,7.207021E-4,0.02851379,0.0030984879,0.0,0.0,0.0
812.71326,475.2256,127067809,0.6875,0.09574468,0.0,0.0,7.207021E-4,0.02851379,0.0030984879,0.0,0.0,0.0
812.71326,475.2256,127067831,0.75,0.09574468,-0.16462743,-0.093580075,7.207021E-4,0.02851379,0.0030984879,0.0,0.0,0.0
812.71326,475.2256,127067848,0.7875,0.09574468,-0.07818401,-0.046743285,7.207021E-4,0.02851379,0.0030984879,0.0,0.0,0.0
812.71326,475.2256,127067864,0.8,0.09574468,0.014944261,0.0060473955,7.207021E-4,0.02851379,0.0030984879,0.0,0.0,0.0
812.71326,475.2256,127067877,0.8125,0.08510638,-0.014369526,-0.00851724,7.207021E-4,0.02851379,0.0030984879,0.0,0.0,0.0
812.71326,475.2256,127067898,0.825,0.08510638,-0.028426502,-0.015032481,5.765632E-4,0.022811025,0.0024785995,0.0,0.0,0.0
812.71326,475.2256,127067914,0.8125,0.10638297,-0.005863699,-0.002859651,5.765632E-4,0.022811025,0.0024785995,0.0,0.0,0.0
834.4672,458.33105,127067931,0.83750004,0.10638297,774.9717,-587.8891,5.765632E-4,0.022811025,0.0024785995,0.0,0.0,0.0
841.01935,447.1338,127067948,0.825,0.08510638,932.46704,-879.32214,5.765632E-4,0.022811025,0.0024785995,0.0,0.0,0.0
845.8979,429.45227,127067965,0.83750004,0.08510638,793.4801,-1205.0587,5.765632E-4,0.022811025,0.0024785995,0.0,0.0,0.0
845.9697,415.46643,127067981,0.8125,0.12765957,125.546295,-1182.2778,5.765632E-4,0.022811025,0.0024785995,0.0,0.0,0.0
845.4186,404.2871,127067998,0.8125,0.10638297,-339.3716,-889.0505,5.765632E-4,0.022811025,0.0024785995,0.0,0.0,0.0
846.02344,395.64417,127068015,0.825,0.08510638,-190.36575,-670.48285,5.765632E-4,0.022811025,0.0024785995,0.0,0.0,0.0
847.5651,388.8817,127068031,0.83750004,0.08510638,-86.60703,-317.01712,5.765632E-4,0.022811025,0.0024785995,0.0,0.0,0.0
848.57495,384.38513,127068048,0.83750004,0.08510638,73.237564,-159.51892,5.765632E-4,0.022811025,0.0024785995,0.0,0.0,0.0
850.0772,381.15442,127068065,0.825,0.08510638,123.551025,-97.262405,5.765632E-4,0.022811025,0.0024785995,0.0,0.0,0.0
852.15955,379.3036,127068082,0.825,0.09574468,127.360054,-27.292374,5.765632E-4,0.022811025,0.0024785995,0.0,0.0,0.0
853.7418,378.37878,127068098,0.825,0.09574468,116.44913,18.693964,5.765632E-4,0.022811025,0.0024785995,0.0,0.0,0.0
854.19977,378.37878,127068115,0.8125,0.08510638,87.71807,60.295345,5.765632E-4,0.022811025,0.0024785995,0.0,0.0,0.0
854.69965,383.333,127068132,0.85,0.11702127,36.871475,211.27663,5.765632E-4,0.022811025,0.0024785995,0.0,0.0,0.0
852.29126,390.01013,127068148,0.85,0.12765957,-82.67346,408.57935,5.765632E-4,0.022811025,0.0024785995,0.0,0.0,0.0
848.8519,399.479,127068165,0.825,0.10638297,-214.17126,630.4271,5.765632E-4,0.022811025,0.0024785995,0.0,0.0,0.0
846.767,410.0193,127068182,0.83750004,0.08510638,-260.02426,781.4079,5.765632E-4,0.022811025,0.0024785995,0.0,0.0,0.0
846.9575,421.53784,127068198,0.85,0.08510638,-154.13353,815.22375,5.765632E-4,0.022811025,0.0024785995,0.0,0.0,0.0
849.3483,431.44055,127068215,0.83750004,0.08510638,72.547485,780.6368,5.765632E-4,0.022811025,0.0024785995,0.0,0.0,0.0
855.734,439.72668,127068232,0.85,0.11702127,339.5078,601.7237,5.765632E-4,0.022811025,0.0024785995,0.0,0.0,0.0
874.027,452.54773,127068249,0.8125,0.12765957,825.96576,589.62854,5.765632E-4,0.022811025,0.0024785995,0.0,0.0,0.0
893.55475,459.6631,127068265,0.825,0.12765957,1369.1536,563.18317,5.765632E-4,0.022811025,0.0024785995,0.0,0.0,0.0
907.0983,462.69995,127068282,0.7875,0.11702127,1480.1605,372.5023,5.765632E-4,0.022811025,0.0024785995,0.0,0.0,0.0
917.1105,464.55005,127068299,0.8125,0.11702127,1110.4418,102.00749,5.765632E-4,0.022811025,0.0024785995,0.0,0.0,0.0
922.84357,464.5636,127068315,0.83750004,0.10638297,456.28323,-159.54128,5.765632E-4,0.022811025,0.0024785995,0.0,0.0,0.0
925.32587,464.5636,127068332,0.83750004,0.10638297,-1.3425771,-195.73683,5.765632E-4,0.022811025,0.0024785995,0.0,0.0,0.0
926.17633,465.6532,127068349,0.8125,0.08510638,-156.59229,-86.08247,5.765632E-4,0.022811025,0.0024785995,0.0,0.0,0.0
926.17633,467.74475,127068366,0.825,0.08510638,-199.62433,34.494225,5.765632E-4,0.022811025,0.0024785995,0.0,0.0,0.0
924.096,473.93652,127068382,0.8125,0.09574468,-229.1675,229.78514,5.765632E-4,0.022811025,0.0024785995,0.0,0.0,0.0
921.4894,482.59583,127068399,0.8125,0.09574468,-233.18306,521.5681,5.765632E-4,0.022811025,0.0024785995,6.710885E-6,0.0,0.0
919.9098,490.46216,127068416,0.7625,0.09574468,-226.66519,668.10864,5.765632E-4,0.022811025,0.0024785995,6.710885E-6,0.0,0.0
919.67847,493.88416,127068427,0.4625,0.12765957,-183.68253,643.4598,5.765632E-4,0.022811025,0.0024785995,6.710885E-6,0.0,0.0
919.67847,493.88416,127068435,0.4625,0.12765957,-183.68253,643.4598,5.765632E-4,0.022811025,0.0024785995,6.710885E-6,0.0,0.0
1012.6482,413.91882,127068919,0.6625,0.09574468,0.0,0.0,0.032461256,0.0022487938,0.001982689,0.0,0.0,0.0
1012.6482,413.91882,127068950,0.7625,0.10638297,-0.053438365,-0.023117347,0.032461256,0.0022487938,0.001982689,0.0,0.0,0.0
1012.6482,413.91882,127068963,0.7875,0.10638297,0.06689444,0.025537862,0.032461256,0.0022487938,0.001982689,0.0,0.0,0.0
988.7395,402.24487,127068984,0.8125,0.12765957,-1170.6027,-581.05786,0.032461256,0.0022487938,0.001982689,0.0,0.0,0.0
977.26294,400.5913,127069000,0.8,0.12765957,-1197.4552,-446.5439,0.032461256,0.0022487938,0.001982689,0.0,0.0,0.0
961.7175,401.67773,127069017,0.8125,0.10638297,-1236.2012,-208.53603,-0.006030999,-0.014200956,0.017585754,0.0,0.0,0.0
945.715,407.58643,127069034,0.8125,0.10638297,-1184.0562,227.65338,-0.006030999,-0.014200956,0.017585754,0.0,0.0,0.0
937.1591,415.04773,127069051,0.8,0.08510638,-794.9479,604.3887,-0.006030999,-0.014200956,0.017585754,0.0,0.0,0.0
927.9013,429.8551,127069067,0.8,0.09574468,-539.0184,829.2403,-0.006030999,-0.014200956,0.017585754,0.0,0.0,0.0
922.64105,447.0525,127069084,0.8,0.12765957,-263.6532,1189.3419,-0.006030999,-0.014200956,0.017585754,0.0,0.0,0.0
921.78723,460.8988,127069101,0.77500004,0.11702127,-32.364388,1234.3137,-0.006030999,-0.014200956,0.017585754,0.0,0.0,0.0
926.35455,474.95825,127069117,0.7875,0.07446808,226.27736,1088.5498,-0.006030999,-0.014200956,0.017585754,0.0,0.0,0.0
933.4211,483.0985,127069134,0.8,0.06382979,569.7416,693.6567,-0.006030999,-0.014200956,0.017585754,0.0,0.0,0.0
947.2733,489.1316,127069151,0.8125,0.08510638,896.6994,329.49603,-0.006030999,-0.014200956,0.017585754,0.0,0.0,0.0
966.0569,486.9109,127069168,0.8,0.08510638,1223.8794,6.6838226,-0.006030999,-0.014200956,0.017585754,0.0,0.0,0.0
980.7958,478.6781,127069184,0.8,0.08510638,1297.7347,-522.7451,-0.006030999,-0.014200956,0.017585754,0.0,0.0,0.0
995.64954,465.8662,127069201,0.8125,0.10638297,1196.2612,-961.602,-0.006030999,-0.014200956,0.017585754,0.0,0.0,0.0
1005.4542,453.28467,127069218,0.8125,0.08510638,844.1491,-1155.6423,-0.006030999,-0.014200956,0.017585754,0.0,0.0,0.0
1012.3507,432.02734,127069234,0.8,0.08510638,450.56372,-1343.0516,-0.006030999,-0.014200956,0.017585754,0.0,0.0,0.0
1013.1481,420.11987,127069251,0.83750004,0.10638297,85.5166,-1229.2758,-0.006030999,-0.014200956,0.017585754,0.0,0.0,0.0
1009.63916,413.7306,127069268,0.825,0.10638297,-283.419,-811.6535,-0.006030999,-0.014200956,0.017585754,0.0,0.0,0.0
1001.6864,407.85498,127069285,0.8,0.12765957,-602.3105,-297.4126,-0.006030999,-0.014200956,0.017585754,0.0,0.0,0.0
986.2178,402.25696,127069301,0.8,0.12765957,-993.8408,-36.954033,-0.006030999,-0.014200956,0.017585754,0.0,0.0,0.0
972.6876,400.5913,127069318,0.83750004,0.12765957,-1187.653,-8.049578,-0.006030999,-0.014200956,0.017585754,0.0,0.0,0.0
957.428,402.7351,127069335,0.825,0.10638297,-1206.911,72.45632,-0.006030999,-0.014200956,0.017585754,0.0,0.0,0.0
948.14185,407.05115,127069351,0.83750004,0.09574468,-925.72754,331.22336,-0.006030999,-0.014200956,0.017585754,0.0,0.0,0.0
942.0582,414.8706,127069368,0.83750004,0.08510638,-493.76843,550.2865,-0.006030999,-0.014200956,0.017585754,0.0,0.0,0.0
942.5688,431.28015,127069385,0.8,0.08510638,-72.57614,879.34875,-0.006030999,-0.014200956,0.017585754,0.0,0.0,0.0
947.31134,442.5526,127069401,0.8,0.12765957,380.15176,1048.0376,-0.006030999,-0.014200956,0.017585754,0.0,0.0,0.0
960.6089,455.57275,127069418,0.7875,0.11702127,828.7347,1035.6942,-0.006030999,-0.014200956,0.017585754,0.0,0.0,0.0
979.7208,464.5475,127069435,0.7875,0.09574468,1284.9097,808.59235,-0.006030999,-0.014200956,0.017585754,0.0,0.0,0.0
1006.1832,465.45203,127069452,0.77500004,0.10638297,1746.8789,318.6241,-0.006030999,-0.014200956,0.017585754,0.0,0.0,0.0
1024.8982,458.52966,127069468,0.7875,0.12765957,1787.2908,-259.4536,-0.006030999,-0.014200956,0.017585754,0.0,0.0,0.0
1039.4043,447.70203,127069485,0.825,0.08510638,1453.9575,-784.337,-0.006030999,-0.014200956,0.017585754,0.0,0.0,0.0
1050.648,432.5558,127069502,0.83750004,0.08510638,808.44684,-1242.7019,-0.006030999,-0.014200956,0.017585754,0.0,0.0,0.0
1059.6655,411.052,127069518,0.8125,0.10638297,394.93878,-1492.6622,-0.006030999,-0.014200956,0.017585754,0.0,0.0,0.0
1062.9612,398.55273,127069535,0.825,0.08510638,139.1994,-1380.3044,-0.006030999,-0.014200956,0.017585754,0.0,0.0,0.0
1061.9209,391.58728,127069552,0.8,0.08510638,-166.31796,-849.5853,-0.006030999,-0.014200956,0.017585754,0.0,0.0,0.0
1059.4241,387.60864,127069569,0.825,0.08510638,-400.91382,-231.5795,-0.006030999,-0.014200956,0.017585754,0.0,0.0,0.0
1055.8289,384.71362,127069585,0.83750004,0.08510638,-465.78778,142.15858,-0.036824793,0.0046392083,0.0140686035,0.0,0.0,0.0
1051.2032,383.70972,127069602,0.83750004,0.08510638,-457.0365,207.41965,-0.036824793,0.0046392083,0.0140686035,0.0,0.0,0.0
1047.9845,384.68848,127069619,0.85,0.09574468,-327.30545,137.26862,-0.036824793,0.0046392083,0.0140686035,0.0,0.0,0.0
1045.4607,386.53235,127069635,0.825,0.10638297,-234.22565,188.80905,-0.036824793,0.0046392083,0.0140686035,0.0,0.0,0.0
1045.2382,393.3103,127069652,0.825,0.12765957,-102.60484,355.93964,-0.036824793,0.0046392083,0.0140686035,0.0,0.0,0.0
1049.9529,404.99866,127069669,0.83750004,0.09574468,156.16238,644.9494,-0.036824793,0.0046392083,0.0140686035,0.0,0.0,0.0
1063.2047,418.74414,127069686,0.77500004,0.07446808,598.92883,910.799,-0.036824793,0.0046392083,0.0140686035,0.0,0.0,0.0
1075.0134,432.23206,127069702,0.77500004,0.09574468,1002.1546,1076.3693,-0.036824793,0.0046392083,0.0140686035,0.0,0.0,0.0
1086.0112,443.3722,127069719,0.7875,0.12765957,1057.2229,963.7491,-0.036824793,0.0046392083,0.0140686035,0.0,0.0,0.0
1094.7374,453.03333,127069736,0.7875,0.10638297,811.10236,712.04663,-0.036824793,0.0046392083,0.0140686035,0.0,0.0,0.0
1100.2802,463.0652,127069752,0.8125,0.08510638,426.2423,501.58493,-0.036824793,0.0046392083,0.0140686035,0.0,0.0,0.0
1102.8345,473.96204,127069769,0.8,0.08510638,128.17865,497.6687,-0.036824793,0.0046392083,0.0140686035,0.0,0.0,0.0
1101.0033,484.14636,127069786,0.8,0.06382979,-137.22795,582.2367,-0.036824793,0.0046392083,0.0140686035,0.0,0.0,0.0
1096.3324,490.99316,127069803,0.8125,0.08510638,-367.94113,566.60034,-0.036824793,0.0046392083,0.0140686035,0.0,0.0,0.0
1088.6252,497.43677,127069819,0.7875,0.11702127,-574.36755,393.5816,-0.036824793,0.0046392083,0.0140686035,0.0,0.0,0.0
1074.958,506.781,127069836,0.75,0.10638297,-848.14685,361.11005,-0.036824793,0.0046392083,0.0140686035,0.0,0.0,0.0
1046.9161,524.5963,127069853,0.2375,0.11702127,-1374.4476,683.1062,-0.036824793,0.0046392083,0.0140686035,0.0,0.0,0.0
1046.9161,524.5963,127069860,0.2375,0.11702127,-1374.4476,683.1062,-0.036824793,0.0046392083,0.0140686035,0.0,0.0,0.0
