x,y,timestamp,pressure,fingerarea,velocityx,velocityy,accelx,accely,accelz,gyrox,gyroy,gyroz
226.40414,290.41687,78019767,0.71250004,0.10638297,0.0,0.0,-0.029824033,-0.009634942,-0.0264225,0.0,0.0,0.0
226.40414,290.41687,78019788,0.7375,0.10638297,-0.009099758,-0.015182138,-0.029824033,-0.009634942,-0.0264225,0.0,0.0,0.0
226.40414,290.41687,78019804,0.7875,0.10638297,0.0105332015,0.015257036,-0.029824033,-0.009634942,-0.0264225,0.0,0.0,0.0
226.40414,290.41687,78019821,0.8125,0.10638297,-0.010982048,-0.013791153,-0.029824033,-0.009634942,-0.0264225,0.0,0.0,0.0
226.40414,290.41687,78019838,0.8125,0.10638297,0.014290234,0.018543916,-0.029824033,-0.009634942,-0.0264225,0.0,0.0,0.0
226.40414,290.41687,78019854,0.85,0.12765957,-0.00800772,-0.0087686805,-0.029824033,-0.009634942,-0.0264225,0.0,0.0,0.0
226.40414,290.41687,78019871,0.8625,0.12765957,0.003999106,0.005858568,-0.029824033,-0.009634942,-0.0264225,0.0,0.0,0.0
226.40414,290.41687,78019888,0.8625,0.10638297,0.0034440185,0.0040449486,-0.029824033,-0.009634942,-0.0264225,0.0,0.0,0.0
220.76813,310.45398,78019904,0.85,0.08510638,-156.83452,557.61346,0.008140773,0.008292019,0.01086235,0.0,0.0,0.0
217.85056,322.93286,78019921,0.8625,0.08510638,-270.64737,1017.3431,0.008140773,0.008292019,0.01086235,0.0,0.0,0.0
216.90726,333.09924,78019938,0.8875,0.11702127,-256.0387,1146.2444,0.008140773,0.008292019,0.01086235,0.0,0.0,0.0
215.66101,343.69128,78019955,0.875,0.12765957,-106.58721,861.25415,0.008140773,0.008292019,0.01086235,0.0,0.0,0.0
214.9079,354.77954,78019971,0.8625,0.10638297,13.911627,551.2864,0.008140773,0.008292019,0.01086235,0.0,0.0,0.0
214.9079,368.83484,78019988,0.875,0.08510638,16.384789,714.3498,0.008140773,0.008292019,0.01086235,0.0,0.0,0.0
214.40805,382.03882,78020005,0.8625,0.08510638,12.974365,834.148,0.008140773,0.008292019,0.01086235,0.0,0.0,0.0
214.8088,392.60266,78020021,0.8625,0.12765957,18.97044,814.74274,0.008140773,0.008292019,0.01086235,0.0,0.0,0.0
214.9079,402.66943,78020038,0.8625,0.12765957,35.519783,656.753,0.008140773,0.008292019,0.01086235,0.0,0.0,0.0
215.89813,412.0581,78020055,0.8625,0.08510638,44.95628,514.14655,0.008140773,0.008292019,0.01086235,0.0,0.0,0.0
217.4744,422.2146,78020071,0.8125,0.08510638,88.67974,492.94626,0.008140773,0.008292019,0.01086235,0.0,0.0,0.0
219.5563,430.44482,78020088,0.7375,0.08510638,134.74596,512.6346,0.008140773,0.008292019,0.01086235,0.0,0.0,0.0
220.53085,432.7992,78020105,0.2125,0.08510638,129.94432,332.47757,0.008140773,0.008292019,0.01086235,0.0,0.0,0.0
220.53085,432.7992,78020111,0.2125,0.08510638,129.94432,332.47757,0.008140773,0.008292019,0.01086235,0.0,0.0,0.0
177.4201,336.61914,78021402,0.6875,0.07446808,0.0,0.0,0.01801008,0.021306902,0.0037527084,0.0,0.0,0.0
177.4201,336.61914,78021425,0.7625,0.08510638,-0.024749693,-0.046874955,0.01801008,0.021306902,0.0037527084,0.0,0.0,0.0
177.4201,336.61914,78021442,0.77500004,0.06382979,0.014483063,0.027555436,0.01801008,0.021306902,0.0037527084,0.0,0.0,0.0
178.74902,328.11487,78021458,0.8,0.08510638,48.02054,-307.2287,0.01801008,0.021306902,0.0037527084,0.0,0.0,0.0
182.93509,310.63306,78021475,0.825,0.09574468,215.96507,-1091.5269,0.01801008,0.021306902,0.0037527084,0.0,0.0,0.0
187.50003,300.93115,78021492,0.8125,0.12765957,319.04172,-1159.3287,0.01801008,0.021306902,0.0037527084,0.0,0.0,0.0
194.63632,288.24573,78021509,0.83750004,0.09574468,462.8295,-1097.4657,-0.0015919209,0.017045528,-0.012998581,0.0,0.0,0.0
201.38489,276.24963,78021525,0.8125,0.09574468,523.9303,-823.5258,-0.0015919209,0.017045528,-0.012998581,0.0,0.0,0.0
209.15009,266.69104,78021542,0.83750004,0.08510638,530.803,-565.90955,-0.0015919209,0.017045528,-0.012998581,0.0,0.0,0.0
216.44711,261.9673,78021559,0.85,0.08510638,511.0942,-455.2563,-0.0015919209,0.017045528,-0.012998581,0.0,0.0,0.0
223.77536,261.0963,78021575,0.875,0.08510638,473.5377,-111.958206,-0.0015919209,0.017045528,-0.012998581,0.0,0.0,0.0
229.93701,266.0133,78021592,0.85,0.08510638,418.24985,309.84366,-0.0015919209,0.017045528,-0.012998581,0.0,0.0,0.0
236.37872,274.7765,78021609,0.8625,0.10638297,371.113,656.75226,-0.0015919209,0.017045528,-0.012998581,0.0,0.0,0.0
245.5951,286.208,78021626,0.825,0.12765957,426.55106,894.01715,-0.0015919209,0.017045528,-0.012998581,0.0,0.0,0.0
253.67291,296.0769,78021642,0.83750004,0.11702127,501.17966,938.5732,-0.0015919209,0.017045528,-0.012998581,0.0,0.0,0.0
264.74255,306.74377,78021659,0.825,0.08510638,643.4357,810.23895,-0.0015919209,0.017045528,-0.012998581,0.0,0.0,0.0
275.9566,312.75525,78021676,0.825,0.08510638,745.83685,580.3957,-0.0015919209,0.017045528,-0.012998581,0.0,0.0,0.0
286.32602,315.87573,78021692,0.8125,0.08510638,727.33704,257.44592,-0.0015919209,0.017045528,-0.012998581,0.0,0.0,0.0
295.43375,315.58093,78021709,0.825,0.08510638,636.2755,-45.67848,-0.0015919209,0.017045528,-0.012998581,0.0,0.0,0.0
302.43237,312.30188,78021726,0.825,0.09574468,458.37073,-312.97125,-0.0015919209,0.017045528,-0.012998581,0.0,0.0,0.0
306.69186,309.18567,78021743,0.825,0.11702127,283.7373,-422.15234,-0.0015919209,0.017045528,-0.012998581,0.0,0.0,0.0
308.85135,307.32153,78021759,0.83750004,0.11702127,107.29383,-351.2329,-0.0015919209,0.017045528,-0.012998581,0.0,0.0,0.0
309.90393,305.47363,78021776,0.83750004,0.11702127,-40.451504,-202.6652,-0.0015919209,0.017045528,-0.012998581,0.0,0.0,0.0
310.37683,303.62158,78021793,0.825,0.11702127,-97.41955,-97.0886,-0.0015919209,0.017045528,-0.012998581,0.0,0.0,0.0
310.87665,301.77686,78021809,0.83750004,0.11702127,-74.06411,-73.63493,-0.0015919209,0.017045528,-0.012998581,0.0,0.0,0.0
310.87665,301.9674,78021843,0.85,0.11702127,-30.789633,7.8655663,-0.0015919209,0.017045528,-0.012998581,0.0,0.0,0.0
310.87665,301.9674,78021860,0.825,0.11702127,-20.737453,55.21714,-0.0015919209,0.017045528,-0.012998581,0.0,0.0,0.0
310.87665,301.9674,78021876,0.83750004,0.11702127,-9.300787,42.23214,-0.0015919209,0.017045528,-0.012998581,0.0,0.0,0.0
310.87665,303.9336,78021893,0.83750004,0.09574468,-0.009902868,60.30133,-0.0015919209,0.017045528,-0.012998581,0.0,0.0,0.0
310.87665,311.75623,78021910,0.85,0.09574468,-0.0284906,352.82266,-0.0015919209,0.017045528,-0.012998581,0.0,0.0,0.0
310.02322,324.13757,78021926,0.85,0.09574468,-22.438242,679.7921,-0.0015919209,0.017045528,-0.012998581,0.0,0.0,0.0
309.87698,335.6454,78021943,0.83750004,0.10638297,-39.94676,976.1681,-0.0015919209,0.017045528,-0.012998581,0.0,0.0,0.0
308.91635,346.86487,78021960,0.83750004,0.12765957,-50.42696,956.7006,-0.0015919209,0.017045528,-0.012998581,0.0,0.0,0.0
309.3781,359.73242,78021977,0.83750004,0.09574468,-20.107239,807.11194,-0.0015919209,0.017045528,-0.012998581,0.0,0.0,0.0
309.91943,375.4286,78021993,0.83750004,0.09574468,22.296675,865.57184,-0.0015919209,0.017045528,-0.012998581,0.0,0.0,0.0
310.46152,389.20593,78022010,0.825,0.11702127,55.530643,919.3016,-0.0015919209,0.017045528,-0.012998581,0.0,0.0,0.0
310.37683,400.18628,78022027,0.825,0.11702127,47.020348,851.98413,-0.0015919209,0.017045528,-0.012998581,0.0,0.0,0.0
309.87698,415.9884,78022043,0.83750004,0.09574468,3.827074,805.1203,0.01472643,-0.0023635924,-0.010398865,0.0,0.0,0.0
310.37683,432.63367,78022060,0.825,0.09574468,-13.609499,892.0896,0.01472643,-0.0023635924,-0.010398865,0.0,0.0,0.0
310.61584,447.5271,78022077,0.8125,0.12765957,-0.45181158,1028.2936,0.01472643,-0.0023635924,-0.010398865,0.0,0.0,0.0
310.65503,464.27832,78022093,0.77500004,0.08510638,15.147416,1054.3824,0.01472643,-0.0023635924,-0.010398865,0.0,0.0,0.0
310.87665,469.0061,78022097,0.6875,0.08510638,17.686274,1077.2651,0.01472643,-0.0023635924,-0.010398865,0.0,0.0,0.0
310.87665,469.0061,78022106,0.6875,0.08510638,17.686274,1077.2651,0.01472643,-0.0023635924,-0.010398865,0.0,0.0,0.0
353.36282,387.2638,78023020,0.7375,0.08510638,0.0,0.0,-0.02021885,-0.001890868,-0.024318695,0.0,0.0,0.0
353.36282,387.2638,78023044,0.77500004,0.08510638,0.025702752,0.02941733,-0.02021885,-0.001890868,-0.024318695,0.0,0.0,0.0
353.36282,387.2638,78023060,0.7875,0.08510638,-0.0023578552,-0.0058004856,-0.02021885,-0.001890868,-0.024318695,0.0,0.0,0.0
353.36282,387.2638,78023079,0.8,0.10638297,0.008202386,0.008588263,-0.02021885,-0.001890868,-0.024318695,0.0,0.0,0.0
353.36282,387.2638,78023096,0.7875,0.12765957,-0.0047725127,-0.0076815495,-0.02021885,-0.001890868,-0.024318695,0.0,0.0,0.0
365.65326,395.66663,78023113,0.77500004,0.12765957,239.47928,163.73047,0.015824914,-0.0015127063,-0.003455162,0.0,0.0,0.0
385.89563,405.42566,78023130,0.7875,0.09574468,1102.2855,652.5135,0.015824914,-0.0015127063,-0.003455162,0.0,0.0,0.0
400.8906,406.8108,78023146,0.8,0.10638297,1488.1554,639.8826,0.015824914,-0.0015127063,-0.003455162,0.0,0.0,0.0
412.22815,404.36414,78023163,0.7625,0.12765957,1288.6798,151.80879,0.015824914,-0.0015127063,-0.003455162,0.0,0.0,0.0
423.18082,398.8993,78023180,0.77500004,0.10638297,857.37335,-347.4202,0.015824914,-0.0015127063,-0.003455162,0.0,0.0,0.0
431.985,391.55627,78023196,0.7875,0.08510638,389.7545,-728.0452,0.015824914,-0.0015127063,-0.003455162,0.0,0.0,0.0
436.51935,384.16333,78023213,0.7875,0.08510638,299.4639,-661.74536,0.015824914,-0.0015127063,-0.003455162,0.0,0.0,0.0
439.44678,372.9414,78023230,0.7875,0.08510638,116.5315,-712.981,0.015824914,-0.0015127063,-0.003455162,0.0,0.0,0.0
437.3355,365.4956,78023246,0.7875,0.10638297,-109.90896,-648.0805,0.015824914,-0.0015127063,-0.003455162,0.0,0.0,0.0
432.78677,360.37744,78023263,0.8,0.12765957,-374.30396,-478.8734,0.015824914,-0.0015127063,-0.003455162,0.0,0.0,0.0
419.73944,357.0547,78023280,0.8,0.12765957,-700.1144,-241.67612,0.015824914,-0.0015127063,-0.003455162,0.0,0.0,0.0
400.07617,358.88525,78023297,0.8,0.09574468,-1221.2856,51.063072,0.015824914,-0.0015127063,-0.003455162,0.0,0.0,0.0
383.62222,365.82397,78023313,0.8,0.09574468,-1480.6713,372.37878,0.015824914,-0.0015127063,-0.003455162,0.0,0.0,0.0
372.53433,375.70142,78023330,0.8,0.09574468,-1239.143,743.55835,0.015824914,-0.0015127063,-0.003455162,0.0,0.0,0.0
363.26904,387.67517,78023347,0.8,0.10638297,-695.7319,939.6032,0.015824914,-0.0015127063,-0.003455162,0.0,0.0,0.0
356.74356,402.78833,78023364,0.7875,0.10638297,-236.53226,1047.0245,0.015824914,-0.0015127063,-0.003455162,0.0,0.0,0.0
357.73636,421.91504,78023380,0.8,0.08510638,23.6612,1184.4084,0.015824914,-0.0015127063,-0.003455162,0.0,0.0,0.0
362.87128,437.04456,78023397,0.7875,0.11702127,362.12027,1220.9314,0.015824914,-0.0015127063,-0.003455162,0.0,0.0,0.0
368.07574,445.24866,78023414,0.77500004,0.12765957,594.7545,918.4661,0.015824914,-0.0015127063,-0.003455162,0.0,0.0,0.0
380.36035,453.56335,78023430,0.77500004,0.10638297,826.42535,503.78836,0.015824914,-0.0015127063,-0.003455162,0.0,0.0,0.0
400.00024,459.6576,78023447,0.77500004,0.12765957,1135.9116,205.95732,0.015824914,-0.0015127063,-0.003455162,0.0,0.0,0.0
415.61816,458.9037,78023464,0.75,0.12765957,1285.1229,-61.82187,0.015824914,-0.0015127063,-0.003455162,0.0,0.0,0.0
439.0905,446.6609,78023481,0.55,0.08510638,1485.0441,-469.99628,0.015824914,-0.0015127063,-0.003455162,0.0,0.0,0.0
443.33353,442.35095,78023486,0.1875,0.06382979,1507.9642,-646.6096,0.015824914,-0.0015127063,-0.003455162,0.0,0.0,0.0
443.33353,442.35095,78023493,0.1875,0.06382979,1507.9642,-646.6096,0.015824914,-0.0015127063,-0.003455162,0.0,0.0,0.0
429.83792,277.08936,78023687,0.7625,0.09574468,0.0,0.0,-0.035340056,-0.0012101829,-0.050764084,0.0,0.0,0.0
429.83792,277.08936,78023715,0.825,0.09574468,-0.042047627,-0.029087447,-0.035340056,-0.0012101829,-0.050764084,0.0,0.0,0.0
429.83792,277.08936,78023731,0.825,0.09574468,0.0071861856,0.0047303527,-0.035340056,-0.0012101829,-0.050764084,0.0,0.0,0.0
429.83792,277.08936,78023748,0.8,0.11702127,0.005353291,0.0039826063,-0.035340056,-0.0012101829,-0.050764084,0.0,0.0,0.0
432.0843,295.72375,78023765,0.77500004,0.12765957,56.095016,465.3753,-0.035340056,-0.0012101829,-0.050764084,0.0,0.0,0.0
432.83694,303.7445,78023775,0.3,0.08510638,112.34057,967.96906,-0.035340056,-0.0012101829,-0.050764084,0.0,0.0,0.0
432.83694,303.7445,78023782,0.3,0.08510638,112.34057,967.96906,-0.035340056,-0.0012101829,-0.050764084,0.0,0.0,0.0
434.33646,447.682,78024065,0.6375,0.08510638,0.0,0.0,-0.035340056,-0.0012101829,-0.050764084,0.0,0.0,0.0
434.33646,447.682,78024082,0.71250004,0.08510638,0.48096487,0.47866863,-0.035340056,-0.0012101829,-0.050764084,0.0,0.0,0.0
434.33646,447.682,78024099,0.75,0.08510638,-0.0015813282,-0.0014210516,-0.035340056,-0.0012101829,-0.050764084,0.0,0.0,0.0
434.33646,447.682,78024112,0.7625,0.08510638,-0.002342172,-0.0021819028,-0.035340056,-0.0012101829,-0.050764084,3.355443E-6,0.0,0.0
434.33646,447.682,78024129,0.77500004,0.08510638,0.0034024152,0.004112731,-0.035340056,-0.0012101829,-0.050764084,3.355443E-6,0.0,0.0
458.14478,430.2909,78024166,0.7875,0.08510638,791.70416,-569.352,-0.035340056,-0.0012101829,-0.050764084,3.355443E-6,0.0,0.0
466.89142,421.07056,78024182,0.7875,0.11702127,886.3808,-737.67737,0.0037279576,-9.6815825E-4,-0.024611473,0.0,0.0,0.0
472.16187,412.4303,78024199,0.77500004,0.12765957,587.58124,-707.4345,0.0037279576,-9.6815825E-4,-0.024611473,0.0,0.0,0.0
478.07422,397.17957,78024216,0.7875,0.09574468,281.72113,-708.4163,0.0037279576,-9.6815825E-4,-0.024611473,0.0,0.0,0.0
481.71564,374.73364,78024233,0.8,0.09574468,159.70706,-1274.1193,0.0037279576,-9.6815825E-4,-0.024611473,0.0,0.0,0.0
480.4131,361.9043,78024249,0.8,0.12765957,-7.632855,-1337.9491,0.0037279576,-9.6815825E-4,-0.024611473,0.0,0.0,0.0
478.8354,355.3136,78024266,0.7875,0.12765957,-168.27303,-986.7355,0.0037279576,-9.6815825E-4,-0.024611473,0.0,0.0,0.0
476.7577,351.6659,78024283,0.825,0.12765957,-281.2539,-289.94113,0.0037279576,-9.6815825E-4,-0.024611473,0.0,0.0,0.0
475.24792,349.813,78024299,0.8125,0.12765957,-279.1373,213.28122,0.0037279576,-9.6815825E-4,-0.024611473,0.0,0.0,0.0
474.21088,347.96973,78024316,0.825,0.12765957,-136.8978,223.77814,0.0037279576,-9.6815825E-4,-0.024611473,0.0,0.0,0.0
473.18176,347.28113,78024333,0.8125,0.12765957,-58.566246,100.05828,0.0037279576,-9.6815825E-4,-0.024611473,0.0,0.0,0.0
474.0105,347.89148,78024350,0.7875,0.12765957,3.3616192,75.68646,0.0037279576,-9.6815825E-4,-0.024611473,0.0,0.0,0.0
480.52435,353.94043,78024366,0.8,0.08510638,210.76205,213.38576,0.0037279576,-9.6815825E-4,-0.024611473,0.0,0.0,0.0
497.44904,368.93945,78024383,0.77500004,0.08510638,749.3782,694.24854,0.0037279576,-9.6815825E-4,-0.024611473,0.0,0.0,0.0
515.8174,384.33093,78024400,0.7625,0.08510638,1348.228,1182.2485,0.0037279576,-9.6815825E-4,-0.024611473,0.0,0.0,0.0
529.67596,394.70105,78024416,0.7625,0.12765957,1450.6903,1188.6714,0.0037279576,-9.6815825E-4,-0.024611473,0.0,0.0,0.0
542.5768,403.85522,78024433,0.7625,0.10638297,1110.112,831.297,0.0037279576,-9.6815825E-4,-0.024611473,0.0,0.0,0.0
551.635,410.7483,78024450,0.7625,0.08510638,639.2904,406.7717,0.0037279576,-9.6815825E-4,-0.024611473,0.0,0.0,0.0
556.6716,416.41772,78024467,0.7625,0.06382979,283.64148,192.30864,0.0037279576,-9.6815825E-4,-0.024611473,0.0,0.0,0.0
560.31573,425.54138,78024483,0.7625,0.06382979,104.689804,325.43878,0.0037279576,-9.6815825E-4,-0.024611473,0.0,0.0,0.0
559.19196,433.83496,78024500,0.75,0.08510638,-118.042984,440.82584,0.0037279576,-9.6815825E-4,-0.024611473,0.0,0.0,0.0
555.42957,439.12354,78024517,0.77500004,0.10638297,-337.98608,443.4492,0.0037279576,-9.6815825E-4,-0.024611473,0.0,0.0,0.0
546.83215,445.78076,78024533,0.77500004,0.12765957,-557.5507,393.65234,0.0037279576,-9.6815825E-4,-0.024611473,0.0,0.0,0.0
538.72766,450.00464,78024550,0.7625,0.12765957,-722.0907,279.05258,0.0037279576,-9.6815825E-4,-0.024611473,0.0,0.0,0.0
531.31537,452.4762,78024567,0.7625,0.12765957,-716.92554,150.85495,0.0037279576,-9.6815825E-4,-0.024611473,0.0,0.0,0.0
524.6311,453.9015,78024584,0.725,0.10638297,-524.3745,61.074608,0.0037279576,-9.6815825E-4,-0.024611473,0.0,0.0,0.0
523.3075,453.9015,78024588,0.52500004,0.10638297,-503.79318,35.618614,0.0037279576,-9.6815825E-4,-0.024611473,0.0,0.0,0.0
523.3075,453.9015,78024596,0.52500004,0.10638297,-503.79318,35.618614,0.0037279576,-9.6815825E-4,-0.024611473,0.0,0.0,0.0
543.80084,382.8213,78024733,0.7,0.07446808,0.0,0.0,-0.013017654,-7.7453256E-4,-0.0036888123,0.0,0.0,0.0
543.80084,382.8213,78024751,0.75,0.08510638,-0.33973816,-0.24680087,-0.013017654,-7.7453256E-4,-0.0036888123,0.0,0.0,0.0
543.80084,382.8213,78024767,0.77500004,0.09574468,-0.01540026,-0.009073239,-0.013017654,-7.7453256E-4,-0.0036888123,0.0,0.0,0.0
543.80084,382.8213,78024784,0.7875,0.09574468,0.022169782,0.016263882,-0.013017654,-7.7453256E-4,-0.0036888123,0.0,0.0,0.0
543.80084,382.8213,78024801,0.7875,0.11702127,-0.0029898472,-0.002320219,-0.013017654,-7.7453256E-4,-0.0036888123,0.0,0.0,0.0
547.0343,373.7207,78024818,0.7875,0.10638297,66.9186,-188.30989,-0.013017654,-7.7453256E-4,-0.0036888123,0.0,0.0,0.0
552.8218,360.8766,78024834,0.7875,0.10638297,311.37958,-807.298,-0.013017654,-7.7453256E-4,-0.0036888123,0.0,0.0,0.0
563.1749,353.49768,78024851,0.8,0.12765957,561.34674,-921.1556,-0.013017654,-7.7453256E-4,-0.0036888123,0.0,0.0,0.0
574.31555,350.09106,78024868,0.8,0.12765957,817.2602,-681.1377,-0.013017654,-7.7453256E-4,-0.0036888123,0.0,0.0,0.0
587.2599,351.5796,78024884,0.7875,0.12765957,939.02075,-103.366615,-0.013017654,-7.7453256E-4,-0.0036888123,0.0,0.0,0.0
601.7337,358.8031,78024901,0.8,0.10638297,971.43463,521.1261,-0.013017654,-7.7453256E-4,-0.0036888123,0.0,0.0,0.0
613.13806,372.6565,78024918,0.7625,0.08510638,918.8336,870.4304,-0.013017654,-7.7453256E-4,-0.0036888123,0.0,0.0,0.0
622.2715,392.2306,78024935,0.7375,0.10638297,675.20465,1276.2274,-0.013017654,-7.7453256E-4,-0.0036888123,0.0,0.0,0.0
624.8829,406.57507,78024951,0.7375,0.08510638,387.33636,1410.5914,-0.013017654,-7.7453256E-4,-0.0036888123,0.0,0.0,0.0
622.87024,422.29663,78024968,0.7375,0.06382979,-54.36375,1327.0548,-0.013017654,-7.7453256E-4,-0.0036888123,0.0,0.0,0.0
617.53986,432.99854,78024984,0.7375,0.08510638,-441.27322,982.24664,-0.013017654,-7.7453256E-4,-0.0036888123,0.0,0.0,0.0
609.2952,438.91394,78025001,0.75,0.10638297,-676.23444,528.15784,-0.013017654,-7.7453256E-4,-0.0036888123,0.0,0.0,0.0
596.74744,445.02722,78025018,0.7375,0.11702127,-922.8115,214.16385,-0.013017654,-7.7453256E-4,-0.0036888123,0.0,0.0,0.0
586.93176,445.38184,78025034,0.77500004,0.08510638,-943.53186,21.072342,-0.013017654,-7.7453256E-4,-0.0036888123,0.0,0.0,0.0
581.1334,442.95142,78025051,0.77500004,0.07446808,-701.16974,-217.65851,-0.013017654,-7.7453256E-4,-0.0036888123,0.0,0.0,0.0
578.1766,438.59607,78025068,0.7625,0.07446808,-279.73065,-419.3801,-0.013017654,-7.7453256E-4,-0.0036888123,0.0,0.0,0.0
577.6989,433.06213,78025085,0.7625,0.07446808,85.35154,-559.0644,-0.013017654,-7.7453256E-4,-0.0036888123,0.0,0.0,0.0
580.58435,429.2052,78025101,0.7625,0.08510638,263.4814,-466.08527,-0.013017654,-7.7453256E-4,-0.0036888123,0.0,0.0,0.0
591.16156,426.37622,78025118,0.7875,0.07446808,538.14734,-311.1634,-0.013017654,-7.7453256E-4,-0.0036888123,0.0,0.0,0.0
607.78174,430.96765,78025135,0.7625,0.06382979,1005.5195,38.83977,-0.013017654,-7.7453256E-4,-0.0036888123,0.0,0.0,0.0
624.30396,439.31958,78025151,0.7625,0.08510638,1322.767,467.1293,-0.013017654,-7.7453256E-4,-0.0036888123,0.0,0.0,0.0
638.349,446.7683,78025168,0.7625,0.12765957,1294.552,711.07135,-0.013017654,-7.7453256E-4,-0.0036888123,0.0,0.0,0.0
651.3354,453.10522,78025185,0.7625,0.12765957,1027.6556,703.1618,-0.013017654,-7.7453256E-4,-0.0036888123,0.0,0.0,0.0
664.7403,458.9834,78025202,0.75,0.09574468,799.69385,539.40643,-0.013017654,-7.7453256E-4,-0.0036888123,0.0,0.0,0.0
674.7542,462.2921,78025218,0.7375,0.10638297,638.2615,253.0728,-0.013017654,-7.7453256E-4,-0.0036888123,0.0,0.0,0.0
681.7559,462.7865,78025231,0.5125,0.12765957,563.1931,131.58032,-0.013017654,-7.7453256E-4,-0.0036888123,0.0,0.0,0.0
681.7559,462.7865,78025238,0.5125,0.12765957,563.1931,131.58032,-0.013017654,-7.7453256E-4,-0.0036888123,0.0,0.0,0.0
606.78033,400.5913,78025367,0.7375,0.10638297,0.0,0.0,0.021585867,-6.196201E-4,0.02904892,0.0,0.0,0.0
606.78033,400.5913,78025385,0.7625,0.10638297,0.12706997,0.07639326,0.021585867,-6.196201E-4,0.02904892,0.0,0.0,0.0
606.78033,400.5913,78025397,0.7875,0.12765957,-0.05436193,-0.037369896,0.021585867,-6.196201E-4,0.02904892,0.0,0.0,0.0
612.29926,400.5913,78025419,0.8,0.10638297,204.53998,0.012151765,0.021585867,-6.196201E-4,0.02904892,0.0,0.0,0.0
629.92706,400.98438,78025435,0.77500004,0.12765957,1060.5518,11.037427,0.021585867,-6.196201E-4,0.02904892,0.0,0.0,0.0
644.20166,401.47986,78025452,0.7625,0.12765957,1251.4062,37.011112,0.021585867,-6.196201E-4,0.02904892,0.0,0.0,0.0
662.4986,401.47986,78025469,0.6375,0.10638297,1452.7351,28.551683,0.021585867,-6.196201E-4,0.02904892,0.0,0.0,0.0
663.7618,401.47986,78025472,0.275,0.10638297,1403.5658,24.312769,0.021585867,-6.196201E-4,0.02904892,0.0,0.0,0.0
663.7618,401.47986,78025481,0.275,0.10638297,1403.5658,24.312769,0.021585867,-6.196201E-4,0.02904892,0.0,0.0,0.0
763.72925,389.92932,78025705,0.7,0.08510638,0.0,0.0,0.021585867,-6.196201E-4,0.02904892,0.0,0.0,0.0
763.72925,389.92932,78025736,0.7375,0.09574468,0.022656647,0.007296154,0.021585867,-6.196201E-4,0.02904892,0.0,0.0,0.0
763.72925,389.92932,78025753,0.7375,0.07446808,0.045019988,0.022915559,0.021585867,-6.196201E-4,0.02904892,0.0,0.0,0.0
736.2429,378.2235,78025770,0.7625,0.06382979,-1364.8102,-589.23956,-0.014731288,0.01550433,0.023239136,0.0,0.0,0.0
720.1803,377.49023,78025786,0.7625,0.07446808,-1583.0914,-455.0069,-0.014731288,0.01550433,0.023239136,0.0,0.0,0.0
703.3545,381.42554,78025803,0.7625,0.08510638,-1597.3761,-144.69492,-0.014731288,0.01550433,0.023239136,0.0,0.0,0.0
692.155,384.18286,78025820,0.7625,0.08510638,-1245.6885,197.4797,-0.014731288,0.01550433,0.023239136,0.0,0.0,0.0
684.5388,387.90015,78025837,0.77500004,0.09574468,-601.5724,461.53625,-0.014731288,0.01550433,0.023239136,0.0,0.0,0.0
679.4464,394.4226,78025853,0.7625,0.10638297,-207.01402,393.58438,-0.014731288,0.01550433,0.023239136,0.0,0.0,0.0
675.24603,408.67297,78025870,0.77500004,0.08510638,-45.453743,644.7465,-0.014731288,0.01550433,0.023239136,0.0,0.0,0.0
677.9666,424.43677,78025887,0.75,0.06382979,103.52157,1042.5317,-0.014731288,0.01550433,0.023239136,0.0,0.0,0.0
683.2777,436.75024,78025903,0.7625,0.08510638,390.2232,1177.1921,-0.014731288,0.01550433,0.023239136,0.0,0.0,0.0
692.85205,444.187,78025920,0.725,0.11702127,662.1038,862.2546,-0.014731288,0.01550433,0.023239136,0.0,0.0,0.0
708.39685,448.42944,78025937,0.725,0.10638297,1001.63947,344.50223,-0.014731288,0.01550433,0.023239136,0.0,0.0,0.0
725.6311,446.04065,78025953,0.7375,0.09574468,1242.1399,-138.58806,-0.014731288,0.01550433,0.023239136,0.0,0.0,0.0
738.8006,438.74585,78025970,0.71250004,0.08510638,1201.529,-539.5931,-0.014731288,0.01550433,0.023239136,0.0,0.0,0.0
746.0534,428.53845,78025987,0.7375,0.09574468,838.25665,-818.2211,-0.014731288,0.01550433,0.023239136,0.0,0.0,0.0
752.2776,413.4248,78026004,0.7375,0.12765957,372.36386,-1071.5419,-0.014731288,0.01550433,0.023239136,0.0,0.0,0.0
753.82336,402.28748,78026020,0.75,0.09574468,5.5669584,-1084.6213,-0.014731288,0.01550433,0.023239136,0.0,0.0,0.0
754.2323,396.24988,78026037,0.7625,0.09574468,-164.56952,-792.3766,-0.014731288,0.01550433,0.023239136,0.0,0.0,0.0
754.03687,394.0244,78026054,0.7625,0.09574468,-193.56331,-333.51566,-0.014731288,0.01550433,0.023239136,0.0,0.0,0.0
752.99524,393.48328,78026070,0.77500004,0.11702127,-191.20665,145.69008,-0.014731288,0.01550433,0.023239136,0.0,0.0,0.0
751.96313,395.33118,78026087,0.75,0.12765957,-149.80879,309.06815,-0.014731288,0.01550433,0.023239136,0.0,0.0,0.0
752.3599,403.60242,78026104,0.75,0.11702127,-74.79345,448.3904,-0.014731288,0.01550433,0.023239136,0.0,0.0,0.0
757.7278,422.66748,78026121,0.7375,0.08510638,127.304756,937.7778,-0.014731288,0.01550433,0.023239136,0.0,0.0,0.0
763.70197,435.38184,78026137,0.725,0.08510638,404.50458,1321.8235,-0.014731288,0.01550433,0.023239136,0.0,0.0,0.0
774.0221,445.8767,78026154,0.6875,0.10638297,617.77637,1150.92,-0.014731288,0.01550433,0.023239136,0.0,0.0,0.0
783.1306,452.05884,78026171,0.575,0.10638297,791.1095,701.6612,-0.014731288,0.01550433,0.023239136,0.0,0.0,0.0
783.2229,452.1245,78026171,0.275,0.12765957,767.9889,643.0143,-0.014731288,0.01550433,0.023239136,0.0,0.0,0.0
783.2229,452.1245,78026180,0.275,0.12765957,767.9889,643.0143,-0.014731288,0.01550433,0.023239136,0.0,0.0,0.0
705.7481,248.65723,78026388,0.7375,0.10638297,0.0,0.0,-0.027785033,-0.019596517,-0.04540825,0.0,0.0,0.0
705.7481,248.65723,78026405,0.77500004,0.12765957,-2.209885,-0.7773319,-0.027785033,-0.019596517,-0.04540825,0.0,0.0,0.0
705.7481,248.65723,78026421,0.7875,0.10638297,-0.012565956,-0.004432977,-0.027785033,-0.019596517,-0.04540825,0.0,0.0,0.0
705.7481,248.65723,78026438,0.8125,0.08510638,0.003635303,3.673726E-4,-0.027785033,-0.019596517,-0.04540825,0.0,0.0,0.0
705.7481,248.65723,78026449,0.8,0.08510638,-0.060439136,-0.021088883,-0.027785033,-0.019596517,-0.04540825,0.0,0.0,0.0
718.0739,290.4076,78026472,0.75,0.10638297,458.64694,1610.003,-0.027785033,-0.019596517,-0.04540825,0.0,0.0,0.0
728.42084,310.28394,78026488,0.625,0.06382979,768.78973,2045.0834,-0.027785033,-0.019596517,-0.04540825,0.0,0.0,0.0
729.2405,311.74097,78026493,0.1875,0.06382979,766.4302,1956.7528,-0.027785033,-0.019596517,-0.04540825,0.0,0.0,0.0
729.2405,311.74097,78026500,0.1875,0.06382979,766.4302,1956.7528,-0.027785033,-0.019596517,-0.04540825,0.0,0.0,0.0
790.2206,437.90845,78026791,0.6625,0.06382979,0.0,0.0,-0.027785033,-0.019596517,-0.04540825,0.0,0.0,0.0
790.2206,437.90845,78026822,0.71250004,0.06382979,-0.003470965,-0.0022177983,-0.027785033,-0.019596517,-0.04540825,0.0,0.0,0.0
790.2206,437.90845,78026839,0.7375,0.07446808,0.025899919,0.012736837,0.02577196,3.2275915E-4,-0.03632641,0.0,0.0,0.0
790.2206,437.90845,78026856,0.725,0.07446808,0.012954358,0.006957334,0.02577196,3.2275915E-4,-0.03632641,0.0,0.0,0.0
790.2206,437.90845,78026873,0.7375,0.09574468,0.008945195,0.008534884,0.02577196,3.2275915E-4,-0.03632641,0.0,0.0,0.0
806.2357,421.2202,78026889,0.7375,0.12765957,447.83997,-466.70505,0.02577196,3.2275915E-4,-0.03632641,0.0,0.0,0.0
816.0947,407.56543,78026906,0.75,0.10638297,819.8615,-942.6324,0.02577196,3.2275915E-4,-0.03632641,0.0,0.0,0.0
823.48627,384.1261,78026923,0.75,0.07446808,896.81915,-1436.8224,0.02577196,3.2275915E-4,-0.03632641,0.0,0.0,0.0
825.2092,369.47778,78026939,0.75,0.10638297,550.0562,-1547.6124,0.02577196,3.2275915E-4,-0.03632641,0.0,0.0,0.0
823.94037,359.67468,78026956,0.75,0.12765957,-121.64023,-1025.6631,0.02577196,3.2275915E-4,-0.03632641,0.0,0.0,0.0
821.31366,355.10364,78026973,0.75,0.12765957,-366.80197,-367.123,0.02577196,3.2275915E-4,-0.03632641,0.0,0.0,0.0
818.20496,351.41968,78026990,0.7625,0.12765957,-427.69806,63.763756,0.02577196,3.2275915E-4,-0.03632641,0.0,0.0,0.0
815.96484,349.2826,78027006,0.77500004,0.12765957,-325.4405,200.63158,0.02577196,3.2275915E-4,-0.03632641,0.0,0.0,0.0
814.80743,347.4496,78027023,0.7625,0.12765957,-165.35912,95.50516,0.02577196,3.2275915E-4,-0.03632641,0.0,0.0,0.0
814.71265,347.28113,78027040,0.7625,0.12765957,-36.05088,35.229836,0.02577196,3.2275915E-4,-0.03632641,0.0,0.0,0.0
825.1571,349.93237,78027056,0.7625,0.10638297,283.86902,108.02186,0.02577196,3.2275915E-4,-0.03632641,0.0,0.0,0.0
840.75745,353.62354,78027073,0.75,0.10638297,868.2412,262.22867,0.02577196,3.2275915E-4,-0.03632641,0.0,0.0,0.0
854.0416,358.35107,78027090,0.75,0.09574468,1197.8767,363.26654,0.02577196,3.2275915E-4,-0.03632641,0.0,0.0,0.0
865.11523,363.9619,78027107,0.7625,0.08510638,1133.9006,425.3928,0.02577196,3.2275915E-4,-0.03632641,0.0,0.0,0.0
875.0053,368.92432,78027123,0.75,0.08510638,811.88904,390.6068,0.02577196,3.2275915E-4,-0.03632641,0.0,0.0,0.0
878.571,371.94446,78027140,0.75,0.08510638,367.6392,305.59595,0.02577196,3.2275915E-4,-0.03632641,0.0,0.0,0.0
880.42426,378.2577,78027157,0.7625,0.08510638,45.622654,283.81192,0.02577196,3.2275915E-4,-0.03632641,0.0,0.0,0.0
879.60565,385.6394,78027173,0.77500004,0.10638297,-147.01108,380.76672,0.02577196,3.2275915E-4,-0.03632641,0.0,0.0,0.0
875.75854,391.92456,78027190,0.7625,0.12765957,-366.34937,478.48813,0.02577196,3.2275915E-4,-0.03632641,0.0,0.0,0.0
871.0956,398.98962,78027207,0.7625,0.12765957,-435.79974,457.8387,0.02577196,3.2275915E-4,-0.03632641,0.0,0.0,0.0
866.13464,407.61328,78027224,0.7625,0.09574468,-466.3079,476.99677,0.02577196,3.2275915E-4,-0.03632641,0.0,0.0,0.0
863.2719,418.44946,78027240,0.7625,0.09574468,-380.76462,568.9445,0.02577196,3.2275915E-4,-0.03632641,0.0,0.0,0.0
862.697,428.7079,78027257,0.75,0.08510638,-161.94493,694.74805,0.02577196,3.2275915E-4,-0.03632641,0.0,0.0,0.0
864.2184,436.20923,78027274,0.7375,0.09574468,73.553955,644.222,0.02577196,3.2275915E-4,-0.03632641,0.0,0.0,0.0
867.9064,439.87292,78027290,0.725,0.10638297,273.1847,380.1759,0.02577196,3.2275915E-4,-0.03632641,0.0,0.0,0.0
879.8381,444.4414,78027307,0.675,0.08510638,577.4684,184.93692,0.02577196,3.2275915E-4,-0.03632641,0.0,0.0,0.0
881.69086,444.12793,78027314,0.4125,0.08510638,658.2446,82.091095,0.02577196,3.2275915E-4,-0.03632641,0.0,0.0,0.0
881.69086,444.12793,78027321,0.4125,0.08510638,658.2446,82.091095,0.02577196,3.2275915E-4,-0.03632641,0.0,0.0,0.0
952.1679,381.0443,78027450,0.725,0.06382979,0.0,0.0,0.0046175867,0.032258213,0.034938812,0.0,0.0,0.0
952.1679,381.0443,78027474,0.7375,0.08510638,-0.07755665,-0.02830141,0.0046175867,0.032258213,0.034938812,0.0,0.0,0.0
952.1679,381.0443,78027487,0.7625,0.08510638,-0.010770346,-0.004072557,0.0046175867,0.032258213,0.034938812,0.0,0.0,0.0
934.6736,388.15222,78027523,0.7625,0.11702127,-653.2365,265.44724,0.0046175867,0.032258213,0.034938812,0.0,0.0,0.0
924.09485,394.3075,78027541,0.75,0.12765957,-785.694,370.37775,0.0046175867,0.032258213,0.034938812,0.0,0.0,0.0
917.929,402.07214,78027558,0.7375,0.10638297,-582.5413,506.68387,0.0046175867,0.032258213,0.034938812,0.0,0.0,0.0
912.3135,414.33606,78027574,0.75,0.08510638,-347.06085,687.25146,0.0046175867,0.032258213,0.034938812,0.0,0.0,0.0
909.6817,427.6305,78027591,0.7375,0.08510638,-150.46965,963.8795,0.0046175867,0.032258213,0.034938812,0.0,0.0,0.0
910.20386,437.9878,78027608,0.7375,0.08510638,31.863436,924.7372,0.0046175867,0.032258213,0.034938812,0.0,0.0,0.0
912.8454,444.42065,78027625,0.7375,0.12765957,211.58968,673.16144,0.0046175867,0.032258213,0.034938812,0.0,0.0,0.0
919.82935,449.6283,78027641,0.725,0.12765957,443.4191,290.56293,0.0046175867,0.032258213,0.034938812,0.0,0.0,0.0
934.88727,452.8147,78027658,0.725,0.10638297,807.7514,46.80532,0.0046175867,0.032258213,0.034938812,0.0,0.0,0.0
951.5043,450.50488,78027675,0.725,0.09574468,1177.9949,-107.49617,0.0046175867,0.032258213,0.034938812,0.0,0.0,0.0
962.66174,443.24194,78027691,0.7375,0.09574468,1236.0383,-380.64032,0.0046175867,0.032258213,0.034938812,0.0,0.0,0.0
968.75574,433.30005,78027708,0.725,0.09574468,772.6471,-730.29565,0.0046175867,0.032258213,0.034938812,0.0,0.0,0.0
976.43054,415.64746,78027725,0.7375,0.12765957,351.3148,-1083.9993,0.0046175867,0.032258213,0.034938812,0.0,0.0,0.0
978.9143,401.67053,78027742,0.7625,0.09574468,69.55479,-1236.3818,0.0046175867,0.032258213,0.034938812,0.0,0.0,0.0
977.98926,391.66882,78027758,0.7375,0.09574468,-92.93999,-1041.7758,0.0046175867,0.032258213,0.034938812,0.0,0.0,0.0
975.09705,383.59705,78027775,0.75,0.09574468,-240.58339,-714.0734,0.0046175867,0.032258213,0.034938812,0.0,0.0,0.0
970.55225,377.60107,78027792,0.7625,0.08510638,-419.98737,-273.73575,0.0046175867,0.032258213,0.034938812,0.0,0.0,0.0
958.906,372.56494,78027808,0.7625,0.08510638,-655.9219,-141.94829,0.0046175867,0.032258213,0.034938812,0.0,0.0,0.0
946.1999,372.15918,78027825,0.7625,0.08510638,-893.33636,-46.344273,0.0046175867,0.032258213,0.034938812,0.0,0.0,0.0
938.44293,373.66235,78027842,0.7875,0.08510638,-904.4202,162.26024,0.0046175867,0.032258213,0.034938812,0.0,0.0,0.0
934.00116,377.10242,78027859,0.77500004,0.08510638,-577.0894,321.6549,0.0046175867,0.032258213,0.034938812,0.0,0.0,0.0
930.88293,383.09326,78027875,0.77500004,0.09574468,-159.56447,449.65765,0.0046175867,0.032258213,0.034938812,0.0,0.0,0.0
930.6418,390.5824,78027892,0.7625,0.12765957,111.11198,543.7634,0.0046175867,0.032258213,0.034938812,0.0,0.0,0.0
934.1959,396.17834,78027909,0.75,0.10638297,263.49698,533.2104,0.0036940724,0.009806573,0.05995083,3.355443E-6,0.0,0.0
944.2965,402.73914,78027925,0.75,0.10638297,528.1781,475.4493,0.0036940724,0.009806573,0.05995083,3.355443E-6,0.0,0.0
959.38794,406.08948,78027942,0.7375,0.12765957,948.5683,333.14658,0.0036940724,0.009806573,0.05995083,3.355443E-6,0.0,0.0
973.629,405.6726,78027959,0.75,0.12765957,1184.1499,85.22765,0.0036940724,0.009806573,0.05995083,3.355443E-6,0.0,0.0
990.4823,399.33545,78027976,0.75,0.09574468,1246.7052,-253.84589,0.0036940724,0.009806573,0.05995083,0.0,0.0,0.0
1003.8556,389.56946,78027992,0.7625,0.08510638,1113.2285,-636.6977,0.0036940724,0.009806573,0.05995083,0.0,0.0,0.0
1015.1382,376.16895,78028009,0.75,0.09574468,807.4666,-998.761,0.0036940724,0.009806573,0.05995083,0.0,0.0,0.0
1022.7954,364.27283,78028026,0.7375,0.12765957,571.33875,-1064.7089,0.0036940724,0.009806573,0.05995083,0.0,0.0,0.0
1027.4258,354.2063,78028042,0.75,0.11702127,231.75546,-883.4688,0.0036940724,0.009806573,0.05995083,0.0,0.0,0.0
1032.1904,342.39868,78028059,0.77500004,0.09574468,72.91271,-703.2657,0.0036940724,0.009806573,0.05995083,0.0,0.0,0.0
1033.6414,335.38306,78028076,0.7625,0.09574468,-7.0037165,-514.4322,0.0036940724,0.009806573,0.05995083,0.0,0.0,0.0
1033.2035,332.28662,78028093,0.77500004,0.09574468,-80.94789,-284.56067,0.0036940724,0.009806573,0.05995083,0.0,0.0,0.0
1032.158,330.4281,78028109,0.77500004,0.09574468,-155.6897,-45.46578,0.0036940724,0.009806573,0.05995083,0.0,0.0,0.0
1030.6095,329.5111,78028126,0.77500004,0.09574468,-208.71927,121.156944,0.0036940724,0.009806573,0.05995083,0.0,0.0,0.0
1029.5762,329.5111,78028143,0.77500004,0.09574468,-175.94417,153.6183,0.0036940724,0.009806573,0.05995083,0.0,0.0,0.0
1028.5371,331.66443,78028159,0.77500004,0.11702127,-105.53785,145.956,0.0036940724,0.009806573,0.05995083,0.0,0.0,0.0
1028.1432,337.187,78028176,0.77500004,0.12765957,-54.183086,285.38614,0.0036940724,0.009806573,0.05995083,0.0,0.0,0.0
1032.5435,347.42725,78028193,0.7625,0.11702127,102.73619,545.9627,0.0036940724,0.009806573,0.05995083,0.0,0.0,0.0
1038.115,354.45337,78028209,0.77500004,0.08510638,333.99304,670.72107,0.0036940724,0.009806573,0.05995083,0.0,0.0,0.0
1050.7306,370.9348,78028226,0.7375,0.08510638,680.8084,892.74176,0.0036940724,0.009806573,0.05995083,0.0,0.0,0.0
1062.7025,384.5166,78028243,0.7375,0.10638297,949.35657,1027.5337,0.0036940724,0.009806573,0.05995083,0.0,0.0,0.0
1075.7823,397.02576,78028260,0.725,0.12765957,1020.9254,1014.37164,0.0036940724,0.009806573,0.05995083,0.0,0.0,0.0
1084.6135,405.91235,78028276,0.725,0.10638297,851.86053,790.9942,0.0036940724,0.009806573,0.05995083,0.0,0.0,0.0
1091.585,413.28198,78028293,0.7375,0.08510638,510.3061,413.1072,0.0036940724,0.009806573,0.05995083,0.0,0.0,0.0
1096.3987,421.44153,78028310,0.7375,0.07446808,246.77301,266.54608,0.0036940724,0.009806573,0.05995083,0.0,0.0,0.0
1097.6205,430.78784,78028326,0.725,0.07446808,50.70447,384.75375,0.0036940724,0.009806573,0.05995083,0.0,0.0,0.0
1093.9441,437.27258,78028343,0.7375,0.09574468,-209.69672,440.26254,0.0036940724,0.009806573,0.05995083,0.0,0.0,0.0
1085.4072,442.77576,78028360,0.7375,0.10638297,-523.6754,397.23108,0.0036940724,0.009806573,0.05995083,0.0,0.0,0.0
1070.2247,447.21655,78028377,0.75,0.09574468,-932.2459,270.2234,0.0036940724,0.009806573,0.05995083,3.355443E-6,0.0,0.0
1053.3488,450.89758,78028393,0.7375,0.12765957,-1251.8484,153.23752,0.0036940724,0.009806573,0.05995083,3.355443E-6,0.0,0.0
1045.7859,451.23596,78028410,0.725,0.12765957,-1126.6272,54.99568,0.0036940724,0.009806573,0.05995083,3.355443E-6,0.0,0.0
1041.6388,451.23596,78028423,0.4,0.12765957,-833.4549,-26.808113,0.0036940724,0.009806573,0.05995083,3.355443E-6,0.0,0.0
1041.6388,451.23596,78028430,0.4,0.12765957,-833.4549,-26.808113,0.0036940724,0.009806573,0.05995083,3.355443E-6,0.0,0.0
