x,y,timestamp,pressure,fingerarea,velocityx,velocityy,accelx,accely,accelz,gyrox,gyroy,gyroz
195.9141,248.65723,12825209,0.71250004,0.12765957,0.0,0.0,0.004504394,-0.015772402,-0.04058075,0.0,0.0,0.0
195.9141,248.65723,12825224,0.75,0.12765957,-0.12782358,-0.14896078,0.004504394,-0.015772402,-0.04058075,0.0,0.0,0.0
195.9141,248.65723,12825241,0.77500004,0.09574468,-0.006524281,-0.0084961625,0.004504394,-0.015772402,-0.04058075,0.0,0.0,0.0
195.9141,248.65723,12825258,0.825,0.09574468,-0.007509261,-0.008000826,0.004504394,-0.015772402,-0.04058075,0.0,0.0,0.0
193.13943,258.1422,12825274,0.825,0.08510638,-76.41289,261.24103,0.004504394,-0.015772402,-0.04058075,0.0,0.0,0.0
186.41013,282.45178,12825291,0.825,0.10638297,-365.67563,1281.238,0.004504394,-0.015772402,-0.04058075,0.0,0.0,0.0
182.23203,303.85034,12825308,0.825,0.09574468,-428.18835,1686.6771,0.004504394,-0.015772402,-0.04058075,0.0,0.0,0.0
179.28447,327.72095,12825325,0.825,0.08510638,-387.8601,1994.1952,0.004504394,-0.015772402,-0.04058075,0.0,0.0,0.0
177.54692,350.57007,12825341,0.8125,0.10638297,-189.45651,1768.6562,0.004504394,-0.015772402,-0.04058075,0.0,0.0,0.0
177.33475,376.99133,12825358,0.8125,0.08510638,32.86897,1466.7253,0.004504394,-0.015772402,-0.04058075,0.0,0.0,0.0
177.8748,398.6598,12825375,0.825,0.10638297,77.80023,1553.6132,0.004504394,-0.015772402,-0.04058075,0.0,0.0,0.0
179.36067,423.17004,12825391,0.825,0.08510638,140.77567,1432.5709,0.004504394,-0.015772402,-0.04058075,0.0,0.0,0.0
180.98865,442.0199,12825408,0.8,0.10638297,164.21773,1295.8693,0.004504394,-0.015772402,-0.04058075,0.0,0.0,0.0
183.07214,457.66077,12825425,0.7875,0.09574468,172.90286,1021.37836,0.004504394,-0.015772402,-0.04058075,0.0,0.0,0.0
186.89288,470.27454,12825442,0.65000004,0.06382979,209.8518,732.8466,0.004504394,-0.015772402,-0.04058075,0.0,0.0,0.0
187.41685,471.67163,12825449,0.3,0.08510638,213.29712,575.59106,0.004504394,-0.015772402,-0.04058075,0.0,0.0,0.0
187.41685,471.67163,12825455,0.3,0.08510638,213.29712,575.59106,0.004504394,-0.015772402,-0.04058075,0.0,0.0,0.0
178.91962,253.98828,12825689,0.675,0.08510638,0.0,0.0,0.004504394,-0.015772402,-0.04058075,0.0,0.0,0.0
178.91962,253.98828,12825709,0.725,0.10638297,0.0460556,0.06455064,0.004504394,-0.015772402,-0.04058075,0.0,0.0,0.0
178.91962,253.98828,12825726,0.7625,0.10638297,-0.015494608,-0.024227925,-0.012396485,0.0033820719,-0.032464027,0.0,0.0,0.0
178.58948,242.25122,12825742,0.8125,0.09574468,-13.940923,-495.44113,-0.012396485,0.0033820719,-0.032464027,0.0,0.0,0.0
180.16252,228.24548,12825759,0.8125,0.08510638,43.061054,-1166.9613,-0.012396485,0.0033820719,-0.032464027,0.0,0.0,0.0
181.74464,224.0885,12825776,0.825,0.08510638,100.69755,-959.2904,-0.012396485,0.0033820719,-0.032464027,0.0,0.0,0.0
184.7661,221.20349,12825792,0.83750004,0.08510638,183.47981,-494.2119,-0.012396485,0.0033820719,-0.032464027,0.0,0.0,0.0
188.87897,221.9856,12825809,0.83750004,0.08510638,262.3301,9.522501,-0.012396485,0.0033820719,-0.032464027,0.0,0.0,0.0
193.54117,226.57935,12825826,0.83750004,0.12765957,320.65225,482.81738,-0.012396485,0.0033820719,-0.032464027,0.0,0.0,0.0
200.00638,237.2732,12825843,0.825,0.11702127,380.658,613.681,-0.012396485,0.0033820719,-0.032464027,0.0,0.0,0.0
209.37344,256.96997,12825859,0.825,0.08510638,529.1246,1100.8156,-0.012396485,0.0033820719,-0.032464027,0.0,0.0,0.0
215.53122,270.20093,12825876,0.8,0.09574468,563.9701,1350.3218,-0.012396485,0.0033820719,-0.032464027,0.0,0.0,0.0
226.11105,282.93103,12825893,0.8,0.10638297,590.8816,1188.5939,-0.012396485,0.0033820719,-0.032464027,0.0,0.0,0.0
238.63739,293.8153,12825909,0.7875,0.10638297,707.04736,781.8676,-0.012396485,0.0033820719,-0.032464027,0.0,0.0,0.0
250.31848,297.5249,12825926,0.77500004,0.11702127,801.1358,316.28238,-0.012396485,0.0033820719,-0.032464027,0.0,0.0,0.0
262.29816,294.0974,12825943,0.77500004,0.12765957,859.7393,-104.542534,-0.012396485,0.0033820719,-0.032464027,0.0,0.0,0.0
275.88644,284.33557,12825960,0.8,0.08510638,825.3638,-623.03784,-0.012396485,0.0033820719,-0.032464027,0.0,0.0,0.0
288.84167,268.48267,12825976,0.7875,0.08510638,770.2116,-1198.4941,-0.012396485,0.0033820719,-0.032464027,0.0,0.0,0.0
298.35406,253.14722,12825993,0.8,0.12765957,739.9982,-1395.7423,-0.012396485,0.0033820719,-0.032464027,0.0,0.0,0.0
306.50528,234.48022,12826010,0.8,0.09574468,540.77374,-1347.8679,-0.012396485,0.0033820719,-0.032464027,0.0,0.0,0.0
310.3983,222.82703,12826026,0.8125,0.09574468,275.1106,-1124.9574,-0.012396485,0.0033820719,-0.032464027,0.0,0.0,0.0
310.87665,219.25793,12826043,0.83750004,0.09574468,0.2020286,-588.3451,-0.012396485,0.0033820719,-0.032464027,0.0,0.0,0.0
311.3765,217.40906,12826060,0.83750004,0.09574468,-147.24084,-55.931843,-0.012396485,0.0033820719,-0.032464027,0.0,0.0,0.0
311.3765,217.5597,12826072,0.825,0.09574468,-184.79291,215.50705,-0.012396485,0.0033820719,-0.032464027,0.0,0.0,0.0
311.87634,222.43079,12826093,0.825,0.11702127,-126.31217,475.18964,-0.012396485,0.0033820719,-0.032464027,0.0,0.0,0.0
309.26828,233.77258,12826110,0.8125,0.12765957,-98.87575,626.27057,-0.012396485,0.0033820719,-0.032464027,0.0,0.0,0.0
305.93048,251.65442,12826127,0.825,0.08510638,-203.40933,1071.98,-0.012396485,0.0033820719,-0.032464027,0.0,0.0,0.0
303.30963,273.141,12826143,0.8125,0.08510638,-267.76312,1564.9772,-0.012396485,0.0033820719,-0.032464027,0.0,0.0,0.0
301.55664,291.4005,12826160,0.8,0.12765957,-230.25775,1606.2933,-0.012396485,0.0033820719,-0.032464027,0.0,0.0,0.0
299.31354,318.93005,12826177,0.825,0.08510638,-119.23375,1573.4397,-0.012396485,0.0033820719,-0.032464027,0.0,0.0,0.0
297.8809,343.9867,12826194,0.8,0.12765957,-77.58915,1657.7274,-0.012396485,0.0033820719,-0.032464027,0.0,0.0,0.0
296.88123,372.98462,12826210,0.8,0.08510638,-60.887985,1765.974,-0.012396485,0.0033820719,-0.032464027,0.0,0.0,0.0
296.88123,396.57178,12826227,0.8,0.10638297,-15.057574,1785.3027,-0.012396485,0.0033820719,-0.032464027,0.0,0.0,0.0
296.9063,420.76306,12826244,0.7875,0.08510638,29.238703,1520.252,-0.012396485,0.0033820719,-0.032464027,0.0,0.0,0.0
297.38104,439.66223,12826260,0.77500004,0.09574468,66.90713,1259.1296,-0.025917187,-0.013294339,0.038028717,0.0,0.0,0.0
299.70117,453.45496,12826277,0.7375,0.12765957,104.8498,926.5473,-0.025917187,-0.013294339,0.038028717,0.0,0.0,0.0
301.37976,460.1211,12826292,0.375,0.11702127,153.20842,539.15845,-0.025917187,-0.013294339,0.038028717,0.0,0.0,0.0
301.37976,460.1211,12826299,0.375,0.11702127,153.20842,539.15845,-0.025917187,-0.013294339,0.038028717,0.0,0.0,0.0
356.36185,373.04773,12826444,0.71250004,0.06382979,0.0,0.0,-0.025917187,-0.013294339,0.038028717,0.0,0.0,0.0
356.36185,373.04773,12826461,0.75,0.08510638,0.03608347,0.023032604,-0.025917187,-0.013294339,0.038028717,0.0,0.0,0.0
356.36185,373.04773,12826478,0.7875,0.08510638,-0.0022352764,-5.04243E-4,-0.025917187,-0.013294339,0.038028717,0.0,0.0,0.0
356.36185,373.04773,12826494,0.8125,0.08510638,0.0029228078,0.005974956,-0.025917187,-0.013294339,0.038028717,0.0,0.0,0.0
356.36185,373.04773,12826506,0.8,0.08510638,-0.017819853,-0.01688879,-0.025917187,-0.013294339,0.038028717,0.0,0.0,0.0
359.59918,396.6681,12826528,0.7875,0.12765957,110.33081,881.5444,-0.025917187,-0.013294339,0.038028717,0.0,0.0,0.0
364.2986,406.28577,12826545,0.7625,0.09574468,260.7891,1133.4899,-0.025917187,-0.013294339,0.038028717,0.0,0.0,0.0
370.8523,413.224,12826561,0.77500004,0.08510638,404.16714,890.6555,-0.025917187,-0.013294339,0.038028717,0.0,0.0,0.0
382.8265,417.15222,12826578,0.7625,0.08510638,651.8928,379.8313,-0.025917187,-0.013294339,0.038028717,0.0,0.0,0.0
396.49496,414.67908,12826595,0.7625,0.08510638,907.8225,-175.03836,-0.025917187,-0.013294339,0.038028717,0.0,0.0,0.0
409.2137,406.83582,12826611,0.75,0.12765957,1028.7021,-497.46942,-0.025917187,-0.013294339,0.038028717,0.0,0.0,0.0
415.5094,397.6294,12826628,0.7625,0.09574468,815.1741,-795.3876,-0.025917187,-0.013294339,0.038028717,0.0,0.0,0.0
422.23618,378.79553,12826645,0.7875,0.09574468,440.76938,-1163.6727,-0.025917187,-0.013294339,0.038028717,0.0,0.0,0.0
421.8228,366.63928,12826661,0.7625,0.11702127,20.259514,-1193.01,-0.025917187,-0.013294339,0.038028717,0.0,0.0,0.0
419.1704,361.29468,12826678,0.8,0.12765957,-274.4005,-826.78314,-0.025917187,-0.013294339,0.038028717,0.0,0.0,0.0
411.53784,356.69666,12826695,0.8,0.10638297,-533.87885,-363.51038,-0.025917187,-0.013294339,0.038028717,0.0,0.0,0.0
398.48892,356.16614,12826712,0.8,0.12765957,-839.252,74.76091,-0.025917187,-0.013294339,0.038028717,0.0,0.0,0.0
385.02374,359.52136,12826728,0.8125,0.11702127,-1064.3877,356.58017,-0.025917187,-0.013294339,0.038028717,0.0,0.0,0.0
374.47992,369.42114,12826745,0.8125,0.09574468,-1030.1771,566.4783,-0.025917187,-0.013294339,0.038028717,0.0,0.0,0.0
365.18524,384.01855,12826762,0.8125,0.10638297,-740.8233,936.77515,-0.025917187,-0.013294339,0.038028717,0.0,0.0,0.0
357.70023,404.4889,12826778,0.8,0.10638297,-483.47516,1368.0848,-0.025917187,-0.013294339,0.038028717,0.0,0.0,0.0
355.5416,426.40356,12826795,0.8125,0.08510638,-190.43393,1621.8566,-0.0047337487,-0.010635465,0.01442337,0.0,0.0,0.0
357.10486,444.0802,12826812,0.8,0.10638297,104.18057,1553.5889,-0.0047337487,-0.010635465,0.01442337,0.0,0.0,0.0
360.44833,457.24536,12826829,0.7875,0.10638297,365.08212,1131.7593,-0.0047337487,-0.010635465,0.01442337,0.0,0.0,0.0
365.1541,468.6421,12826845,0.7875,0.09574468,511.68942,701.35645,-0.0047337487,-0.010635465,0.01442337,0.0,0.0,0.0
372.75027,473.4109,12826862,0.7625,0.08510638,525.569,299.69394,-0.0047337487,-0.010635465,0.01442337,0.0,0.0,0.0
392.54123,466.83838,12826879,0.5375,0.10638297,910.533,-241.70314,-0.0047337487,-0.010635465,0.01442337,0.0,0.0,0.0
405.34592,455.67847,12826886,0.275,0.11702127,1166.0745,-587.9305,-0.0047337487,-0.010635465,0.01442337,0.0,0.0,0.0
405.34592,455.67847,12826894,0.275,0.11702127,1166.0745,-587.9305,-0.0047337487,-0.010635465,0.01442337,0.0,0.0,0.0
425.3394,191.79309,12827095,0.8125,0.12765957,0.0,0.0,-0.0047337487,-0.010635465,0.01442337,0.0,0.0,0.0
425.3394,191.79309,12827113,0.83750004,0.12765957,0.41870317,0.19059153,-0.0047337487,-0.010635465,0.01442337,0.0,0.0,0.0
425.3394,191.79309,12827129,0.8625,0.12765957,0.0045821224,8.30079E-4,-0.0047337487,-0.010635465,0.01442337,0.0,0.0,0.0
414.95096,212.56116,12827163,0.83750004,0.10638297,-410.83923,802.7541,-0.0047337487,-0.010635465,0.01442337,0.0,0.0,0.0
409.85593,233.84363,12827180,0.8,0.10638297,-542.02057,1417.0122,-0.0047337487,-0.010635465,0.01442337,0.0,0.0,0.0
407.8451,259.1621,12827196,0.7375,0.08510638,-390.18835,1968.7303,-0.0047337487,-0.010635465,0.01442337,0.0,0.0,0.0
407.8451,267.3158,12827208,0.25,0.12765957,-255.05655,1904.8973,-0.0047337487,-0.010635465,0.01442337,0.0,0.0,0.0
407.8451,267.3158,12827215,0.25,0.12765957,-255.05655,1904.8973,-0.0047337487,-0.010635465,0.01442337,0.0,0.0,0.0
421.3407,477.00256,12827473,0.675,0.08510638,0.0,0.0,-0.003786996,-0.008508384,0.011538506,0.0,0.0,0.0
421.3407,477.00256,12827497,0.725,0.09574468,0.009616056,0.008337206,-0.003786996,-0.008508384,0.011538506,0.0,0.0,0.0
421.3407,477.00256,12827510,0.75,0.11702127,0.0037496511,0.00324367,-0.003786996,-0.008508384,0.011538506,0.0,0.0,0.0
421.3407,477.00256,12827529,0.7625,0.12765957,-0.015409348,-0.017249998,-0.003786996,-0.008508384,0.011538506,0.0,0.0,0.0
432.83884,462.71594,12827547,0.77500004,0.09574468,407.17224,-506.22964,-0.003786996,-0.008508384,0.011538506,0.0,0.0,0.0
445.06445,445.77344,12827564,0.77500004,0.08510638,801.53107,-1040.7594,-0.003786996,-0.008508384,0.011538506,0.0,0.0,0.0
455.56543,428.60437,12827581,0.7875,0.10638297,1018.9111,-1460.615,-0.003786996,-0.008508384,0.011538506,0.0,0.0,0.0
465.74512,407.47144,12827597,0.77500004,0.12765957,927.0907,-1585.2881,-0.003786996,-0.008508384,0.011538506,0.0,0.0,0.0
470.65454,389.45605,12827614,0.7625,0.08510638,518.85236,-1373.0663,-0.003786996,-0.008508384,0.011538506,0.0,0.0,0.0
473.11597,372.96777,12827631,0.7875,0.09574468,88.42398,-1082.6602,-0.003786996,-0.008508384,0.011538506,0.0,0.0,0.0
472.96973,363.4225,12827648,0.7875,0.10638297,-94.38137,-828.30756,-0.003786996,-0.008508384,0.011538506,0.0,0.0,0.0
471.4309,358.32178,12827664,0.7875,0.12765957,-267.16437,-344.35117,-0.003786996,-0.008508384,0.011538506,0.0,0.0,0.0
470.40472,356.30823,12827681,0.7875,0.12765957,-266.47046,65.48132,-0.003786996,-0.008508384,0.011538506,0.0,0.0,0.0
469.3518,354.43677,12827698,0.7875,0.12765957,-188.69215,230.20688,-0.003786996,-0.008508384,0.011538506,0.0,0.0,0.0
469.32507,354.38916,12827714,0.7875,0.10638297,-75.12959,182.86906,-0.003786996,-0.008508384,0.011538506,0.0,0.0,0.0
469.85278,354.38916,12827731,0.7875,0.11702127,18.797699,114.429474,-0.003786996,-0.008508384,0.011538506,0.0,0.0,0.0
472.61267,357.3966,12827748,0.77500004,0.09574468,120.93089,152.93816,-0.003786996,-0.008508384,0.011538506,0.0,0.0,0.0
478.58325,365.1289,12827764,0.7875,0.08510638,280.98648,345.33078,-0.003786996,-0.008508384,0.011538506,0.0,0.0,0.0
490.0824,377.4734,12827781,0.7875,0.08510638,573.5778,686.40295,-0.003786996,-0.008508384,0.011538506,0.0,0.0,0.0
506.80908,389.26038,12827798,0.77500004,0.09574468,969.75574,931.2702,-0.003786996,-0.008508384,0.011538506,0.0,0.0,0.0
522.10956,399.5619,12827814,0.75,0.12765957,1246.2212,954.38965,-0.003786996,-0.008508384,0.011538506,0.0,0.0,0.0
533.27106,409.68652,12827831,0.77500004,0.08510638,1138.6814,774.29236,-0.003786996,-0.008508384,0.011538506,0.0,0.0,0.0
542.7931,420.79407,12827848,0.7375,0.08510638,807.36914,627.7731,-0.003786996,-0.008508384,0.011538506,0.0,0.0,0.0
550.04065,430.6112,12827864,0.75,0.08510638,381.28937,596.49414,0.012970403,0.009193286,0.009230614,0.0,0.0,0.0
555.4448,442.1963,12827881,0.75,0.09574468,213.45767,648.69275,0.012970403,0.009193286,0.009230614,0.0,0.0,0.0
556.7966,448.1764,12827898,0.7625,0.10638297,81.93049,552.8485,0.012970403,0.009193286,0.009230614,0.0,0.0,0.0
554.39545,453.7273,12827915,0.77500004,0.12765957,-157.9472,334.76248,0.012970403,0.009193286,0.009230614,0.0,0.0,0.0
550.2536,457.48767,12827931,0.75,0.10638297,-372.65237,167.41579,0.012970403,0.009193286,0.009230614,0.0,0.0,0.0
544.00525,461.18457,12827948,0.75,0.09574468,-525.8887,88.69358,0.012970403,0.009193286,0.009230614,0.0,0.0,0.0
537.3029,464.5636,12827963,0.625,0.08510638,-609.6929,74.35538,0.012970403,0.009193286,0.009230614,0.0,0.0,0.0
537.3029,464.5636,12827971,0.625,0.08510638,-609.6929,74.35538,0.012970403,0.009193286,0.009230614,0.0,0.0,0.0
516.80963,353.5006,12828132,0.71250004,0.10638297,0.0,0.0,0.012970403,0.009193286,0.009230614,0.0,0.0,0.0
516.80963,353.5006,12828148,0.75,0.10638297,-4.0680847,-2.7590349,0.012970403,0.009193286,0.009230614,0.0,0.0,0.0
516.80963,353.5006,12828165,0.7625,0.08510638,0.013783636,0.0075775264,0.012970403,0.009193286,0.009230614,0.0,0.0,0.0
514.7048,330.86426,12828182,0.77500004,0.08510638,-134.5745,-1441.2904,0.012970403,0.009193286,0.009230614,0.0,0.0,0.0
518.35034,321.68176,12828199,0.77500004,0.08510638,90.06932,-1208.5271,0.012970403,0.009193286,0.009230614,0.0,0.0,0.0
524.55896,314.91223,12828215,0.7875,0.11702127,319.80823,-845.6393,0.012970403,0.009193286,0.009230614,0.0,0.0,0.0
542.3129,310.85254,12828232,0.7875,0.10638297,753.1201,-553.07526,0.012970403,0.009193286,0.009230614,0.0,0.0,0.0
566.1976,314.9159,12828249,0.7875,0.08510638,1509.7524,239.05685,0.012970403,0.009193286,0.009230614,0.0,0.0,0.0
586.1015,326.81433,12828265,0.75,0.09574468,1769.8085,663.27954,0.012970403,0.009193286,0.009230614,0.0,0.0,0.0
604.31464,341.38953,12828282,0.75,0.10638297,1604.9393,1143.3232,0.012970403,0.009193286,0.009230614,0.0,0.0,0.0
616.615,356.10742,12828299,0.7625,0.08510638,1064.647,1351.623,0.012970403,0.009193286,0.009230614,0.0,0.0,0.0
627.2629,380.57117,12828316,0.7625,0.08510638,572.66205,1501.1991,0.012970403,0.009193286,0.009230614,0.0,0.0,0.0
629.273,399.64,12828332,0.7375,0.12765957,181.63551,1480.2518,0.012970403,0.009193286,0.009230614,0.0,0.0,0.0
624.3188,420.88123,12828349,0.75,0.08510638,-291.7774,1436.4677,0.012970403,0.009193286,0.009230614,0.0,0.0,0.0
615.50336,435.54736,12828366,0.7375,0.09574468,-753.37286,1210.6022,0.012970403,0.009193286,0.009230614,0.0,0.0,0.0
601.8699,449.516,12828382,0.725,0.12765957,-1086.8513,858.8739,0.012970403,0.009193286,0.009230614,0.0,0.0,0.0
591.0964,457.4121,12828399,0.75,0.10638297,-1116.6627,506.51614,-0.021623679,-0.008645356,-0.024615288,0.0,0.0,0.0
581.911,460.1211,12828416,0.75,0.10638297,-896.19604,149.16379,-0.021623679,-0.008645356,-0.024615288,0.0,0.0,0.0
577.4184,457.35376,12828433,0.7625,0.10638297,-524.58234,-238.29985,-0.021623679,-0.008645356,-0.024615288,0.0,0.0,0.0
577.70544,447.9817,12828449,0.75,0.08510638,-25.760632,-633.4074,-0.021623679,-0.008645356,-0.024615288,0.0,0.0,0.0
584.23413,435.87756,12828466,0.7625,0.09574468,391.4615,-993.1166,-0.021623679,-0.008645356,-0.024615288,0.0,0.0,0.0
599.46216,422.76233,12828483,0.77500004,0.09574468,915.4729,-1148.538,-0.021623679,-0.008645356,-0.024615288,0.0,0.0,0.0
618.0347,418.36133,12828499,0.77500004,0.09574468,1372.6528,-867.7069,-0.021623679,-0.008645356,-0.024615288,0.0,0.0,0.0
632.94025,422.9037,12828516,0.7625,0.09574468,1491.2191,-141.61351,-0.021623679,-0.008645356,-0.024615288,0.0,0.0,0.0
648.52014,435.91223,12828533,0.7625,0.08510638,1248.4534,726.66174,-0.021623679,-0.008645356,-0.024615288,0.0,0.0,0.0
665.7274,450.7339,12828549,0.7625,0.10638297,1030.2207,1324.0208,-0.021623679,-0.008645356,-0.024615288,0.0,0.0,0.0
681.40283,463.80542,12828566,0.725,0.09574468,945.21454,1356.2438,-0.021623679,-0.008645356,-0.024615288,0.0,0.0,0.0
692.7791,473.87415,12828583,0.725,0.08510638,837.9988,1031.5748,-0.021623679,-0.008645356,-0.024615288,0.0,0.0,0.0
701.4966,479.11157,12828600,0.7,0.07446808,617.8882,553.7808,-0.021623679,-0.008645356,-0.024615288,0.0,0.0,0.0
706.2722,478.54675,12828616,0.58750004,0.08510638,275.03647,40.62413,-0.021623679,-0.008645356,-0.024615288,0.0,0.0,0.0
706.7478,476.11414,12828623,0.275,0.12765957,132.65338,-164.35274,-0.021623679,-0.008645356,-0.024615288,0.0,0.0,0.0
706.7478,476.11414,12828630,0.275,0.12765957,132.65338,-164.35274,-0.021623679,-0.008645356,-0.024615288,0.0,0.0,0.0
609.27954,387.2638,12828735,0.725,0.08510638,0.0,0.0,-0.021623679,-0.008645356,-0.024615288,0.0,0.0,0.0
609.27954,387.2638,12828767,0.7625,0.08510638,-0.0077786455,-0.0077119963,-0.021623679,-0.008645356,-0.024615288,0.0,0.0,0.0
609.27954,387.2638,12828779,0.7875,0.08510638,0.021485878,0.0146793015,-0.021623679,-0.008645356,-0.024615288,0.0,0.0,0.0
633.7829,390.93005,12828800,0.7875,0.11702127,1168.5936,177.8099,-0.021623679,-0.008645356,-0.024615288,0.0,0.0,0.0
655.34393,392.77087,12828817,0.7625,0.09574468,1581.3615,186.12448,-0.021623679,-0.008645356,-0.024615288,0.0,0.0,0.0
680.4173,392.59485,12828834,0.65000004,0.10638297,1872.3835,118.311325,-0.021623679,-0.008645356,-0.024615288,0.0,0.0,0.0
691.2528,388.15222,12828840,0.32500002,0.09574468,1987.768,-22.230871,-0.021623679,-0.008645356,-0.024615288,0.0,0.0,0.0
691.2528,388.15222,12828847,0.32500002,0.09574468,1987.768,-22.230871,-0.021623679,-0.008645356,-0.024615288,0.0,0.0,0.0
799.7175,397.03735,12829032,0.6875,0.10638297,0.0,0.0,-0.0012989417,0.025083706,0.012308121,0.0,0.0,0.0
799.7175,397.03735,12829051,0.71250004,0.10638297,-0.01861548,-0.01733009,-0.0012989417,0.025083706,0.012308121,0.0,0.0,0.0
799.7175,397.03735,12829067,0.75,0.08510638,-0.0021270572,-0.0035094256,-0.0012989417,0.025083706,0.012308121,0.0,0.0,0.0
799.7175,397.03735,12829084,0.7625,0.08510638,0.025432197,0.011195452,-0.0012989417,0.025083706,0.012308121,0.0,0.0,0.0
792.8572,379.10718,12829101,0.75,0.08510638,-289.06873,-784.9135,-0.0012989417,0.025083706,0.012308121,0.0,0.0,0.0
782.3623,371.3872,12829118,0.75,0.08510638,-582.4709,-973.96295,-0.0012989417,0.025083706,0.012308121,0.0,0.0,0.0
764.76404,367.09326,12829134,0.75,0.09574468,-1077.5839,-810.7335,-0.0012989417,0.025083706,0.012308121,0.0,0.0,0.0
743.032,368.13208,12829151,0.75,0.08510638,-1483.5255,-307.73853,-0.0012989417,0.025083706,0.012308121,0.0,0.0,0.0
722.05145,373.5487,12829168,0.7625,0.08510638,-1667.8538,405.82236,-0.0012989417,0.025083706,0.012308121,0.0,0.0,0.0
709.59784,380.8175,12829184,0.7625,0.09574468,-1371.7277,766.3843,-0.0012989417,0.025083706,0.012308121,0.0,0.0,0.0
700.7058,388.19128,12829201,0.7625,0.12765957,-731.0806,715.8786,-0.0012989417,0.025083706,0.012308121,0.0,0.0,0.0
693.4667,402.07166,12829218,0.7625,0.10638297,-274.3951,828.0365,-0.0012989417,0.025083706,0.012308121,0.0,0.0,0.0
692.2525,417.11877,12829235,0.75,0.09574468,49.21279,958.03845,-0.0012989417,0.025083706,0.012308121,0.0,0.0,0.0
695.8247,432.58337,12829251,0.75,0.09574468,287.047,1100.7476,-0.0012989417,0.025083706,0.012308121,0.0,0.0,0.0
700.9631,437.23865,12829268,0.75,0.10638297,474.387,832.8805,-0.0012989417,0.025083706,0.012308121,0.0,0.0,0.0
716.33325,442.35095,12829285,0.75,0.09574468,860.8473,422.52374,-0.0012989417,0.025083706,0.012308121,0.0,0.0,0.0
732.55884,438.87708,12829301,0.75,0.08510638,1218.8912,-177.11844,-0.0012989417,0.025083706,0.012308121,0.0,0.0,0.0
748.7803,427.64966,12829318,0.7375,0.09574468,1337.8645,-709.8423,-0.0012989417,0.025083706,0.012308121,0.0,0.0,0.0
764.4701,412.83508,12829335,0.75,0.12765957,1253.0725,-1120.8123,-0.0012989417,0.025083706,0.012308121,0.0,0.0,0.0
773.3762,400.3246,12829352,0.77500004,0.08510638,848.2543,-1315.1204,-0.0012989417,0.025083706,0.012308121,0.0,0.0,0.0
778.88574,381.55957,12829368,0.7625,0.08510638,392.0882,-1277.0558,-0.0012989417,0.025083706,0.012308121,0.0,0.0,0.0
779.724,373.37585,12829385,0.7875,0.08510638,5.596125,-981.11865,-0.0012989417,0.025083706,0.012308121,0.0,0.0,0.0
778.74854,370.42517,12829402,0.7875,0.08510638,-297.55908,-449.23947,-0.0012989417,0.025083706,0.012308121,0.0,0.0,0.0
776.68353,369.49365,12829418,0.77500004,0.08510638,-358.13907,41.02313,-0.0012989417,0.025083706,0.012308121,0.0,0.0,0.0
770.7247,378.3828,12829435,0.77500004,0.10638297,-411.13168,535.6055,-0.0012989417,0.025083706,0.012308121,0.0,0.0,0.0
763.70544,399.9734,12829452,0.7625,0.11702127,-524.216,1216.3544,-0.0012989417,0.025083706,0.012308121,0.0,0.0,0.0
760.9533,431.4276,12829469,0.75,0.09574468,-458.98718,1943.3048,0.014960848,-0.011933029,-0.0061540604,0.0,0.0,0.0
764.9265,449.83386,12829485,0.75,0.12765957,-136.85434,2153.3745,0.014960848,-0.011933029,-0.0061540604,0.0,0.0,0.0
772.70593,465.5531,12829502,0.7375,0.08510638,373.26093,1749.7402,0.014960848,-0.011933029,-0.0061540604,0.0,0.0,0.0
786.24506,477.01807,12829519,0.6875,0.06382979,937.73376,736.1649,0.014960848,-0.011933029,-0.0061540604,0.0,0.0,0.0
808.9354,480.37634,12829535,0.55,0.08510638,1355.9706,156.13275,0.014960848,-0.011933029,-0.0061540604,0.0,0.0,0.0
814.71265,479.6681,12829539,0.175,0.08510638,1468.0308,61.184708,0.014960848,-0.011933029,-0.0061540604,0.0,0.0,0.0
814.71265,479.6681,12829546,0.175,0.08510638,1468.0308,61.184708,0.014960848,-0.011933029,-0.0061540604,0.0,0.0,0.0
726.7413,221.11365,12829804,0.7625,0.08510638,0.0,0.0,0.014960848,-0.011933029,-0.0061540604,0.0,0.0,0.0
726.7413,221.11365,12829836,0.8,0.09574468,-0.02967182,-0.007957381,0.014960848,-0.011933029,-0.0061540604,0.0,0.0,0.0
726.24146,251.22937,12829870,0.77500004,0.08510638,-22.488737,1245.4843,0.014960848,-0.011933029,-0.0061540604,0.0,0.0,0.0
730.3575,278.60376,12829886,0.71250004,0.09574468,133.52257,1882.2698,0.014960848,-0.011933029,-0.0061540604,0.0,0.0,0.0
732.2395,288.6399,12829892,0.52500004,0.10638297,195.0118,2020.0446,0.014960848,-0.011933029,-0.0061540604,0.0,0.0,0.0
732.2395,288.6399,12829900,0.52500004,0.10638297,195.0118,2020.0446,0.014960848,-0.011933029,-0.0061540604,0.0,0.0,0.0
784.22253,471.67163,12830183,0.7,0.08510638,0.0,0.0,-0.004031323,0.0064535737,0.011076927,0.0,0.0,0.0
784.22253,471.67163,12830204,0.71250004,0.09574468,-0.032628246,-0.015283035,-0.004031323,0.0064535737,0.011076927,0.0,0.0,0.0
784.22253,471.67163,12830221,0.7375,0.10638297,-0.022107463,-0.010888041,-0.004031323,0.0064535737,0.011076927,0.0,0.0,0.0
784.22253,471.67163,12830237,0.7375,0.12765957,-0.010610804,-0.005285272,-0.004031323,0.0064535737,0.011076927,0.0,0.0,0.0
807.83795,444.40833,12830254,0.75,0.08510638,952.796,-1086.7112,-0.004031323,0.0064535737,0.011076927,0.0,0.0,0.0
819.91986,426.781,12830271,0.75,0.08510638,1258.4288,-1563.3644,-0.004031323,0.0064535737,0.011076927,0.0,0.0,0.0
829.34863,410.11487,12830288,0.7625,0.09574468,1100.1238,-1601.2242,-0.004031323,0.0064535737,0.011076927,0.0,0.0,0.0
838.5569,384.1317,12830304,0.7625,0.08510638,815.79553,-1655.3441,-0.004031323,0.0064535737,0.011076927,0.0,0.0,0.0
839.7045,367.97925,12830321,0.7625,0.09574468,211.71909,-1311.6627,-0.004031323,0.0064535737,0.011076927,0.0,0.0,0.0
835.5553,355.43616,12830338,0.7625,0.10638297,-306.80225,-925.5959,-0.004031323,0.0064535737,0.011076927,0.0,0.0,0.0
830.3102,344.79785,12830354,0.7625,0.08510638,-530.8614,-695.2917,-0.004031323,0.0064535737,0.011076927,0.0,0.0,0.0
827.5954,339.97217,12830371,0.77500004,0.08510638,-601.9464,-252.67236,-0.004031323,0.0064535737,0.011076927,0.0,0.0,0.0
824.2062,333.50037,12830388,0.7625,0.08510638,-360.02426,-115.60696,-0.004031323,0.0064535737,0.011076927,0.0,0.0,0.0
823.20984,328.985,12830405,0.77500004,0.08510638,-135.33746,-121.90109,-0.004031323,0.0064535737,0.011076927,0.0,0.0,0.0
828.23584,326.2478,12830421,0.75,0.08510638,128.7456,-102.31999,-0.004031323,0.0064535737,0.011076927,0.0,0.0,0.0
842.6984,325.95703,12830438,0.77500004,0.08510638,632.48895,-43.604954,-0.004031323,0.0064535737,0.011076927,0.0,0.0,0.0
858.10284,328.323,12830455,0.7625,0.09574468,1169.3906,149.13719,-0.004031323,0.0064535737,0.011076927,0.0,0.0,0.0
868.2862,332.015,12830471,0.7625,0.08510638,1252.6963,320.83786,-0.004031323,0.0064535737,0.011076927,0.0,0.0,0.0
876.16376,335.7135,12830488,0.7625,0.10638297,887.6595,377.90054,-0.004031323,0.0064535737,0.011076927,0.0,0.0,0.0
879.80334,339.4171,12830505,0.77500004,0.10638297,307.89755,346.56482,-0.004031323,0.0064535737,0.011076927,0.0,0.0,0.0
882.84894,350.79163,12830522,0.77500004,0.09574468,-2.7100108,492.89972,0.012774941,0.021162853,-0.007139206,0.0,0.0,0.0
880.3432,361.84558,12830538,0.77500004,0.08510638,-186.38428,698.778,0.012774941,0.021162853,-0.007139206,0.0,0.0,0.0
874.75397,376.16138,12830555,0.7625,0.08510638,-388.87863,925.2319,0.012774941,0.021162853,-0.007139206,0.0,0.0,0.0
869.4174,390.0266,12830572,0.7875,0.12765957,-541.8049,1044.9089,0.012774941,0.021162853,-0.007139206,0.0,0.0,0.0
865.48596,404.00366,12830589,0.7625,0.11702127,-502.75262,971.29236,0.012774941,0.021162853,-0.007139206,0.0,0.0,0.0
863.42017,419.62842,12830605,0.77500004,0.09574468,-279.0803,948.7942,0.012774941,0.021162853,-0.007139206,0.0,0.0,0.0
863.51715,433.32764,12830622,0.7625,0.09574468,-28.51337,911.62305,0.012774941,0.021162853,-0.007139206,0.0,0.0,0.0
865.7496,442.18164,12830639,0.7625,0.11702127,170.56033,716.00256,0.012774941,0.021162853,-0.007139206,0.0,0.0,0.0
870.5933,447.59216,12830655,0.725,0.12765957,307.53363,448.02374,0.012774941,0.021162853,-0.007139206,0.0,0.0,0.0
881.64984,453.58105,12830672,0.5125,0.08510638,598.121,200.41943,0.012774941,0.021162853,-0.007139206,0.0,0.0,0.0
882.1907,453.9015,12830673,0.2375,0.10638297,636.63574,172.81938,0.012774941,0.021162853,-0.007139206,0.0,0.0,0.0
882.1907,453.9015,12830681,0.2375,0.10638297,636.63574,172.81938,0.012774941,0.021162853,-0.007139206,0.0,0.0,0.0
1009.1493,370.3822,12830826,0.6625,0.08510638,0.0,0.0,0.012774941,0.021162853,-0.007139206,0.0,0.0,0.0
1009.1493,370.3822,12830856,0.71250004,0.09574468,0.05984002,0.021350497,0.012774941,0.021162853,-0.007139206,0.0,0.0,0.0
1009.1493,370.3822,12830872,0.7375,0.10638297,0.074106246,0.028822437,0.012774941,0.021162853,-0.007139206,0.0,0.0,0.0
995.2449,365.43884,12830889,0.75,0.10638297,-623.9616,-221.8303,0.012774941,0.021162853,-0.007139206,0.0,0.0,0.0
980.7075,364.98608,12830906,0.7375,0.11702127,-1056.6073,-239.81154,0.012774941,0.021162853,-0.007139206,0.0,0.0,0.0
965.6476,372.16797,12830922,0.7625,0.08510638,-1218.426,89.48967,0.012774941,0.021162853,-0.007139206,0.0,0.0,0.0
950.0776,381.41943,12830939,0.7375,0.08510638,-1274.901,522.2562,0.012774941,0.021162853,-0.007139206,0.0,0.0,0.0
937.8259,389.64258,12830956,0.7625,0.12765957,-1022.0814,802.7896,0.012774941,0.021162853,-0.007139206,0.0,0.0,0.0
929.6498,398.17615,12830972,0.75,0.12765957,-629.19244,793.9899,0.012774941,0.021162853,-0.007139206,0.0,0.0,0.0
923.6091,406.61548,12830989,0.7875,0.09574468,-352.39325,608.4192,0.012774941,0.021162853,-0.007139206,0.0,0.0,0.0
915.82336,427.1139,12831006,0.75,0.09574468,-232.59029,840.4273,0.012774941,0.021162853,-0.007139206,0.0,0.0,0.0
914.9169,440.43347,12831023,0.75,0.11702127,-126.83583,1114.5967,0.012774941,0.021162853,-0.007139206,0.0,0.0,0.0
917.0093,447.77673,12831039,0.7375,0.12765957,86.68178,928.7272,0.012774941,0.021162853,-0.007139206,0.0,0.0,0.0
924.4759,454.72095,12831056,0.725,0.10638297,438.1919,457.78574,-0.0057800487,9.302795E-4,-0.02171135,0.0,0.0,0.0
942.5948,460.74023,12831073,0.7375,0.09574468,1010.9106,118.18186,-0.0057800487,9.302795E-4,-0.02171135,0.0,0.0,0.0
959.5259,458.76025,12831089,0.725,0.12765957,1386.0767,-50.21014,-0.0057800487,9.302795E-4,-0.02171135,0.0,0.0,0.0
975.1476,451.83582,12831106,0.725,0.10638297,1439.7314,-342.89212,-0.0057800487,9.302795E-4,-0.02171135,0.0,0.0,0.0
988.365,439.14185,12831123,0.7375,0.08510638,1184.1194,-801.3679,-0.0057800487,9.302795E-4,-0.02171135,0.0,0.0,0.0
999.31726,424.35327,12831140,0.7375,0.12765957,730.9733,-1181.1626,-0.0057800487,9.302795E-4,-0.02171135,0.0,0.0,0.0
1006.5249,411.47583,12831156,0.7625,0.10638297,426.44113,-1181.2411,-0.0057800487,9.302795E-4,-0.02171135,0.0,0.0,0.0
1015.20374,389.17017,12831173,0.7625,0.08510638,348.95822,-1294.8484,-0.0057800487,9.302795E-4,-0.02171135,0.0,0.0,0.0
1016.9308,374.83508,12831190,0.75,0.08510638,159.4268,-1213.084,-0.0057800487,9.302795E-4,-0.02171135,0.0,0.0,0.0
1017.1467,365.75647,12831206,0.75,0.10638297,-37.046608,-875.2951,-0.0057800487,9.302795E-4,-0.02171135,0.0,0.0,0.0
1015.2302,361.6444,12831223,0.75,0.12765957,-225.47838,-418.5135,-0.0057800487,9.302795E-4,-0.02171135,0.0,0.0,0.0
1012.2739,358.52087,12831240,0.7625,0.12765957,-341.67294,64.9018,-0.0057800487,9.302795E-4,-0.02171135,0.0,0.0,0.0
1005.9656,357.0547,12831257,0.7625,0.10638297,-399.82196,124.2217,-0.0057800487,9.302795E-4,-0.02171135,0.0,0.0,0.0
1000.00146,357.0547,12831273,0.7625,0.12765957,-487.71106,134.4623,-0.0057800487,9.302795E-4,-0.02171135,0.0,0.0,0.0
996.0603,358.5907,12831290,0.77500004,0.10638297,-438.75974,172.09442,-0.0057800487,9.302795E-4,-0.02171135,0.0,0.0,0.0
993.8468,360.2666,12831307,0.7625,0.10638297,-265.06067,195.4755,-0.0057800487,9.302795E-4,-0.02171135,0.0,0.0,0.0
993.5996,364.75867,12831323,0.77500004,0.08510638,-41.646236,260.4104,-0.0057800487,9.302795E-4,-0.02171135,0.0,0.0,0.0
996.59973,368.53357,12831340,0.7625,0.08510638,169.30832,309.6443,-0.0057800487,9.302795E-4,-0.02171135,0.0,0.0,0.0
1005.93494,375.9154,12831357,0.77500004,0.08510638,478.46356,420.23114,-0.0057800487,9.302795E-4,-0.02171135,0.0,0.0,0.0
1016.68066,382.54504,12831374,0.75,0.09574468,747.40643,481.7765,-0.0057800487,9.302795E-4,-0.02171135,0.0,0.0,0.0
1026.2603,385.88367,12831390,0.7625,0.10638297,878.36646,409.6742,-0.0057800487,9.302795E-4,-0.02171135,0.0,0.0,0.0
1036.9832,387.40002,12831407,0.7625,0.09574468,837.1258,213.27669,-0.0057800487,9.302795E-4,-0.02171135,0.0,0.0,0.0
1051.1746,387.2638,12831424,0.7625,0.08510638,838.51587,-2.374636,-0.0057800487,9.302795E-4,-0.02171135,0.0,0.0,0.0
1062.2811,382.5641,12831440,0.75,0.08510638,807.3381,-271.203,-0.0057800487,9.302795E-4,-0.02171135,0.0,0.0,0.0
1071.3412,376.6316,12831457,0.77500004,0.09574468,697.3303,-451.9447,-0.0057800487,9.302795E-4,-0.02171135,0.0,0.0,0.0
1079.3125,369.1632,12831474,0.7625,0.11702127,524.56177,-579.1568,-0.0057800487,9.302795E-4,-0.02171135,0.0,0.0,0.0
1084.3175,362.6449,12831490,0.75,0.12765957,259.056,-584.2039,-0.0057800487,9.302795E-4,-0.02171135,0.0,0.0,0.0
1088.6984,356.03296,12831507,0.7625,0.12765957,156.57335,-496.64056,-0.0057800487,9.302795E-4,-0.02171135,0.0,0.0,0.0
1091.3119,349.79407,12831524,0.7625,0.10638297,73.45025,-400.34543,-0.0057800487,9.302795E-4,-0.02171135,0.0,0.0,0.0
1093.0676,343.12842,12831541,0.75,0.10638297,27.309418,-369.93463,-0.0057800487,9.302795E-4,-0.02171135,0.0,0.0,0.0
1092.1285,336.64136,12831557,0.7625,0.08510638,-41.56952,-376.0839,-0.0057800487,9.302795E-4,-0.02171135,0.0,0.0,0.0
1089.5118,331.09033,12831574,0.7875,0.09574468,-184.04683,-370.166,-0.0057800487,9.302795E-4,-0.02171135,0.0,0.0,0.0
1086.9688,326.56982,12831591,0.77500004,0.09574468,-268.82736,-315.90173,0.01137596,-0.015255779,-0.0013694763,0.0,0.0,0.0
1084.8906,323.97205,12831607,0.7875,0.09574468,-263.6981,-198.09152,0.01137596,-0.015255779,-0.0013694763,0.0,0.0,0.0
1082.9565,321.2146,12831624,0.7875,0.09574468,-194.56696,-108.71966,0.01137596,-0.015255779,-0.0013694763,0.0,0.0,0.0
1080.938,319.73755,12831641,0.7875,0.09574468,-122.36531,-41.994576,0.01137596,-0.015255779,-0.0013694763,0.0,0.0,0.0
1079.9008,319.73755,12831658,0.77500004,0.09574468,-70.52037,16.076664,0.01137596,-0.015255779,-0.0013694763,0.0,0.0,0.0
1078.357,322.4729,12831674,0.8,0.11702127,-64.34756,120.343925,0.01137596,-0.015255779,-0.0013694763,0.0,0.0,0.0
1077.9366,327.6079,12831691,0.77500004,0.11702127,-42.476295,308.72418,0.01137596,-0.015255779,-0.0013694763,0.0,0.0,0.0
1079.827,333.7782,12831708,0.7875,0.12765957,45.59758,462.81854,0.01137596,-0.015255779,-0.0013694763,0.0,0.0,0.0
1082.6396,339.30994,12831724,0.7625,0.12765957,168.12047,502.43982,0.01137596,-0.015255779,-0.0013694763,0.0,0.0,0.0
1089.5333,349.91797,12831741,0.75,0.10638297,357.54688,563.5285,0.01137596,-0.015255779,-0.0013694763,0.0,0.0,0.0
1100.1782,365.29785,12831758,0.77500004,0.08510638,603.5927,774.7324,0.01137596,-0.015255779,-0.0013694763,0.0,0.0,0.0
1110.234,380.32288,12831775,0.75,0.10638297,781.01996,1055.5205,0.01137596,-0.015255779,-0.0013694763,0.0,0.0,0.0
1119.737,398.23816,12831791,0.75,0.12765957,784.658,1205.9432,0.01137596,-0.015255779,-0.0013694763,0.0,0.0,0.0
1124.4752,410.60645,12831808,0.77500004,0.08510638,573.1095,1110.8553,0.01137596,-0.015255779,-0.0013694763,0.0,0.0,0.0
1127.5895,423.90002,12831825,0.7625,0.09574468,250.16902,878.16846,0.01137596,-0.015255779,-0.0013694763,0.0,0.0,0.0
1128.802,435.50903,12831841,0.7625,0.11702127,2.421862,704.7166,0.01137596,-0.015255779,-0.0013694763,0.0,0.0,0.0
1127.293,442.91577,12831858,0.77500004,0.12765957,-155.27563,521.6031,0.01137596,-0.015255779,-0.0013694763,0.0,0.0,0.0
1122.3049,447.99805,12831875,0.77500004,0.12765957,-326.83984,285.37836,0.01137596,-0.015255779,-0.0013694763,0.0,0.0,0.0
1110.9315,455.0277,12831891,0.75,0.12765957,-610.9104,200.50461,0.01137596,-0.015255779,-0.0013694763,0.0,0.0,0.0
1100.5095,458.92383,12831908,0.7375,0.12765957,-891.47577,168.18326,0.01137596,-0.015255779,-0.0013694763,0.0,0.0,0.0
1095.2161,460.74536,12831925,0.7375,0.11702127,-783.8182,117.97884,0.01137596,-0.015255779,-0.0013694763,0.0,0.0,0.0
1093.6218,462.7865,12831935,0.575,0.11702127,-597.5793,89.00212,0.01137596,-0.015255779,-0.0013694763,0.0,0.0,0.0
1093.6218,462.7865,12831942,0.575,0.11702127,-597.5793,89.00212,0.01137596,-0.015255779,-0.0013694763,0.0,0.0,0.0
