x,y,timestamp,pressure,fingerarea,velocityx,velocityy,accelx,accely,accelz,gyrox,gyroy,gyroz
179.41945,227.33313,77889033,0.71250004,0.08510638,0.0,0.0,0.007674128,0.010321379,0.035577774,0.0,0.0,0.0
179.41945,227.33313,77889063,0.75,0.08510638,-6.2740105E-4,-7.134485E-4,0.007674128,0.010321379,0.035577774,0.0,0.0,0.0
179.41945,227.33313,77889080,0.77500004,0.08510638,0.008350568,0.010173758,0.007674128,0.010321379,0.035577774,0.0,0.0,0.0
179.41945,227.33313,77889097,0.8,0.10638297,-9.849351E-4,-0.0013559818,0.007674128,0.010321379,0.035577774,0.0,0.0,0.0
179.41945,227.33313,77889113,0.8125,0.10638297,-0.009410482,-0.012149941,-0.009860694,0.024257123,-0.03553772,0.0,0.0,0.0
179.41945,244.60815,77889130,0.8125,0.08510638,-0.010151575,490.52606,-0.009860694,0.024257123,-0.03553772,0.0,0.0,0.0
179.41945,258.28052,77889147,0.8125,0.08510638,-0.0028360214,967.7344,-0.009860694,0.024257123,-0.03553772,0.0,0.0,0.0
176.98906,275.20618,77889164,0.8125,0.09574468,-66.86018,1272.036,-0.009860694,0.024257123,-0.03553772,0.0,0.0,0.0
176.01744,286.1742,77889180,0.825,0.10638297,-108.13354,1172.6437,-0.009860694,0.024257123,-0.03553772,0.0,0.0,0.0
174.67543,301.016,77889197,0.8125,0.08510638,-128.40523,792.67505,-0.009860694,0.024257123,-0.03553772,0.0,0.0,0.0
173.66216,319.01196,77889214,0.8125,0.08510638,-87.29231,970.9469,-0.009860694,0.024257123,-0.03553772,0.0,0.0,0.0
172.60228,334.37256,77889230,0.825,0.09574468,-54.561523,1038.6837,-0.009860694,0.024257123,-0.03553772,0.0,0.0,0.0
172.07133,348.70984,77889247,0.825,0.10638297,-35.281864,985.26263,-0.009860694,0.024257123,-0.03553772,0.0,0.0,0.0
171.52483,368.00732,77889264,0.8125,0.08510638,-17.504486,957.415,-0.009860694,0.024257123,-0.03553772,0.0,0.0,0.0
170.0399,386.42932,77889281,0.825,0.08510638,-40.49611,1099.6404,-0.009860694,0.024257123,-0.03553772,0.0,0.0,0.0
167.97159,402.11035,77889297,0.8125,0.12765957,-88.781265,1114.2645,-0.009860694,0.024257123,-0.03553772,0.0,0.0,0.0
165.35397,419.66492,77889314,0.825,0.08510638,-162.70743,1078.1504,-0.009860694,0.024257123,-0.03553772,0.0,0.0,0.0
164.42433,437.09326,77889331,0.825,0.10638297,-158.94244,1016.599,-0.009860694,0.024257123,-0.03553772,0.0,0.0,0.0
163.42467,448.88757,77889347,0.8125,0.12765957,-100.25894,841.36194,-0.009860694,0.024257123,-0.03553772,0.0,0.0,0.0
163.56317,460.70984,77889364,0.8,0.08510638,-8.5012,726.39575,-0.009860694,0.024257123,-0.03553772,0.0,0.0,0.0
164.59103,469.30286,77889381,0.7625,0.08510638,77.98805,504.6723,-0.009860694,0.024257123,-0.03553772,0.0,0.0,0.0
166.64108,475.9984,77889398,0.7,0.06382979,146.55089,312.5433,-0.009860694,0.024257123,-0.03553772,0.0,0.0,0.0
166.92352,477.00256,77889402,0.38750002,0.08510638,153.68167,266.53262,-0.009860694,0.024257123,-0.03553772,0.0,0.0,0.0
166.92352,477.00256,77889409,0.38750002,0.08510638,153.68167,266.53262,-0.009860694,0.024257123,-0.03553772,0.0,0.0,0.0
189.91605,256.6538,77889813,0.625,0.08510638,0.0,0.0,0.008111417,-0.012594283,-0.012430191,0.0,0.0,0.0
189.91605,256.6538,77889832,0.675,0.08510638,0.01542514,0.025087813,0.008111417,-0.012594283,-0.012430191,0.0,0.0,0.0
189.91605,256.6538,77889849,0.75,0.10638297,-0.0045375447,-0.005755032,0.008111417,-0.012594283,-0.012430191,0.0,0.0,0.0
189.91605,256.6538,77889865,0.7875,0.10638297,-0.011610007,-0.015564232,0.008111417,-0.012594283,-0.012430191,0.0,0.0,0.0
190.21704,247.0227,77889882,0.825,0.10638297,8.426186,-269.6895,0.008111417,-0.012594283,-0.012430191,0.0,0.0,0.0
190.75961,233.77405,77889899,0.825,0.08510638,27.35648,-852.03394,0.008111417,-0.012594283,-0.012430191,0.0,0.0,0.0
191.79657,228.64404,77889916,0.83750004,0.08510638,59.215084,-921.8241,0.008111417,-0.012594283,-0.012430191,0.0,0.0,0.0
194.55127,224.2633,77889932,0.8,0.08510638,114.83659,-612.6687,0.008111417,-0.012594283,-0.012430191,0.0,0.0,0.0
199.70209,218.63538,77889949,0.8125,0.09574468,247.42534,-246.49683,0.008111417,-0.012594283,-0.012430191,0.0,0.0,0.0
204.42343,213.99487,77889966,0.825,0.08510638,367.90375,-82.403244,0.008111417,-0.012594283,-0.012430191,0.0,0.0,0.0
210.19226,211.25635,77889982,0.825,0.08510638,421.54807,-208.99252,0.008111417,-0.012594283,-0.012430191,0.0,0.0,0.0
215.432,212.38391,77889999,0.825,0.08510638,399.382,-59.23209,0.008111417,-0.012594283,-0.012430191,0.0,0.0,0.0
221.65717,218.22742,77890016,0.85,0.08510638,375.90305,275.1884,0.008111417,-0.012594283,-0.012430191,0.0,0.0,0.0
226.39847,224.48181,77890033,0.8125,0.10638297,347.09277,525.1234,0.008111417,-0.012594283,-0.012430191,0.0,0.0,0.0
232.607,233.55994,77890049,0.8,0.10638297,349.8814,686.003,0.008111417,-0.012594283,-0.012430191,0.0,0.0,0.0
239.7691,242.73682,77890066,0.7875,0.08510638,380.78177,703.1218,0.008111417,-0.012594283,-0.012430191,0.0,0.0,0.0
247.06421,251.02673,77890083,0.7875,0.08510638,447.05322,650.4076,0.008111417,-0.012594283,-0.012430191,0.0,0.0,0.0
253.25327,255.9773,77890099,0.7875,0.09574468,459.84818,483.8793,0.008111417,-0.012594283,-0.012430191,0.0,0.0,0.0
260.85062,257.54236,77890116,0.8,0.08510638,438.9935,188.913,0.008111417,-0.012594283,-0.012430191,0.0,0.0,0.0
268.24933,255.45618,77890133,0.8,0.08510638,423.30005,-128.23717,0.008111417,-0.012594283,-0.012430191,0.0,0.0,0.0
277.86734,248.17957,77890150,0.8,0.10638297,503.2708,-460.44162,0.008111417,-0.012594283,-0.012430191,0.0,0.0,0.0
285.76535,241.6554,77890166,0.7875,0.10638297,580.65857,-662.5414,0.008111417,-0.012594283,-0.012430191,0.0,0.0,0.0
290.96988,236.10266,77890183,0.8125,0.08510638,458.13953,-609.6777,0.006489128,-0.018075421,0.054055214,0.0,0.0,0.0
294.00766,232.44116,77890200,0.825,0.08510638,252.43187,-417.06934,0.006489128,-0.018075421,0.054055214,0.0,0.0,0.0
296.08145,229.82092,77890216,0.825,0.08510638,50.57738,-189.7518,0.006489128,-0.018075421,0.054055214,0.0,0.0,0.0
296.38138,227.98975,77890233,0.825,0.08510638,-71.23343,-50.905617,0.006489128,-0.018075421,0.054055214,0.0,0.0,0.0
296.88123,226.11548,77890250,0.83750004,0.08510638,-88.68697,-23.613049,0.006489128,-0.018075421,0.054055214,0.0,0.0,0.0
296.88123,226.4447,77890283,0.825,0.09574468,-44.66635,45.91472,0.006489128,-0.018075421,0.054055214,0.0,0.0,0.0
296.88123,228.38501,77890300,0.8125,0.09574468,-26.493168,101.95284,0.006489128,-0.018075421,0.054055214,0.0,0.0,0.0
296.38138,232.05481,77890317,0.83750004,0.10638297,-25.562302,229.63461,0.006489128,-0.018075421,0.054055214,0.0,0.0,0.0
295.6383,237.97156,77890333,0.8125,0.10638297,-33.40857,352.24057,0.006489128,-0.018075421,0.054055214,0.0,0.0,0.0
294.4684,246.11243,77890350,0.825,0.09574468,-79.62895,537.78687,0.006489128,-0.018075421,0.054055214,0.0,0.0,0.0
293.8822,255.30127,77890367,0.83750004,0.08510638,-81.98167,638.992,0.006489128,-0.018075421,0.054055214,0.0,0.0,0.0
293.38235,268.15845,77890383,0.825,0.08510638,-59.607563,780.1891,0.006489128,-0.018075421,0.054055214,0.0,0.0,0.0
292.3458,278.3059,77890400,0.825,0.09574468,-41.348396,819.9801,0.006489128,-0.018075421,0.054055214,0.0,0.0,0.0
291.30347,287.56982,77890417,0.825,0.10638297,-44.77525,712.2495,0.006489128,-0.018075421,0.054055214,0.0,0.0,0.0
291.383,295.75098,77890434,0.825,0.09574468,-35.54558,560.28864,0.006489128,-0.018075421,0.054055214,0.0,0.0,0.0
292.06857,306.61377,77890450,0.825,0.08510638,5.8545585,490.76993,0.006489128,-0.018075421,0.054055214,0.0,0.0,0.0
291.383,317.80847,77890467,0.825,0.08510638,21.170986,568.1993,0.006489128,-0.018075421,0.054055214,0.0,0.0,0.0
291.15024,328.43945,77890484,0.825,0.09574468,12.772659,709.206,0.006489128,-0.018075421,0.054055214,0.0,0.0,0.0
290.88318,336.68103,77890500,0.825,0.10638297,-23.042356,664.20447,0.006489128,-0.018075421,0.054055214,0.0,0.0,0.0
290.38333,347.0327,77890517,0.8125,0.10638297,-36.759163,567.1221,0.006489128,-0.018075421,0.054055214,0.0,0.0,0.0
290.0396,359.27698,77890534,0.825,0.08510638,-25.598799,580.2895,0.006489128,-0.018075421,0.054055214,0.0,0.0,0.0
289.49402,374.14392,77890551,0.8125,0.08510638,-31.19722,788.17725,0.006489128,-0.018075421,0.054055214,0.0,0.0,0.0
288.38397,387.38,77890567,0.825,0.09574468,-54.277275,949.86646,0.006489128,-0.018075421,0.054055214,0.0,0.0,0.0
288.38397,397.5984,77890584,0.825,0.10638297,-48.32992,859.0397,0.006489128,-0.018075421,0.054055214,0.0,0.0,0.0
288.89566,407.8047,77890601,0.825,0.08510638,1.1894233,636.99805,0.006489128,-0.018075421,0.054055214,0.0,0.0,0.0
291.04846,417.96252,77890617,0.8,0.08510638,89.88017,516.65765,0.006489128,-0.018075421,0.054055214,0.0,0.0,0.0
294.74603,427.16675,77890634,0.7625,0.08510638,211.4097,489.92523,0.006489128,-0.018075421,0.054055214,0.0,0.0,0.0
298.6853,434.89587,77890651,0.7375,0.08510638,299.4679,478.71777,0.006489128,-0.018075421,0.054055214,0.0,0.0,0.0
302.03937,440.8579,77890668,0.6875,0.11702127,309.40607,376.0869,0.006489128,-0.018075421,0.054055214,0.0,0.0,0.0
303.3791,443.2395,77890675,0.55,0.12765957,301.86984,324.74426,0.006489128,-0.018075421,0.054055214,0.0,0.0,0.0
303.3791,443.2395,77890680,0.55,0.12765957,301.86984,324.74426,0.006489128,-0.018075421,0.054055214,0.0,0.0,0.0
344.8656,367.71667,77892512,0.71250004,0.08510638,0.0,0.0,-0.0082220435,-0.0022836924,0.009213448,0.0,0.0,0.0
344.8656,367.71667,77892539,0.7375,0.08510638,-0.022381457,-0.02599886,-0.0082220435,-0.0022836924,0.009213448,0.0,0.0,0.0
344.8656,367.71667,77892554,0.7625,0.08510638,0.006494418,0.00875994,-0.0082220435,-0.0022836924,0.009213448,0.0,0.0,0.0
344.8656,367.71667,77892573,0.75,0.06382979,0.016274225,0.016722873,-0.0082220435,-0.0022836924,0.009213448,0.0,0.0,0.0
344.8656,367.71667,77892589,0.75,0.08510638,-0.02296895,-0.025535228,-0.0082220435,-0.0022836924,0.009213448,0.0,0.0,0.0
354.74475,386.2185,77892606,0.7375,0.10638297,287.86945,551.04114,-0.0082220435,-0.0022836924,0.009213448,0.0,0.0,0.0
361.43863,392.65454,77892623,0.71250004,0.12765957,541.15,838.34155,-0.0082220435,-0.0022836924,0.009213448,0.0,0.0,0.0
370.88138,397.22363,77892639,0.725,0.12765957,692.6779,719.04224,-0.0082220435,-0.0022836924,0.009213448,0.0,0.0,0.0
381.95718,398.97778,77892656,0.725,0.10638297,744.6391,208.50392,-0.0082220435,-0.0022836924,0.009213448,0.0,0.0,0.0
395.72348,396.78113,77892673,0.725,0.09574468,827.4691,-181.85802,-0.0082220435,-0.0022836924,0.009213448,0.0,0.0,0.0
403.43698,392.77673,77892689,0.725,0.08510638,749.0712,-430.19293,-0.0082220435,-0.0022836924,0.009213448,0.0,0.0,0.0
407.4636,388.30823,77892706,0.725,0.07446808,515.3417,-441.13474,-0.0082220435,-0.0022836924,0.009213448,0.0,0.0,0.0
409.59515,383.26367,77892723,0.7375,0.07446808,88.98615,-426.3358,-0.0082220435,-0.0022836924,0.009213448,0.0,0.0,0.0
409.76007,375.9325,77892740,0.7375,0.08510638,-149.3853,-464.7614,-0.0082220435,-0.0022836924,0.009213448,0.0,0.0,0.0
405.8909,371.88977,77892756,0.75,0.08510638,-285.53967,-414.765,-0.0082220435,-0.0022836924,0.009213448,0.0,0.0,0.0
396.352,368.84802,77892773,0.7375,0.08510638,-538.5988,-285.1892,-0.0082220435,-0.0022836924,0.009213448,0.0,0.0,0.0
383.11658,370.00806,77892790,0.7625,0.08510638,-875.84314,-42.3252,-0.0082220435,-0.0022836924,0.009213448,0.0,0.0,0.0
371.88672,375.4308,77892806,0.77500004,0.09574468,-1045.2583,295.8998,-0.0082220435,-0.0022836924,0.009213448,0.0,0.0,0.0
361.96814,383.6029,77892823,0.77500004,0.08510638,-927.3524,569.84314,-0.0082220435,-0.0022836924,0.009213448,0.0,0.0,0.0
353.15155,392.8296,77892840,0.7625,0.10638297,-646.8124,751.01807,-0.006577641,-0.009826958,-0.040629387,0.0,0.0,0.0
345.22565,408.20044,77892857,0.77500004,0.08510638,-437.4378,922.1044,-0.006577641,-0.009826958,-0.040629387,0.0,0.0,0.0
343.8659,423.68555,77892873,0.75,0.06382979,-216.16946,1074.4518,-0.006577641,-0.009826958,-0.040629387,0.0,0.0,0.0
346.36493,438.5,77892890,0.7625,0.08510638,86.986015,1130.0791,-0.006577641,-0.009826958,-0.040629387,0.0,0.0,0.0
349.02887,444.12537,77892907,0.75,0.10638297,350.6356,852.7621,-0.006577641,-0.009826958,-0.040629387,0.0,0.0,0.0
355.6885,450.67615,77892923,0.75,0.12765957,532.86926,342.05188,-0.006577641,-0.009826958,-0.040629387,0.0,0.0,0.0
365.76395,456.6172,77892940,0.7375,0.12765957,665.82806,100.75729,-0.006577641,-0.009826958,-0.040629387,0.0,0.0,0.0
381.73825,459.23254,77892957,0.7375,0.10638297,913.8565,62.618843,-0.006577641,-0.009826958,-0.040629387,0.0,0.0,0.0
399.86237,455.0056,77892974,0.7,0.10638297,1249.6605,-95.420815,-0.006577641,-0.009826958,-0.040629387,0.0,0.0,0.0
405.34592,452.1245,77892985,0.32500002,0.09574468,1249.7979,-266.36993,-0.006577641,-0.009826958,-0.040629387,0.0,0.0,0.0
405.34592,452.1245,77892991,0.32500002,0.09574468,1249.7979,-266.36993,-0.006577641,-0.009826958,-0.040629387,0.0,0.0,0.0
415.8425,247.7688,77893209,0.7625,0.12765957,0.0,0.0,-0.006577641,-0.009826958,-0.040629387,0.0,0.0,0.0
415.8425,247.7688,77893241,0.8,0.12765957,0.011225389,0.005839011,-0.006577641,-0.009826958,-0.040629387,0.0,0.0,0.0
415.8425,247.7688,77893258,0.83750004,0.10638297,-0.0038739606,-6.567961E-4,-0.006577641,-0.009826958,-0.040629387,0.0,0.0,0.0
402.94415,271.6936,77893274,0.825,0.08510638,-559.1299,1037.1624,-0.006577641,-0.009826958,-0.040629387,0.0,0.0,0.0
396.64142,284.74524,77893291,0.77500004,0.10638297,-738.4129,1417.8396,-0.006577641,-0.009826958,-0.040629387,0.0,0.0,0.0
392.90143,303.73584,77893308,0.71250004,0.08510638,-638.96936,1545.5289,-0.006577641,-0.009826958,-0.040629387,0.0,0.0,0.0
392.35013,312.62952,77893315,0.52500004,0.08510638,-542.0349,1646.1151,-0.006577641,-0.009826958,-0.040629387,0.0,0.0,0.0
392.35013,312.62952,77893321,0.52500004,0.08510638,-542.0349,1646.1151,-0.006577641,-0.009826958,-0.040629387,0.0,0.0,0.0
411.34396,448.57056,77893660,0.7,0.08510638,0.0,0.0,-0.0052621067,1.3843179E-4,-5.0354004E-4,0.0,0.0,0.0
411.34396,448.57056,77893689,0.7375,0.08510638,0.03281892,0.03172919,-0.0052621067,1.3843179E-4,-5.0354004E-4,0.0,0.0,0.0
411.34396,448.57056,77893708,0.75,0.09574468,-0.0029831172,-0.0049148425,-0.0052621067,1.3843179E-4,-5.0354004E-4,3.355443E-6,0.0,0.0
411.34396,448.57056,77893725,0.7625,0.08510638,0.027874049,0.030998426,-0.0052621067,1.3843179E-4,-5.0354004E-4,3.355443E-6,0.0,0.0
435.16718,437.18066,77893742,0.75,0.06382979,946.8144,-448.5872,-0.0052621067,1.3843179E-4,-5.0354004E-4,3.355443E-6,0.0,0.0
444.74896,427.6256,77893759,0.7625,0.08510638,1083.7725,-674.0276,-0.0052621067,1.3843179E-4,-5.0354004E-4,3.355443E-6,0.0,0.0
453.62488,417.12366,77893776,0.75,0.10638297,1010.9558,-841.8126,-0.0052621067,1.3843179E-4,-5.0354004E-4,0.0,0.0,0.0
459.67963,402.89636,77893792,0.77500004,0.10638297,406.95068,-878.5253,-0.0052621067,1.3843179E-4,-5.0354004E-4,0.0,0.0,0.0
461.8275,386.2799,77893809,0.7625,0.08510638,-30.376696,-982.3152,-0.0052621067,1.3843179E-4,-5.0354004E-4,0.0,0.0,0.0
460.9461,369.7583,77893826,0.8,0.08510638,-73.18027,-1181.956,-0.0052621067,1.3843179E-4,-5.0354004E-4,0.0,0.0,0.0
457.33398,357.66174,77893842,0.8,0.10638297,-331.58017,-1065.1167,-0.0052621067,1.3843179E-4,-5.0354004E-4,0.0,0.0,0.0
454.21637,350.63318,77893859,0.8,0.09574468,-442.3929,-644.86035,-0.0052621067,1.3843179E-4,-5.0354004E-4,0.0,0.0,0.0
450.60223,345.82532,77893876,0.8,0.10638297,-391.33047,-199.6075,-0.0052621067,1.3843179E-4,-5.0354004E-4,0.0,0.0,0.0
447.43915,342.93372,77893893,0.8,0.10638297,-290.99088,37.515694,-0.0052621067,1.3843179E-4,-5.0354004E-4,0.0,0.0,0.0
445.84497,341.95007,77893909,0.7875,0.10638297,-173.95107,115.73837,-0.036209688,-0.007889256,-0.06440258,0.0,0.0,0.0
445.3329,341.95007,77893926,0.7875,0.10638297,-53.588684,121.30582,-0.036209688,-0.007889256,-0.06440258,0.0,0.0,0.0
446.98157,345.7693,77893943,0.7875,0.09574468,80.536156,226.36057,-0.036209688,-0.007889256,-0.06440258,0.0,0.0,0.0
455.42065,355.68164,77893959,0.77500004,0.08510638,356.64636,487.9357,-0.036209688,-0.007889256,-0.06440258,0.0,0.0,0.0
469.26733,372.8922,77893976,0.75,0.09574468,768.3718,940.90155,-0.036209688,-0.007889256,-0.06440258,0.0,0.0,0.0
483.1278,388.14734,77893993,0.71250004,0.12765957,1065.7814,1248.451,-0.036209688,-0.007889256,-0.06440258,0.0,0.0,0.0
497.3197,400.83667,77894010,0.71250004,0.09574468,1168.1843,1210.4272,-0.036209688,-0.007889256,-0.06440258,0.0,0.0,0.0
506.4818,408.7379,77894026,0.7375,0.08510638,892.0043,778.83624,-0.036209688,-0.007889256,-0.06440258,0.0,0.0,0.0
513.04913,415.5691,77894043,0.725,0.08510638,498.40866,337.34314,-0.036209688,-0.007889256,-0.06440258,0.0,0.0,0.0
516.2001,420.8318,77894060,0.7375,0.07446808,151.07176,135.27414,-0.036209688,-0.007889256,-0.06440258,0.0,0.0,0.0
518.6972,428.42737,77894076,0.725,0.07446808,-59.26075,192.6882,-0.036209688,-0.007889256,-0.06440258,0.0,0.0,0.0
517.9611,433.9497,77894093,0.7375,0.08510638,-130.51053,306.34537,-0.036209688,-0.007889256,-0.06440258,0.0,0.0,0.0
515.30817,437.6134,77894110,0.75,0.08510638,-229.98985,299.91962,-0.036209688,-0.007889256,-0.06440258,-7.5029975E-6,-1.5005995E-5,0.0
506.24268,442.38855,77894127,0.77500004,0.09574468,-467.71295,231.357,-0.036209688,-0.007889256,-0.06440258,-7.5029975E-6,-1.5005995E-5,0.0
495.35577,446.06885,77894143,0.7625,0.11702127,-758.03406,178.87463,-0.036209688,-0.007889256,-0.06440258,-7.5029975E-6,-1.5005995E-5,0.0
486.71222,446.79346,77894160,0.7625,0.11702127,-839.37115,103.400734,-0.036209688,-0.007889256,-0.06440258,-7.5029975E-6,-1.5005995E-5,0.0
481.18707,446.79346,77894177,0.77500004,0.10638297,-663.7876,1.6201749,-0.036209688,-0.007889256,-0.06440258,0.0,0.0,0.0
476.46796,446.79346,77894193,0.6875,0.08510638,-364.64557,-84.794235,-0.036209688,-0.007889256,-0.06440258,0.0,0.0,0.0
475.82294,446.79346,77894200,0.4125,0.08510638,-220.67091,-113.77294,-0.036209688,-0.007889256,-0.06440258,0.0,0.0,0.0
475.82294,446.79346,77894206,0.4125,0.08510638,-220.67091,-113.77294,-0.036209688,-0.007889256,-0.06440258,0.0,0.0,0.0
503.31403,373.93628,77894408,0.7375,0.06382979,0.0,0.0,-0.036209688,-0.007889256,-0.06440258,0.0,0.0,0.0
503.31403,373.93628,77894427,0.75,0.08510638,0.14811313,0.11376193,-0.036209688,-0.007889256,-0.06440258,0.0,0.0,0.0
503.31403,373.93628,77894444,0.7625,0.08510638,-0.005937087,-0.0038451876,0.0030322522,0.08168861,0.012477875,0.0,0.0,0.0
503.31403,373.93628,77894461,0.7625,0.09574468,-3.8896507E-4,-3.0935477E-4,0.0030322522,0.08168861,0.012477875,0.0,0.0,0.0
507.53113,361.19263,77894477,0.7625,0.10638297,164.21861,-496.26227,0.0030322522,0.08168861,0.012477875,0.0,0.0,0.0
512.19586,352.59827,77894494,0.75,0.10638297,313.56573,-796.6936,0.0030322522,0.08168861,0.012477875,0.0,0.0,0.0
521.42194,346.02905,77894511,0.75,0.10638297,533.29016,-800.9312,0.0030322522,0.08168861,0.012477875,0.0,0.0,0.0
530.45624,342.0879,77894528,0.75,0.11702127,688.0353,-537.35913,0.0030322522,0.08168861,0.012477875,0.0,0.0,0.0
540.81,341.06165,77894544,0.7625,0.12765957,740.39996,-95.41681,0.0030322522,0.08168861,0.012477875,0.0,0.0,0.0
551.26263,346.6925,77894561,0.75,0.10638297,728.0723,311.21298,0.0030322522,0.08168861,0.012477875,0.0,0.0,0.0
559.78467,354.9685,77894578,0.7375,0.08510638,663.3196,583.05316,0.0030322522,0.08168861,0.012477875,0.0,0.0,0.0
565.37683,365.19873,77894594,0.725,0.07446808,452.80685,819.64484,0.0030322522,0.08168861,0.012477875,0.0,0.0,0.0
570.873,386.463,77894611,0.725,0.09574468,306.74976,1200.8066,0.0030322522,0.08168861,0.012477875,0.0,0.0,0.0
568.5187,400.4762,77894628,0.71250004,0.10638297,4.9174676,1271.7965,0.0030322522,0.08168861,0.012477875,0.0,0.0,0.0
562.90186,418.1073,77894645,0.6875,0.06382979,-371.6767,1245.1431,0.0030322522,0.08168861,0.012477875,0.0,0.0,0.0
557.6242,427.057,77894661,0.675,0.06382979,-572.44293,933.2856,0.0030322522,0.08168861,0.012477875,0.0,0.0,0.0
549.748,435.73242,77894678,0.6875,0.08510638,-675.3756,477.04254,0.0030322522,0.08168861,0.012477875,0.0,0.0,0.0
542.82074,440.05627,77894695,0.7,0.09574468,-574.66113,220.46158,0.0030322522,0.08168861,0.012477875,0.0,0.0,0.0
538.1173,440.57397,77894711,0.6875,0.08510638,-444.88773,-95.52161,0.0030322522,0.08168861,0.012477875,0.0,0.0,0.0
534.93915,438.91724,77894728,0.7,0.07446808,-277.64816,-238.05661,0.0030322522,0.08168861,0.012477875,0.0,0.0,0.0
532.8552,435.37854,77894745,0.7,0.07446808,-96.358826,-351.06256,0.0030322522,0.08168861,0.012477875,0.0,0.0,0.0
532.30457,430.7367,77894762,0.71250004,0.08510638,30.937487,-440.6416,0.0030322522,0.08168861,0.012477875,0.0,0.0,0.0
533.9548,427.9563,77894778,0.725,0.08510638,115.964294,-361.89014,0.0030322522,0.08168861,0.012477875,0.0,0.0,0.0
541.7451,425.28308,77894795,0.725,0.06382979,340.61404,-257.60217,0.0030322522,0.08168861,0.012477875,0.0,0.0,0.0
557.3076,426.6328,77894812,0.725,0.06382979,801.87024,-59.838463,0.0030322522,0.08168861,0.012477875,0.0,0.0,0.0
571.3666,432.74487,77894828,0.725,0.07446808,1135.1486,256.39786,0.0030322522,0.08168861,0.012477875,0.0,0.0,0.0
581.6597,439.05762,77894845,0.725,0.09574468,1123.3337,502.60593,0.0030322522,0.08168861,0.012477875,3.355443E-6,0.0,0.0
592.3282,445.48364,77894862,0.71250004,0.10638297,788.35803,617.1522,0.0030322522,0.08168861,0.012477875,3.355443E-6,0.0,0.0
601.32794,451.0171,77894879,0.71250004,0.10638297,511.87393,501.4698,0.0030322522,0.08168861,0.012477875,3.355443E-6,0.0,0.0
608.44727,454.49414,77894895,0.6875,0.10638297,401.7615,313.48578,0.0030322522,0.08168861,0.012477875,3.355443E-6,0.0,0.0
612.7637,456.33838,77894912,0.6875,0.10638297,265.05338,131.63217,0.0030322522,0.08168861,0.012477875,0.0,0.0,0.0
614.19464,456.56702,77894929,0.65000004,0.10638297,68.50777,-18.218771,0.0030322522,0.08168861,0.012477875,0.0,0.0,0.0
614.7777,456.56702,77894939,0.25,0.10638297,-29.091152,-80.30712,0.0030322522,0.08168861,0.012477875,0.0,0.0,0.0
614.7777,456.56702,77894946,0.25,0.10638297,-29.091152,-80.30712,0.0030322522,0.08168861,0.012477875,0.0,0.0,0.0
532.8044,393.48328,77895083,0.7625,0.09574468,0.0,0.0,0.0024258047,0.0013508797,-0.038017273,0.0,0.0,0.0
532.8044,393.48328,77895113,0.75,0.09574468,-0.038564317,-0.029187169,0.0024258047,0.0013508797,-0.038017273,0.0,0.0,0.0
545.53546,394.85486,77895129,0.75,0.10638297,792.6109,85.386055,0.0024258047,0.0013508797,-0.038017273,0.0,0.0,0.0
566.20496,397.66785,77895146,0.75,0.09574468,1647.4062,195.36671,0.0024258047,0.0013508797,-0.038017273,0.0,0.0,0.0
582.2868,399.6471,77895163,0.725,0.12765957,1639.741,213.98398,0.0024258047,0.0013508797,-0.038017273,0.0,0.0,0.0
595.8534,401.47986,77895179,0.3625,0.10638297,1410.9243,190.20564,0.0024258047,0.0013508797,-0.038017273,3.355443E-6,0.0,0.0
595.8534,401.47986,77895187,0.3625,0.10638297,1410.9243,190.20564,0.0024258047,0.0013508797,-0.038017273,3.355443E-6,0.0,0.0
692.2525,378.37878,77895438,0.675,0.07446808,0.0,0.0,0.0024258047,0.0013508797,-0.038017273,0.0,0.0,0.0
692.2525,378.37878,77895463,0.7,0.07446808,-0.09125928,-0.048644003,0.0024258047,0.0013508797,-0.038017273,0.0,0.0,0.0
692.2525,378.37878,77895480,0.71250004,0.06382979,0.05289268,0.02748811,0.0024258047,0.0013508797,-0.038017273,0.0,0.0,0.0
692.2525,378.37878,77895497,0.75,0.08510638,-0.020016106,-0.010625018,0.0024258047,0.0013508797,-0.038017273,0.0,0.0,0.0
673.56476,367.89673,77895514,0.7375,0.08510638,-683.97656,-395.80704,-0.014059365,-0.054919302,0.0015859604,0.0,0.0,0.0
661.36725,364.44788,77895530,0.7375,0.08510638,-1068.4092,-508.88138,-0.014059365,-0.054919302,0.0015859604,0.0,0.0,0.0
650.3819,364.16272,77895547,0.725,0.09574468,-1176.2332,-379.2501,-0.014059365,-0.054919302,0.0015859604,0.0,0.0,0.0
640.49274,368.17676,77895564,0.725,0.07446808,-944.07477,17.568647,-0.014059365,-0.054919302,0.0015859604,0.0,0.0,0.0
630.6946,374.52478,77895580,0.725,0.06382979,-550.25775,488.8245,-0.014059365,-0.054919302,0.0015859604,0.0,0.0,0.0
623.278,381.9297,77895597,0.7375,0.08510638,-361.81033,712.12756,-0.014059365,-0.054919302,0.0015859604,0.0,0.0,0.0
615.3995,393.19202,77895614,0.7,0.10638297,-410.94046,733.81805,-0.014059365,-0.054919302,0.0015859604,0.0,0.0,0.0
610.4567,405.8932,77895631,0.7,0.08510638,-321.78577,864.0883,-0.014059365,-0.054919302,0.0015859604,0.0,0.0,0.0
609.77936,416.97876,77895647,0.6875,0.06382979,-138.46338,870.94165,-0.014059365,-0.054919302,0.0015859604,0.0,0.0,0.0
610.46234,424.995,77895664,0.7,0.06382979,85.38553,730.33,-0.014059365,-0.054919302,0.0015859604,0.0,0.0,0.0
612.5365,427.91992,77895681,0.7,0.06382979,246.67165,392.6844,-0.014059365,-0.054919302,0.0015859604,0.0,0.0,0.0
618.9055,432.5161,77895697,0.7,0.06382979,417.18677,60.905945,-0.014059365,-0.054919302,0.0015859604,0.0,0.0,0.0
628.7243,434.3545,77895714,0.7,0.07446808,599.5529,8.906435,-0.014059365,-0.054919302,0.0015859604,0.0,0.0,0.0
637.62585,431.77454,77895731,0.71250004,0.08510638,746.68896,-111.28696,-0.014059365,-0.054919302,0.0015859604,0.0,0.0,0.0
648.5331,424.08765,77895748,0.725,0.08510638,789.663,-380.5703,-0.014059365,-0.054919302,0.0015859604,0.0,0.0,0.0
659.30457,415.3589,77895764,0.71250004,0.09574468,745.66876,-687.0846,-0.014059365,-0.054919302,0.0015859604,0.0,0.0,0.0
668.27966,405.64392,77895781,0.725,0.10638297,662.7724,-846.4075,-0.014059365,-0.054919302,0.0015859604,0.0,0.0,0.0
674.13446,397.21362,77895798,0.725,0.08510638,496.71024,-766.5927,-0.014059365,-0.054919302,0.0015859604,0.0,0.0,0.0
677.8053,391.62073,77895814,0.7375,0.07446808,246.1603,-507.49207,-0.014059365,-0.054919302,0.0015859604,0.0,0.0,0.0
679.31995,388.92834,77895831,0.725,0.07446808,21.54061,-243.68741,-0.014059365,-0.054919302,0.0015859604,0.0,0.0,0.0
679.7566,387.08716,77895848,0.75,0.08510638,-95.24521,-32.99545,-0.014059365,-0.054919302,0.0015859604,0.0,0.0,0.0
679.7566,387.2638,77895865,0.75,0.08510638,-127.459946,104.1992,-0.014059365,-0.054919302,0.0015859604,0.0,0.0,0.0
679.7566,388.30212,77895881,0.7375,0.09574468,-109.14751,163.95203,-0.014059365,-0.054919302,0.0015859604,0.0,0.0,0.0
677.6287,394.08398,77895898,0.7375,0.10638297,-116.945625,283.05188,-0.014059365,-0.054919302,0.0015859604,0.0,0.0,0.0
675.25806,403.1582,77895915,0.725,0.09574468,-170.26132,530.30774,-0.014059365,-0.054919302,0.0015859604,0.0,0.0,0.0
675.25806,413.86755,77895931,0.725,0.08510638,-135.77208,783.2272,-0.014059365,-0.054919302,0.0015859604,0.0,0.0,0.0
677.06854,424.5216,77895948,0.71250004,0.06382979,-8.081758,866.2684,-0.014059365,-0.054919302,0.0015859604,0.0,0.0,0.0
680.56476,432.81836,77895965,0.725,0.06382979,238.03102,690.972,-0.014059365,-0.054919302,0.0015859604,0.0,0.0,0.0
683.44366,438.24316,77895981,0.71250004,0.08510638,316.86768,463.198,-0.014059365,-0.054919302,0.0015859604,0.0,0.0,0.0
688.87054,443.7876,77895998,0.6875,0.11702127,339.64874,255.06296,-0.014059365,-0.054919302,0.0015859604,0.0,0.0,0.0
697.6663,449.40894,77896015,0.675,0.12765957,448.85748,191.46342,-0.014059365,-0.054919302,0.0015859604,0.0,0.0,0.0
705.435,451.30237,77896032,0.375,0.10638297,582.8225,142.74886,-0.014059365,-0.054919302,0.0015859604,0.0,0.0,0.0
710.74646,447.682,77896040,0.16250001,0.08510638,640.76874,48.7387,-0.027247488,-0.0039354265,0.01726818,0.0,0.0,0.0
710.74646,447.682,77896046,0.16250001,0.08510638,640.76874,48.7387,-0.027247488,-0.0039354265,0.01726818,0.0,0.0,0.0
688.2538,229.11023,77896290,0.71250004,0.08510638,0.0,0.0,-0.027247488,-0.0039354265,0.01726818,0.0,0.0,0.0
688.2538,229.11023,77896316,0.7875,0.10638297,-0.037554644,-0.012170335,-0.027247488,-0.0039354265,0.01726818,0.0,0.0,0.0
688.2538,229.11023,77896332,0.8,0.10638297,-0.0014679418,5.4009573E-4,-0.027247488,-0.0039354265,0.01726818,0.0,0.0,0.0
688.2538,229.11023,77896340,0.8,0.12765957,7.426563E-4,3.149589E-4,-0.027247488,-0.0039354265,0.01726818,0.0,0.0,0.0
678.50433,247.90112,77896366,0.8125,0.09574468,-390.14862,747.9102,-0.027247488,-0.0039354265,0.01726818,0.0,0.0,0.0
674.5666,264.8506,77896383,0.77500004,0.08510638,-448.4395,1096.8998,-0.027247488,-0.0039354265,0.01726818,0.0,0.0,0.0
673.25867,279.13818,77896399,0.75,0.09574468,-333.55536,1309.0706,-0.027247488,-0.0039354265,0.01726818,0.0,0.0,0.0
674.25836,291.30542,77896409,0.4625,0.09574468,-171.6152,1338.5172,-0.027247488,-0.0039354265,0.01726818,0.0,0.0,0.0
674.25836,291.30542,77896416,0.4625,0.09574468,-171.6152,1338.5172,-0.027247488,-0.0039354265,0.01726818,0.0,0.0,0.0
710.74646,445.90503,77897297,0.7,0.08510638,0.0,0.0,0.008161619,0.015081316,0.049450874,0.0,0.0,0.0
710.74646,445.90503,77897318,0.725,0.08510638,0.0672767,0.042375434,0.008161619,0.015081316,0.049450874,0.0,0.0,0.0
710.74646,445.90503,77897334,0.75,0.08510638,-2.577606E-4,7.203298E-4,0.008161619,0.015081316,0.049450874,0.0,0.0,0.0
710.74646,445.90503,77897362,0.7625,0.08510638,0.05670158,0.0351644,0.008161619,0.015081316,0.049450874,0.0,0.0,0.0
731.3322,425.85938,77897385,0.77500004,0.08510638,647.86896,-632.0649,0.008161619,0.015081316,0.049450874,0.0,0.0,0.0
742.8432,413.79773,77897402,0.7625,0.12765957,982.781,-987.03705,0.008161619,0.015081316,0.049450874,0.0,0.0,0.0
751.651,402.69995,77897419,0.77500004,0.08510638,873.16925,-966.04004,0.008161619,0.015081316,0.049450874,0.0,0.0,0.0
761.2314,383.22205,77897435,0.7625,0.08510638,417.41296,-897.8708,0.008161619,0.015081316,0.049450874,0.0,0.0,0.0
766.4686,369.1012,77897452,0.8,0.10638297,318.73407,-1018.3111,0.008161619,0.015081316,0.049450874,0.0,0.0,0.0
767.8788,356.95447,77897469,0.77500004,0.12765957,133.86826,-980.75684,0.008161619,0.015081316,0.049450874,0.0,0.0,0.0
767.12415,348.51575,77897485,0.7875,0.10638297,-75.5995,-737.1326,0.008161619,0.015081316,0.049450874,0.0,0.0,0.0
764.2412,341.9718,77897502,0.7875,0.09574468,-322.5875,-315.4042,0.008161619,0.015081316,0.049450874,0.0,0.0,0.0
761.87573,338.2727,77897519,0.8,0.09574468,-368.2865,-79.560036,0.008161619,0.015081316,0.049450874,0.0,0.0,0.0
757.41614,335.14624,77897536,0.7875,0.09574468,-338.0798,-39.513058,0.008161619,0.015081316,0.049450874,0.0,0.0,0.0
754.49915,333.30225,77897552,0.7875,0.08510638,-295.43292,13.080086,0.008161619,0.015081316,0.049450874,0.0,0.0,0.0
752.8417,333.06506,77897569,0.7875,0.09574468,-190.32222,44.442932,0.008161619,0.015081316,0.049450874,0.0,0.0,0.0
752.233,333.06506,77897586,0.8,0.09574468,-81.89213,69.67748,0.008161619,0.015081316,0.049450874,0.0,0.0,0.0
754.68274,333.93164,77897602,0.77500004,0.11702127,91.99642,101.793015,0.008161619,0.015081316,0.049450874,0.0,0.0,0.0
769.6149,339.4137,77897619,0.77500004,0.10638297,584.54504,241.41985,0.008161619,0.015081316,0.049450874,0.0,0.0,0.0
785.80945,344.08948,77897636,0.7625,0.12765957,1082.3442,361.61887,0.008161619,0.015081316,0.049450874,0.0,0.0,0.0
796.7042,347.6704,77897653,0.7625,0.12765957,1240.083,386.10248,0.02252929,-0.00393492,0.023561478,0.0,0.0,0.0
804.1804,351.3247,77897669,0.7625,0.12765957,945.4625,327.98224,0.02252929,-0.00393492,0.023561478,0.0,0.0,0.0
808.9071,354.11597,77897686,0.75,0.10638297,421.864,200.23158,0.02252929,-0.00393492,0.023561478,0.0,0.0,0.0
812.1481,355.66382,77897703,0.77500004,0.10638297,3.6749277,99.848526,0.02252929,-0.00393492,0.023561478,0.0,0.0,0.0
813.71295,359.34387,77897719,0.77500004,0.08510638,-52.92932,109.238174,0.02252929,-0.00393492,0.023561478,0.0,0.0,0.0
812.6051,365.4358,77897736,0.77500004,0.09574468,-110.48954,244.76405,0.02252929,-0.00393492,0.023561478,0.0,0.0,0.0
808.4962,373.4358,77897753,0.7875,0.09574468,-259.9704,449.28116,0.02252929,-0.00393492,0.023561478,0.0,0.0,0.0
802.2354,380.80127,77897770,0.77500004,0.08510638,-431.61417,569.5801,0.02252929,-0.00393492,0.023561478,0.0,0.0,0.0
791.4266,391.0089,77897786,0.7875,0.10638297,-672.486,652.6187,0.02252929,-0.00393492,0.023561478,0.0,0.0,0.0
783.97046,399.38818,77897803,0.77500004,0.10638297,-748.83734,627.013,0.02252929,-0.00393492,0.023561478,0.0,0.0,0.0
776.20245,413.97522,77897820,0.7875,0.08510638,-640.082,751.25415,0.02252929,-0.00393492,0.023561478,0.0,0.0,0.0
774.72565,426.97522,77897836,0.7625,0.08510638,-335.355,858.22174,0.02252929,-0.00393492,0.023561478,0.0,0.0,0.0
776.9839,437.94043,77897853,0.7625,0.09574468,77.23978,846.3859,0.02252929,-0.00393492,0.023561478,0.0,0.0,0.0
779.597,442.79272,77897870,0.7625,0.10638297,345.5714,598.43,0.02252929,-0.00393492,0.023561478,0.0,0.0,0.0
787.25336,450.54785,77897886,0.75,0.12765957,542.00494,338.07727,0.02252929,-0.00393492,0.023561478,0.0,0.0,0.0
797.0172,456.3888,77897903,0.7375,0.12765957,707.3025,210.57127,0.02252929,-0.00393492,0.023561478,0.0,0.0,0.0
806.95715,458.344,77897920,0.7375,0.12765957,762.784,145.9383,0.02252929,-0.00393492,0.023561478,0.0,0.0,0.0
818.8323,453.1023,77897937,0.5375,0.10638297,820.18976,-96.53689,0.02252929,-0.00393492,0.023561478,0.0,0.0,0.0
821.7103,450.34753,77897940,0.175,0.08510638,837.9813,-204.40776,0.02252929,-0.00393492,0.023561478,0.0,0.0,0.0
821.7103,450.34753,77897948,0.175,0.08510638,837.9813,-204.40776,0.02252929,-0.00393492,0.023561478,0.0,0.0,0.0
894.6866,376.60168,77898101,0.7,0.06382979,0.0,0.0,0.02252929,-0.00393492,0.023561478,0.0,0.0,0.0
894.6866,376.60168,77898120,0.71250004,0.06382979,-0.017333517,5.7146273E-4,0.02252929,-0.00393492,0.023561478,0.0,0.0,0.0
894.6866,376.60168,77898137,0.7625,0.08510638,0.0038986353,0.0023391845,0.02252929,-0.00393492,0.023561478,0.0,0.0,0.0
894.6866,376.60168,77898154,0.7875,0.08510638,0.04770428,0.019869413,0.02252929,-0.00393492,0.023561478,0.0,0.0,0.0
894.6866,376.60168,77898171,0.75,0.08510638,-0.047882073,-0.019208027,0.02252929,-0.00393492,0.023561478,0.0,0.0,0.0
873.6422,388.18262,77898187,0.7625,0.11702127,-681.4954,372.4522,0.0020234436,0.012852043,0.0028486252,0.0,0.0,0.0
864.68787,394.8236,77898204,0.75,0.12765957,-1130.9851,669.7382,0.0020234436,0.012852043,0.0028486252,0.0,0.0,0.0
859.3774,401.24097,77898221,0.75,0.10638297,-976.5444,691.47766,0.0020234436,0.012852043,0.0028486252,0.0,0.0,0.0
853.7021,415.68823,77898237,0.7375,0.08510638,-424.06415,715.1524,0.0020234436,0.012852043,0.0028486252,0.0,0.0,0.0
852.70026,428.5515,77898254,0.725,0.08510638,-6.3932285,829.21906,0.0020234436,0.012852043,0.0028486252,0.0,0.0,0.0
854.94714,436.86475,77898271,0.725,0.09574468,271.89255,762.30457,0.0020234436,0.012852043,0.0028486252,0.0,0.0,0.0
858.11346,439.09192,77898288,0.725,0.11702127,303.45166,475.50696,0.0020234436,0.012852043,0.0028486252,0.0,0.0,0.0
869.12317,443.48425,77898304,0.7375,0.09574468,594.0522,129.76677,0.0020234436,0.012852043,0.0028486252,0.0,0.0,0.0
884.6146,443.4651,77898321,0.75,0.08510638,958.29095,-119.87453,0.0020234436,0.012852043,0.0028486252,0.0,0.0,0.0
896.27496,439.33667,77898338,0.7375,0.08510638,1116.987,-241.1921,0.0020234436,0.012852043,0.0028486252,0.0,0.0,0.0
904.5804,432.42822,77898354,0.7375,0.09574468,904.6275,-468.2779,0.0020234436,0.012852043,0.0028486252,0.0,0.0,0.0
911.0615,423.5735,77898371,0.7375,0.09574468,477.8821,-702.1998,0.0020234436,0.012852043,0.0028486252,0.0,0.0,0.0
915.44824,413.96204,77898388,0.7375,0.12765957,151.40259,-754.5119,0.0020234436,0.012852043,0.0028486252,0.0,0.0,0.0
918.57574,400.98474,77898405,0.75,0.11702127,53.42649,-817.0626,0.0020234436,0.012852043,0.0028486252,0.0,0.0,0.0
916.8866,386.46887,77898421,0.75,0.09574468,-58.236195,-925.1761,0.0020234436,0.012852043,0.0028486252,0.0,0.0,0.0
912.7826,374.1626,77898438,0.75,0.09574468,-282.6375,-968.65656,0.0020234436,0.012852043,0.0028486252,0.0,0.0,0.0
908.60736,368.5255,77898455,0.7625,0.10638297,-426.77106,-661.2279,0.0020234436,0.012852043,0.0028486252,0.0,0.0,0.0
900.1796,362.97498,77898471,0.75,0.09574468,-559.07666,-315.4498,0.0020234436,0.012852043,0.0028486252,0.0,0.0,0.0
891.9974,360.43347,77898488,0.7625,0.10638297,-624.1322,-40.790634,0.0020234436,0.012852043,0.0028486252,0.0,0.0,0.0
884.9323,360.60864,77898505,0.7625,0.08510638,-597.72906,131.71237,0.0020234436,0.012852043,0.0028486252,0.0,0.0,0.0
878.9654,362.74902,77898522,0.7625,0.09574468,-488.64703,211.13539,0.0020234436,0.012852043,0.0028486252,0.0,0.0,0.0
873.97534,368.10413,77898538,0.7625,0.09574468,-339.09146,343.3274,0.0020234436,0.012852043,0.0028486252,0.0,0.0,0.0
868.95544,378.354,77898555,0.7625,0.09574468,-242.9437,622.0273,0.0020234436,0.012852043,0.0028486252,0.0,0.0,0.0
866.9061,385.76794,77898572,0.77500004,0.11702127,-180.59814,717.18414,0.0020234436,0.012852043,0.0028486252,0.0,0.0,0.0
867.52454,391.68372,77898588,0.7625,0.12765957,-17.592472,624.4124,0.0020234436,0.012852043,0.0028486252,0.0,0.0,0.0
869.77576,397.42944,77898605,0.75,0.12765957,195.1688,409.34897,0.0020234436,0.012852043,0.0028486252,0.0,0.0,0.0
876.38824,402.7804,77898622,0.75,0.09574468,399.7786,243.34973,0.0020234436,0.012852043,0.0028486252,0.0,0.0,0.0
887.5392,407.52173,77898639,0.75,0.09574468,654.1674,240.00652,0.0020234436,0.012852043,0.0028486252,0.0,0.0,0.0
902.08215,409.46118,77898655,0.75,0.10638297,968.28674,182.23782,0.0020234436,0.012852043,0.0028486252,0.0,0.0,0.0
914.0795,407.58105,77898672,0.7625,0.12765957,1049.241,-20.929792,0.0020234436,0.012852043,0.0028486252,0.0,0.0,0.0
928.61523,402.87146,77898689,0.7625,0.12765957,1021.8211,-289.42426,0.0020234436,0.012852043,0.0028486252,0.0,0.0,0.0
942.9833,396.23218,77898705,0.75,0.08510638,918.824,-518.78186,0.017618746,-0.013718352,-0.013720512,0.0,0.0,0.0
952.49335,387.73218,77898722,0.7625,0.08510638,759.1009,-652.86755,0.017618746,-0.013718352,-0.013720512,0.0,0.0,0.0
961.35156,376.5714,77898739,0.7375,0.09574468,600.7097,-757.5221,0.017618746,-0.013718352,-0.013720512,0.0,0.0,0.0
967.76843,366.64062,77898756,0.75,0.11702127,346.34485,-761.4805,0.017618746,-0.013718352,-0.013720512,0.0,0.0,0.0
971.9573,357.8346,77898772,0.7625,0.12765957,175.05464,-686.18896,0.017618746,-0.013718352,-0.013720512,0.0,0.0,0.0
974.27856,351.85364,77898789,0.7625,0.10638297,45.769894,-482.40765,0.017618746,-0.013718352,-0.013720512,0.0,0.0,0.0
977.3021,344.6803,77898806,0.7625,0.08510638,17.960829,-324.05872,0.017618746,-0.013718352,-0.013720512,0.0,0.0,0.0
978.1594,339.6891,77898822,0.77500004,0.09574468,13.147736,-263.98215,0.017618746,-0.013718352,-0.013720512,0.0,0.0,0.0
977.73035,337.63342,77898839,0.7875,0.09574468,-33.683693,-167.1328,0.017618746,-0.013718352,-0.013720512,0.0,0.0,0.0
977.1904,335.78503,77898856,0.7875,0.09574468,-86.27321,-54.735516,0.017618746,-0.013718352,-0.013720512,0.0,0.0,0.0
975.65015,335.7306,77898873,0.77500004,0.11702127,-139.9923,56.296497,0.017618746,-0.013718352,-0.013720512,0.0,0.0,0.0
974.61255,335.7306,77898889,0.7875,0.11702127,-140.73743,105.380005,0.017618746,-0.013718352,-0.013720512,0.0,0.0,0.0
972.4669,337.85315,77898906,0.7875,0.12765957,-130.78102,124.75086,0.017618746,-0.013718352,-0.013720512,0.0,0.0,0.0
971.0248,341.54883,77898923,0.7875,0.12765957,-129.1074,221.53993,0.017618746,-0.013718352,-0.013720512,0.0,0.0,0.0
971.8418,347.3545,77898939,0.77500004,0.11702127,-53.018948,357.5969,0.017618746,-0.013718352,-0.013720512,0.0,0.0,0.0
976.43835,356.31494,77898956,0.7625,0.08510638,143.16966,535.6971,0.017618746,-0.013718352,-0.013720512,0.0,0.0,0.0
984.19104,366.54846,77898973,0.75,0.08510638,445.2078,684.8362,0.017618746,-0.013718352,-0.013720512,0.0,0.0,0.0
996.86804,381.04468,77898990,0.7625,0.08510638,781.958,886.0437,0.017618746,-0.013718352,-0.013720512,0.0,0.0,0.0
1009.026,392.2202,77899006,0.725,0.12765957,963.00134,932.88086,0.017618746,-0.013718352,-0.013720512,0.0,0.0,0.0
1019.25024,399.66113,77899023,0.7375,0.12765957,919.38403,725.89825,0.017618746,-0.013718352,-0.013720512,0.0,0.0,0.0
1027.8545,405.39673,77899040,0.7375,0.10638297,698.89404,403.7926,0.017618746,-0.013718352,-0.013720512,0.0,0.0,0.0
1033.906,410.15588,77899056,0.75,0.08510638,416.25357,143.05865,0.017618746,-0.013718352,-0.013720512,0.0,0.0,0.0
1037.5933,413.0027,77899073,0.75,0.08510638,191.48886,60.379303,0.017618746,-0.013718352,-0.013720512,0.0,0.0,0.0
1039.684,415.77515,77899090,0.75,0.08510638,42.029537,57.99358,0.017618746,-0.013718352,-0.013720512,0.0,0.0,0.0
1039.5757,419.4762,77899106,0.7625,0.08510638,-70.599594,109.8331,0.017618746,-0.013718352,-0.013720512,0.0,0.0,0.0
1036.2124,422.29578,77899123,0.75,0.09574468,-223.25084,135.75029,0.017618746,-0.013718352,-0.013720512,0.0,0.0,0.0
1025.1447,428.13477,77899140,0.75,0.08510638,-517.1809,249.91792,0.017618746,-0.013718352,-0.013720512,0.0,0.0,0.0
1006.67615,432.46057,77899157,0.75,0.08510638,-1021.12665,324.28607,0.017618746,-0.013718352,-0.013720512,0.0,0.0,0.0
994.16785,434.7467,77899173,0.75,0.08510638,-1310.0079,262.8277,0.017618746,-0.013718352,-0.013720512,0.0,0.0,0.0
985.8439,436.59814,77899190,0.77500004,0.09574468,-1026.0707,142.159,0.017618746,-0.013718352,-0.013720512,0.0,0.0,0.0
981.75037,437.0199,77899207,0.7375,0.09574468,-433.60095,-6.1154647,0.017618746,-0.013718352,-0.013720512,0.0,0.0,0.0
980.1588,437.0199,77899218,0.3,0.09574468,-139.01837,-62.125977,0.017618746,-0.013718352,-0.013720512,0.0,0.0,0.0
980.1588,437.0199,77899225,0.3,0.09574468,-139.01837,-62.125977,0.017618746,-0.013718352,-0.013720512,0.0,0.0,0.0
