x,y,timestamp,pressure,fingerarea,velocityx,velocityy,accelx,accely,accelz,gyrox,gyroy,gyroz
134.4341,283.30884,126964620,0.8,0.08510638,0.0,0.0,0.034104317,-0.0073889196,-0.045414925,0.0,0.0,0.0
134.4341,283.30884,126964643,0.8875,0.08510638,0.0058793332,0.011738242,0.034104317,-0.0073889196,-0.045414925,0.0,0.0,0.0
134.4341,283.30884,126964662,0.8875,0.09574468,-0.0021126913,-0.005825573,0.034104317,-0.0073889196,-0.045414925,0.0,0.0,0.0
134.4341,283.30884,126964679,0.9375,0.09574468,5.531753E-4,0.0018677393,0.034104317,-0.0073889196,-0.045414925,0.0,0.0,0.0
134.4341,283.30884,126964695,0.875,0.10638297,0.0028312148,0.0054125623,0.034104317,-0.0073889196,-0.045414925,0.0,0.0,0.0
136.72314,311.5597,126964712,0.9375,0.08510638,66.67112,802.4518,0.034104317,-0.0073889196,-0.045414925,0.0,0.0,0.0
137.55986,329.74902,126964729,0.925,0.08510638,105.078,1562.7552,0.034104317,-0.0073889196,-0.045414925,0.0,0.0,0.0
139.65305,348.9934,126964746,0.875,0.12765957,139.60593,1852.6238,0.034104317,-0.0073889196,-0.045414925,0.0,0.0,0.0
141.21243,372.9834,126964762,0.90000004,0.08510638,135.11137,1724.2185,0.034104317,-0.0073889196,-0.045414925,0.0,0.0,0.0
139.93231,395.40503,126964779,0.9125,0.12765957,32.681217,1402.5237,0.034104317,-0.0073889196,-0.045414925,0.0,0.0,0.0
138.4461,420.67188,126964796,0.925,0.08510638,-88.28934,1404.0792,0.034104317,-0.0073889196,-0.045414925,0.0,0.0,0.0
136.94919,441.208,126964812,0.9125,0.08510638,-167.6735,1563.7574,0.034104317,-0.0073889196,-0.045414925,0.0,0.0,0.0
135.36523,457.54175,126964829,0.8875,0.09574468,-170.43619,1205.2977,0.034104317,-0.0073889196,-0.045414925,0.0,0.0,0.0
135.54044,470.33325,126964846,0.8625,0.08510638,-81.61037,794.941,0.034104317,-0.0073889196,-0.045414925,0.0,0.0,0.0
133.1439,478.40747,126964862,0.71250004,0.06382979,-50.63902,430.35907,0.034104317,-0.0073889196,-0.045414925,0.0,0.0,0.0
132.43475,479.6681,126964868,0.32500002,0.08510638,-65.432045,255.1898,0.034104317,-0.0073889196,-0.045414925,0.0,0.0,0.0
132.43475,479.6681,126964875,0.32500002,0.08510638,-65.432045,255.1898,0.034104317,-0.0073889196,-0.045414925,0.0,0.0,0.0
148.92938,283.30884,126965037,0.7875,0.09574468,0.0,0.0,0.03528346,0.026088893,-0.37233257,-6.710885E-6,0.0,0.0
148.92938,283.30884,126965063,0.875,0.09574468,4.166577E-4,7.4567E-4,0.03528346,0.026088893,-0.37233257,-6.710885E-6,0.0,0.0
148.92938,283.30884,126965080,0.875,0.09574468,0.0031567188,0.008875236,0.03528346,0.026088893,-0.37233257,-6.710885E-6,0.0,0.0
148.92938,283.30884,126965096,0.875,0.09574468,0.0064509776,0.012511239,0.03528346,0.026088893,-0.37233257,0.0,0.0,0.0
148.92938,283.30884,126965113,0.8875,0.09574468,0.003183177,0.0062653907,0.03528346,0.026088893,-0.37233257,0.0,0.0,0.0
148.92938,283.30884,126965130,0.925,0.09574468,-0.002251092,-0.0051944954,0.03528346,0.026088893,-0.37233257,0.0,0.0,0.0
148.92938,283.30884,126965147,0.95,0.09574468,0.0027960183,0.0038909414,0.03528346,0.026088893,-0.37233257,0.0,0.0,0.0
148.92938,283.30884,126965163,0.9125,0.09574468,0.015108604,0.028048167,0.03528346,0.026088893,-0.37233257,0.0,0.0,0.0
148.92938,283.30884,126965180,0.90000004,0.11702127,0.0073397616,0.013070291,0.03528346,0.026088893,-0.37233257,0.0,0.0,0.0
159.45872,308.511,126965197,0.9375,0.08510638,269.9577,616.8173,0.03528346,0.026088893,-0.37233257,0.0,0.0,0.0
168.8083,331.88562,126965213,0.875,0.08510638,637.5081,1551.641,0.03528346,0.026088893,-0.37233257,0.0,0.0,0.0
178.63628,354.07788,126965230,0.8625,0.08510638,814.7304,1944.3158,0.03528346,0.026088893,-0.37233257,0.0,0.0,0.0
185.99483,365.96338,126965247,0.77500004,0.07446808,738.8923,1611.1477,0.03528346,0.026088893,-0.37233257,0.0,0.0,0.0
195.45789,375.75195,126965264,0.8,0.09574468,582.7056,848.59125,0.03528346,0.026088893,-0.37233257,0.0,0.0,0.0
208.0957,378.76807,126965280,0.83750004,0.07446808,601.7618,131.51122,0.03528346,0.026088893,-0.37233257,0.0,0.0,0.0
222.04117,370.54993,126965297,0.8625,0.08510638,801.2579,-396.39905,0.03528346,0.026088893,-0.37233257,0.0,0.0,0.0
234.23825,354.5664,126965314,0.875,0.12765957,910.9264,-1123.268,0.03528346,0.026088893,-0.37233257,0.0,0.0,0.0
250.22165,323.9259,126965330,0.8625,0.09574468,909.46277,-1840.2322,0.03528346,0.026088893,-0.37233257,0.0,0.0,0.0
262.8049,294.1123,126965347,0.8625,0.10638297,916.7021,-2498.834,0.03528346,0.026088893,-0.37233257,0.0,0.0,0.0
269.94977,272.48755,126965364,0.90000004,0.08510638,668.6374,-2295.4448,0.03528346,0.026088893,-0.37233257,0.0,0.0,0.0
274.14005,261.0912,126965380,0.90000004,0.09574468,314.84314,-1412.0557,0.03528346,0.026088893,-0.37233257,0.0,0.0,0.0
276.21893,256.9541,126965397,0.95,0.12765957,-28.207943,-295.60068,0.03528346,0.026088893,-0.37233257,0.0,0.0,0.0
278.30368,254.0625,126965414,0.925,0.09574468,-167.10123,385.61792,0.03528346,0.026088893,-0.37233257,0.0,0.0,0.0
280.88824,254.87842,126965431,0.9375,0.08510638,-1.1842312,382.68262,0.03528346,0.026088893,-0.37233257,0.0,0.0,0.0
284.55115,267.97913,126965447,0.925,0.08510638,108.12947,694.01166,0.03528346,0.026088893,-0.37233257,0.0,0.0,0.0
283.88544,290.7124,126965464,0.90000004,0.10638297,97.57907,1260.805,0.03528346,0.026088893,-0.37233257,0.0,0.0,0.0
279.86462,324.6089,126965481,0.9125,0.08510638,-97.78845,2066.6194,0.03528346,0.026088893,-0.37233257,0.0,0.0,0.0
276.12952,352.67236,126965497,0.8875,0.10638297,-300.8312,2481.7563,0.03528346,0.026088893,-0.37233257,0.0,0.0,0.0
271.71262,380.05762,126965514,0.875,0.08510638,-425.9497,2380.615,0.03528346,0.026088893,-0.37233257,0.0,0.0,0.0
270.38983,403.41223,126965531,0.85,0.10638297,-292.22528,1745.6838,0.03528346,0.026088893,-0.37233257,0.0,0.0,0.0
270.1132,429.59375,126965548,0.85,0.07446808,-70.886536,1404.0219,0.03528346,0.026088893,-0.37233257,0.0,0.0,0.0
269.57343,449.42993,126965564,0.825,0.12765957,59.371464,1203.9592,0.03528346,0.026088893,-0.37233257,0.0,0.0,0.0
270.74554,468.47693,126965581,0.8125,0.08510638,121.84264,1066.9375,0.004226759,0.036871105,0.10213375,0.0,0.0,0.0
272.67142,477.50427,126965598,0.7375,0.07446808,135.04237,756.1467,0.004226759,0.036871105,0.10213375,0.0,0.0,0.0
273.38885,478.77966,126965608,0.2875,0.09574468,142.69603,433.2282,0.004226759,0.036871105,0.10213375,0.0,0.0,0.0
273.38885,478.77966,126965615,0.2875,0.09574468,142.69603,433.2282,0.004226759,0.036871105,0.10213375,0.0,0.0,0.0
345.86526,358.83167,126965752,0.8125,0.09574468,0.0,0.0,0.004226759,0.036871105,0.10213375,0.0,0.0,0.0
345.86526,358.83167,126965782,0.8875,0.09574468,0.027742904,0.029971361,0.004226759,0.036871105,0.10213375,0.0,0.0,0.0
345.86526,358.83167,126965798,0.90000004,0.08510638,0.009727547,0.010395088,0.004226759,0.036871105,0.10213375,0.0,0.0,0.0
341.2882,375.91736,126965815,0.8875,0.08510638,-205.86006,768.45636,0.004226759,0.036871105,0.10213375,0.0,0.0,0.0
337.91745,391.80164,126965832,0.90000004,0.10638297,-319.0609,1241.4147,0.004226759,0.036871105,0.10213375,0.0,0.0,0.0
340.34183,409.3418,126965848,0.9125,0.09574468,-179.14046,1441.9315,0.004226759,0.036871105,0.10213375,0.0,0.0,0.0
346.06564,424.16724,126965865,0.8875,0.08510638,192.13898,1364.8215,0.004226759,0.036871105,0.10213375,0.0,0.0,0.0
350.8135,430.44495,126965882,0.85,0.08510638,460.57626,809.51874,0.004226759,0.036871105,0.10213375,0.0,0.0,0.0
361.70038,435.6759,126965898,0.83750004,0.09574468,693.5896,271.70505,0.004226759,0.036871105,0.10213375,0.0,0.0,0.0
374.58185,431.66455,126965915,0.83750004,0.06382979,835.10693,-177.15808,0.004226759,0.036871105,0.10213375,0.0,0.0,0.0
388.956,416.18982,126965932,0.8125,0.10638297,986.17,-820.8508,0.004226759,0.036871105,0.10213375,0.0,0.0,0.0
397.92822,399.6952,126965949,0.85,0.08510638,931.1801,-1340.9745,0.004226759,0.036871105,0.10213375,0.0,0.0,0.0
403.34656,382.11475,126965965,0.90000004,0.08510638,561.89154,-1613.2667,0.004226759,0.036871105,0.10213375,0.0,0.0,0.0
401.42358,373.18347,126965982,0.90000004,0.08510638,6.1408215,-1216.8859,0.004226759,0.036871105,0.10213375,0.0,0.0,0.0
397.5667,368.64453,126965999,0.9375,0.10638297,-445.25348,-484.66968,0.004226759,0.036871105,0.10213375,0.0,0.0,0.0
390.1164,365.24548,126966015,0.90000004,0.10638297,-691.10297,13.864316,0.004226759,0.036871105,0.10213375,0.0,0.0,0.0
379.75977,367.4485,126966032,0.925,0.09574468,-798.2019,289.02893,0.004226759,0.036871105,0.10213375,0.0,0.0,0.0
363.7931,377.1599,126966049,0.9125,0.08510638,-980.2048,537.94507,0.004226759,0.036871105,0.10213375,0.0,0.0,0.0
342.689,390.93774,126966066,0.925,0.12765957,-1299.9741,924.845,0.004226759,0.036871105,0.10213375,0.0,0.0,0.0
329.5981,404.13037,126966082,0.925,0.11702127,-1280.0702,1143.3395,0.004226759,0.036871105,0.10213375,0.0,0.0,0.0
317.47372,427.40198,126966099,0.9125,0.09574468,-1015.07434,1370.7389,0.004226759,0.036871105,0.10213375,0.0,0.0,0.0
314.12103,442.38354,126966116,0.90000004,0.12765957,-497.55243,1388.4008,0.004226759,0.036871105,0.10213375,0.0,0.0,0.0
313.87173,456.25208,126966132,0.8875,0.11702127,28.461607,1181.0524,0.004226759,0.036871105,0.10213375,0.0,0.0,0.0
319.43973,472.67712,126966149,0.90000004,0.08510638,441.63712,992.74615,-0.012618594,-0.002503097,0.017706871,0.0,0.0,0.0
328.34192,485.4132,126966166,0.875,0.08510638,777.65375,707.53845,-0.012618594,-0.002503097,0.017706871,0.0,0.0,0.0
344.84225,496.4452,126966183,0.875,0.09574468,1073.9717,633.9689,-0.012618594,-0.002503097,0.017706871,0.0,0.0,0.0
359.56143,500.10364,126966199,0.85,0.11702127,1247.7251,426.08502,-0.012618594,-0.002503097,0.017706871,0.0,0.0,0.0
377.77835,494.2256,126966216,0.825,0.08510638,1307.0215,-176.73628,-0.012618594,-0.002503097,0.017706871,0.0,0.0,0.0
383.35306,487.66467,126966227,0.3625,0.10638297,1214.6069,-567.8201,-0.012618594,-0.002503097,0.017706871,0.0,0.0,0.0
383.35306,487.66467,126966233,0.3625,0.10638297,1214.6069,-567.8201,-0.012618594,-0.002503097,0.017706871,0.0,0.0,0.0
415.34265,201.56665,126966395,0.875,0.10638297,0.0,0.0,-0.012618594,-0.002503097,0.017706871,0.0,0.0,0.0
415.34265,201.56665,126966416,0.95,0.12765957,0.011159377,0.0055951136,-0.012618594,-0.002503097,0.017706871,0.0,0.0,0.0
415.34265,201.56665,126966433,0.975,0.12765957,0.0101571735,0.0053077275,-0.012618594,-0.002503097,0.017706871,0.0,0.0,0.0
415.34265,201.56665,126966450,0.975,0.12765957,0.0012686825,3.8935285E-4,-0.012618594,-0.002503097,0.017706871,0.0,0.0,0.0
408.90814,217.08936,126966467,0.95,0.08510638,-192.11938,463.47955,-0.012618594,-0.002503097,0.017706871,0.0,0.0,0.0
402.35486,234.41748,126966483,0.9375,0.10638297,-454.8419,1128.9308,-0.012618594,-0.002503097,0.017706871,0.0,0.0,0.0
400.80887,247.97412,126966500,0.4875,0.08510638,-432.63028,1438.6296,-0.012618594,-0.002503097,0.017706871,0.0,0.0,0.0
400.34753,249.54578,126966508,0.175,0.07446808,-391.5905,1368.3553,-0.012618594,-0.002503097,0.017706871,0.0,0.0,0.0
400.34753,249.54578,126966515,0.175,0.07446808,-391.5905,1368.3553,-0.012618594,-0.002503097,0.017706871,0.0,0.0,0.0
390.85062,497.43823,126967691,0.7875,0.08510638,0.0,0.0,-0.027275905,0.004798025,-0.017467499,0.0,0.0,0.0
390.85062,497.43823,126967720,0.8125,0.08510638,-0.003995696,-0.004388964,-0.027275905,0.004798025,-0.017467499,0.0,0.0,0.0
390.85062,497.43823,126967737,0.875,0.08510638,-0.030319544,-0.035598863,-0.027275905,0.004798025,-0.017467499,0.0,0.0,0.0
407.35712,486.62805,126967753,0.8625,0.08510638,643.9326,-421.6361,-0.027275905,0.004798025,-0.017467499,0.0,0.0,0.0
425.7588,471.26855,126967770,0.8625,0.11702127,1380.6703,-1017.1385,-0.027275905,0.004798025,-0.017467499,0.0,0.0,0.0
442.99646,455.52527,126967787,0.83750004,0.08510638,1539.702,-1254.1725,-0.027275905,0.004798025,-0.017467499,0.0,0.0,0.0
455.7636,437.13696,126967804,0.83750004,0.08510638,1409.1477,-1429.593,-0.027275905,0.004798025,-0.017467499,0.0,0.0,0.0
468.14728,408.95398,126967820,0.85,0.12765957,941.3508,-1589.6375,-0.005820729,-0.028161585,0.05002594,0.0,0.0,0.0
472.3219,393.27014,126967837,0.875,0.09574468,341.86356,-1465.6437,-0.005820729,-0.028161585,0.05002594,0.0,0.0,0.0
474.5199,376.4729,126967854,0.875,0.09574468,68.70023,-1293.6497,-0.005820729,-0.028161585,0.05002594,0.0,0.0,0.0
473.61725,369.28174,126967870,0.8875,0.11702127,-209.36214,-781.6821,-0.005820729,-0.028161585,0.05002594,0.0,0.0,0.0
472.5871,365.51868,126967887,0.8875,0.10638297,-310.95554,-98.70814,-0.005820729,-0.028161585,0.05002594,0.0,0.0,0.0
470.75287,363.65466,126967904,0.8875,0.10638297,-283.03088,199.11568,-0.005820729,-0.028161585,0.05002594,0.0,0.0,0.0
469.49908,363.27417,126967921,0.9125,0.10638297,-192.75621,262.06763,-0.005820729,-0.028161585,0.05002594,0.0,0.0,0.0
468.4651,366.7234,126967937,0.90000004,0.08510638,-106.6579,282.58136,-0.005820729,-0.028161585,0.05002594,0.0,0.0,0.0
470.43555,380.54956,126967954,0.875,0.08510638,-1.9132192,611.6508,-0.005820729,-0.028161585,0.05002594,0.0,0.0,0.0
476.49304,392.995,126967971,0.85,0.12765957,242.60301,1003.633,-0.005820729,-0.028161585,0.05002594,0.0,0.0,0.0
492.0287,408.34338,126967987,0.8125,0.10638297,665.6421,1193.773,-0.005820729,-0.028161585,0.05002594,0.0,0.0,0.0
508.91162,422.3639,126968004,0.8625,0.08510638,1169.1996,1133.8434,-0.005820729,-0.028161585,0.05002594,0.0,0.0,0.0
522.05365,432.29138,126968021,0.825,0.09574468,1312.7689,861.4685,-0.005820729,-0.028161585,0.05002594,0.0,0.0,0.0
529.48596,438.51306,126968037,0.825,0.11702127,976.02576,523.265,-0.005820729,-0.028161585,0.05002594,0.0,0.0,0.0
533.07086,442.8247,126968054,0.8125,0.12765957,405.2765,235.58984,-0.005820729,-0.028161585,0.05002594,0.0,0.0,0.0
535.53827,451.1278,126968071,0.825,0.12765957,-56.21526,129.9763,-0.005820729,-0.028161585,0.05002594,0.0,0.0,0.0
532.1672,455.5985,126968088,0.8,0.10638297,-315.0445,236.84044,-0.005820729,-0.028161585,0.05002594,0.0,0.0,0.0
521.3062,462.00342,126968104,0.8125,0.09574468,-573.8068,340.10507,-0.005820729,-0.028161585,0.05002594,0.0,0.0,0.0
508.26532,466.53503,126968121,0.83750004,0.08510638,-981.7234,344.4903,-0.005820729,-0.028161585,0.05002594,0.0,0.0,0.0
499.69702,469.58118,126968138,0.825,0.08510638,-1045.4498,221.89847,-0.005820729,-0.028161585,0.05002594,0.0,0.0,0.0
494.73547,471.42358,126968154,0.675,0.08510638,-680.6225,105.0603,-0.005820729,-0.028161585,0.05002594,0.0,0.0,0.0
494.31696,471.67163,126968156,0.3125,0.09574468,-621.5457,95.59968,-0.005820729,-0.028161585,0.05002594,0.0,0.0,0.0
494.31696,471.67163,126968164,0.3125,0.09574468,-621.5457,95.59968,-0.005820729,-0.028161585,0.05002594,0.0,0.0,0.0
541.80145,426.3579,126968309,0.75,0.07446808,0.0,0.0,-0.005820729,-0.028161585,0.05002594,0.0,0.0,0.0
541.80145,426.3579,126968338,0.825,0.09574468,-0.043318775,-0.030714577,-0.005820729,-0.028161585,0.05002594,0.0,0.0,0.0
541.80145,426.3579,126968355,0.8,0.12765957,0.051070955,0.041882806,-0.005820729,-0.028161585,0.05002594,0.0,0.0,0.0
530.203,401.35205,126968372,0.875,0.10638297,-598.472,-1247.3634,-0.005820729,-0.028161585,0.05002594,0.0,0.0,0.0
531.12915,385.11548,126968388,0.85,0.09574468,-441.09296,-1534.939,-0.004656583,0.009470731,0.040020943,0.0,0.0,0.0
535.6934,371.51514,126968405,0.85,0.09574468,-102.21143,-1511.1008,-0.004656583,0.009470731,0.040020943,0.0,0.0,0.0
546.3191,359.70166,126968422,0.85,0.10638297,503.0505,-1144.6544,-0.004656583,0.009470731,0.040020943,0.0,0.0,0.0
562.71265,350.42725,126968439,0.85,0.12765957,1116.4148,-603.81915,-0.004656583,0.009470731,0.040020943,0.0,0.0,0.0
577.99884,348.16968,126968455,0.825,0.12765957,1362.7815,-149.09273,-0.004656583,0.009470731,0.040020943,0.0,0.0,0.0
590.56116,352.45178,126968472,0.85,0.10638297,1162.451,207.08461,-0.004656583,0.009470731,0.040020943,0.0,0.0,0.0
600.2072,362.82397,126968489,0.85,0.08510638,847.1184,685.9904,-0.004656583,0.009470731,0.040020943,0.0,0.0,0.0
609.3895,379.7339,126968505,0.825,0.08510638,523.9358,1151.377,-0.004656583,0.009470731,0.040020943,0.0,0.0,0.0
616.29346,404.34717,126968522,0.825,0.10638297,365.07626,1634.3214,-0.004656583,0.009470731,0.040020943,0.0,0.0,0.0
614.7881,429.5161,126968539,0.8,0.06382979,114.77572,1926.5852,-0.004656583,0.009470731,0.040020943,0.0,0.0,0.0
607.47424,446.4276,126968555,0.7875,0.12765957,-395.8032,1703.6832,-0.004656583,0.009470731,0.040020943,0.0,0.0,0.0
601.53,454.79236,126968572,0.7875,0.10638297,-748.0422,1007.40894,-0.004656583,0.009470731,0.040020943,0.0,0.0,0.0
591.17017,463.04614,126968589,0.7875,0.08510638,-876.44495,292.4595,-0.004656583,0.009470731,0.040020943,0.0,0.0,0.0
578.3513,466.2638,126968606,0.825,0.08510638,-869.51044,-71.766525,-0.004656583,0.009470731,0.040020943,0.0,0.0,0.0
568.8234,463.68604,126968622,0.8,0.09574468,-809.18317,-269.34387,-0.004656583,0.009470731,0.040020943,0.0,0.0,0.0
564.6872,459.9945,126968639,0.8625,0.10638297,-567.0488,-415.64655,-0.004656583,0.009470731,0.040020943,0.0,0.0,0.0
563.7943,455.26526,126968656,0.875,0.09574468,-179.36865,-508.16486,-0.004656583,0.009470731,0.040020943,0.0,0.0,0.0
565.6571,450.80542,126968672,0.825,0.08510638,214.10112,-514.85175,-0.004656583,0.009470731,0.040020943,0.0,0.0,0.0
575.8461,446.12927,126968689,0.83750004,0.09574468,581.8656,-391.81317,-0.004656583,0.009470731,0.040020943,0.0,0.0,0.0
595.68677,445.36328,126968706,0.83750004,0.08510638,1089.8289,-214.21739,-0.004656583,0.009470731,0.040020943,0.0,0.0,0.0
616.0053,448.51685,126968723,0.825,0.09574468,1593.1766,82.00583,-0.004656583,0.009470731,0.040020943,0.0,0.0,0.0
633.80426,452.21582,126968739,0.825,0.12765957,1672.4178,337.03265,-0.004656583,0.009470731,0.040020943,0.0,0.0,0.0
651.7319,459.6875,126968756,0.825,0.12765957,1348.6289,524.42645,-0.004656583,0.009470731,0.040020943,0.0,0.0,0.0
666.664,465.5421,126968773,0.8125,0.09574468,971.70044,567.27673,-0.004656583,0.009470731,0.040020943,0.0,0.0,0.0
675.9987,469.50916,126968789,0.77500004,0.08510638,665.76044,444.87592,-0.004656583,0.009470731,0.040020943,0.0,0.0,0.0
680.9703,471.54456,126968806,0.7375,0.08510638,334.9215,239.42453,-0.004656583,0.009470731,0.040020943,0.0,0.0,0.0
682.25574,471.67163,126968816,0.2,0.08510638,136.73679,122.10424,-0.004656583,0.009470731,0.040020943,0.0,0.0,0.0
682.25574,471.67163,126968822,0.2,0.08510638,136.73679,122.10424,-0.004656583,0.009470731,0.040020943,0.0,0.0,0.0
595.78394,405.0338,126968944,0.8,0.12765957,0.0,0.0,-0.004656583,0.009470731,0.040020943,0.0,0.0,0.0
595.78394,405.0338,126968973,0.85,0.12765957,0.027792683,0.015703231,-0.035725266,-0.03242342,0.10401726,0.0,0.0,0.0
595.78394,405.0338,126968990,0.8625,0.12765957,0.02808536,0.020027166,-0.035725266,-0.03242342,0.10401726,0.0,0.0,0.0
609.45197,403.6046,126969007,0.85,0.12765957,488.95255,-51.132427,-0.035725266,-0.03242342,0.10401726,0.0,0.0,0.0
628.8095,402.3683,126969023,0.8125,0.12765957,1273.337,-112.88591,-0.035725266,-0.03242342,0.10401726,0.0,0.0,0.0
651.24005,392.00134,126969040,0.55,0.12765957,1566.7854,-276.77396,-0.035725266,-0.03242342,0.10401726,0.0,0.0,0.0
651.7657,391.7063,126969040,0.1875,0.08510638,1598.9734,-343.62418,-0.035725266,-0.03242342,0.10401726,0.0,0.0,0.0
651.7657,391.7063,126969048,0.1875,0.08510638,1598.9734,-343.62418,-0.035725266,-0.03242342,0.10401726,0.0,0.0,0.0
767.7279,390.81775,126969225,0.7625,0.08510638,0.0,0.0,-0.035725266,-0.03242342,0.10401726,0.0,0.0,0.0
767.7279,390.81775,126969257,0.83750004,0.08510638,0.04943875,0.026610197,-0.035725266,-0.03242342,0.10401726,0.0,0.0,0.0
767.7279,390.81775,126969269,0.825,0.08510638,-0.068750255,-0.037363067,-0.035725266,-0.03242342,0.10401726,0.0,0.0,0.0
767.7279,390.81775,126969289,0.85,0.09574468,0.024302855,0.012963652,-0.035725266,-0.03242342,0.10401726,0.0,0.0,0.0
748.827,375.1388,126969307,0.825,0.08510638,-571.5259,-474.08557,-0.035725266,-0.03242342,0.10401726,0.0,0.0,0.0
727.52936,371.5083,126969324,0.85,0.08510638,-1197.5117,-623.58356,-0.035725266,-0.03242342,0.10401726,0.0,0.0,0.0
709.7295,377.14307,126969341,0.83750004,0.09574468,-1682.8824,-292.84525,-0.035725266,-0.03242342,0.10401726,0.0,0.0,0.0
693.17664,385.82776,126969358,0.8125,0.08510638,-1586.35,380.72345,-0.035725266,-0.03242342,0.10401726,0.0,0.0,0.0
676.97174,396.84692,126969374,0.825,0.10638297,-969.0019,1126.4916,-0.035725266,-0.03242342,0.10401726,0.0,0.0,0.0
668.5974,408.8772,126969391,0.8625,0.08510638,-572.29346,1149.4941,-0.035725266,-0.03242342,0.10401726,0.0,0.0,0.0
661.1979,427.8495,126969408,0.8125,0.08510638,-342.33865,1139.0798,-0.035725266,-0.03242342,0.10401726,0.0,0.0,0.0
662.0593,441.2688,126969424,0.83750004,0.10638297,30.74809,1145.5095,-0.035725266,-0.03242342,0.10401726,0.0,0.0,0.0
666.8662,448.10315,126969441,0.83750004,0.10638297,426.5338,845.6949,-0.035725266,-0.03242342,0.10401726,0.0,0.0,0.0
679.8577,458.12598,126969458,0.825,0.10638297,806.5432,523.89594,-0.035725266,-0.03242342,0.10401726,0.0,0.0,0.0
697.00275,460.1211,126969475,0.8,0.12765957,1236.8201,133.89502,-0.035725266,-0.03242342,0.10401726,0.0,0.0,0.0
718.4013,453.41187,126969491,0.8,0.09574468,1532.3209,-278.153,-0.035725266,-0.03242342,0.10401726,0.0,0.0,0.0
736.0821,439.20935,126969508,0.8125,0.08510638,1561.1625,-817.4933,-0.035725266,-0.03242342,0.10401726,0.0,0.0,0.0
746.8392,423.91406,126969525,0.8125,0.11702127,1149.7386,-1276.0927,0.0034197867,-0.0019387603,-0.0047864914,0.0,0.0,0.0
753.6375,411.00598,126969541,0.825,0.12765957,578.3736,-1347.6967,0.0034197867,-0.0019387603,-0.0047864914,0.0,0.0,0.0
753.7325,407.312,126969558,0.83750004,0.12765957,8.717471,-884.5398,0.0034197867,-0.0019387603,-0.0047864914,0.0,0.0,0.0
753.7325,405.46606,126969575,0.875,0.13829787,-317.90164,-140.07605,0.0034197867,-0.0019387603,-0.0047864914,0.0,0.0,0.0
753.43524,405.0338,126969591,0.83750004,0.12765957,-294.00378,207.06203,0.0034197867,-0.0019387603,-0.0047864914,0.0,0.0,0.0
752.233,407.71582,126969608,0.8625,0.11702127,-234.27856,349.1861,0.0034197867,-0.0019387603,-0.0047864914,0.0,0.0,0.0
749.9841,420.13562,126969625,0.8125,0.09574468,-168.19875,596.8279,0.0034197867,-0.0019387603,-0.0047864914,0.0,0.0,0.0
749.23395,434.93054,126969642,0.825,0.09574468,-142.1597,990.86957,0.0034197867,-0.0019387603,-0.0047864914,0.0,0.0,0.0
751.08746,444.6709,126969658,0.7875,0.11702127,-36.10366,1148.0432,0.0034197867,-0.0019387603,-0.0047864914,0.0,0.0,0.0
756.69574,451.20422,126969675,0.7375,0.12765957,199.31406,847.3996,0.0034197867,-0.0019387603,-0.0047864914,0.0,0.0,0.0
758.73083,453.01306,126969683,0.25,0.12765957,328.04135,614.96234,0.0034197867,-0.0019387603,-0.0047864914,0.0,0.0,0.0
758.73083,453.01306,126969690,0.25,0.12765957,328.04135,614.96234,0.0034197867,-0.0019387603,-0.0047864914,0.0,0.0,0.0
727.74097,236.21826,126969900,0.83750004,0.12765957,0.0,0.0,0.0034197867,-0.0019387603,-0.0047864914,0.0,0.0,0.0
727.74097,236.21826,126969926,0.8875,0.10638297,-0.11191766,-0.038766302,0.0034197867,-0.0019387603,-0.0047864914,0.0,0.0,0.0
727.74097,236.21826,126969937,0.90000004,0.10638297,-0.06552392,-0.019766655,0.0034197867,-0.0019387603,-0.0047864914,0.0,0.0,0.0
734.1929,259.11523,126969959,0.875,0.08510638,314.4619,1097.1486,0.0034197867,-0.0019387603,-0.0047864914,0.0,0.0,0.0
740.6663,283.42163,126969976,0.8125,0.12765957,493.07285,1809.0375,0.0034197867,-0.0019387603,-0.0047864914,0.0,0.0,0.0
745.7351,307.29846,126969989,0.6125,0.08510638,558.3945,2171.388,0.0034197867,-0.0019387603,-0.0047864914,0.0,0.0,0.0
745.7351,307.29846,126969996,0.6125,0.08510638,558.3945,2171.388,0.0034197867,-0.0019387603,-0.0047864914,0.0,0.0,0.0
769.7273,449.45898,126970230,0.7,0.08510638,0.0,0.0,-0.013264172,0.014449,0.028170586,0.0,0.0,0.0
769.7273,449.45898,126970260,0.7625,0.10638297,0.052040353,0.02744391,-0.013264172,0.014449,0.028170586,0.0,0.0,0.0
769.7273,449.45898,126970277,0.77500004,0.09574468,0.048902117,0.027645828,-0.013264172,0.014449,0.028170586,0.0,0.0,0.0
769.7273,449.45898,126970293,0.83750004,0.09574468,0.052488618,0.029226478,-0.013264172,0.014449,0.028170586,0.0,0.0,0.0
789.54144,442.41467,126970310,0.83750004,0.08510638,495.7484,-176.22707,-0.013264172,0.014449,0.028170586,0.0,0.0,0.0
802.2871,431.1432,126970327,0.825,0.09574468,1077.5729,-570.0804,-0.013264172,0.014449,0.028170586,0.0,0.0,0.0
817.2102,413.58765,126970343,0.83750004,0.12765957,1353.5161,-1052.2125,-0.013264172,0.014449,0.028170586,0.0,0.0,0.0
830.73914,389.0161,126970360,0.8125,0.06382979,1249.1456,-1522.5424,-0.013264172,0.014449,0.028170586,0.0,0.0,0.0
842.67664,359.86365,126970377,0.83750004,0.12765957,945.73254,-2036.6434,-0.013264172,0.014449,0.028170586,0.0,0.0,0.0
845.2027,346.39465,126970394,0.8625,0.10638297,355.18176,-1747.631,-0.013264172,0.014449,0.028170586,0.0,0.0,0.0
844.2184,338.88123,126970410,0.8625,0.08510638,-77.69342,-854.6279,-0.013264172,0.014449,0.028170586,0.0,0.0,0.0
842.1414,335.23096,126970427,0.8875,0.08510638,-447.28653,13.72812,-0.013264172,0.014449,0.028170586,0.0,0.0,0.0
838.738,332.4923,126970444,0.85,0.08510638,-542.97626,412.633,-0.013264172,0.014449,0.028170586,0.0,0.0,0.0
835.1304,331.2881,126970460,0.825,0.08510638,-365.86545,187.58723,-0.013264172,0.014449,0.028170586,0.0,0.0,0.0
832.9117,331.9944,126970477,0.83750004,0.08510638,-272.289,144.25092,-0.013264172,0.014449,0.028170586,0.0,0.0,0.0
834.0131,336.27576,126970494,0.83750004,0.09574468,-101.55373,227.85732,-0.013264172,0.014449,0.028170586,0.0,0.0,0.0
842.3505,346.0265,126970511,0.8125,0.12765957,250.24832,482.02377,-0.013264172,0.014449,0.028170586,0.0,0.0,0.0
859.09406,359.09082,126970527,0.825,0.09574468,880.30975,858.1302,-0.013264172,0.014449,0.028170586,0.0,0.0,0.0
874.4954,369.15356,126970544,0.8125,0.08510638,1294.9764,966.2027,-0.013264172,0.014449,0.028170586,0.0,0.0,0.0
887.4837,378.1963,126970561,0.825,0.08510638,1322.2688,840.15533,-0.013264172,0.014449,0.028170586,0.0,0.0,0.0
893.09314,383.30225,126970577,0.83750004,0.10638297,844.13416,503.25497,-0.013264172,0.014449,0.028170586,0.0,0.0,0.0
895.18646,391.69897,126970594,0.85,0.10638297,208.36526,286.80554,0.0053886697,-0.0044408143,0.022536278,0.0,0.0,0.0
892.16315,404.57544,126970611,0.85,0.09574468,-288.9604,446.26834,0.0053886697,-0.0044408143,0.022536278,0.0,0.0,0.0
884.3812,419.76868,126970628,0.875,0.08510638,-633.60645,885.16766,0.0053886697,-0.0044408143,0.022536278,0.0,0.0,0.0
875.1156,435.02173,126970644,0.825,0.11702127,-775.2586,1088.3668,0.0053886697,-0.0044408143,0.022536278,0.0,0.0,0.0
868.33954,448.63,126970661,0.8125,0.12765957,-799.7851,1093.1344,0.0053886697,-0.0044408143,0.022536278,0.0,0.0,0.0
865.31934,457.46863,126970678,0.77500004,0.11702127,-510.1326,775.2911,0.0053886697,-0.0044408143,0.022536278,0.0,0.0,0.0
865.69604,463.37622,126970694,0.71250004,0.09574468,-73.35443,418.68445,0.0053886697,-0.0044408143,0.022536278,0.0,0.0,0.0
865.69604,463.67505,126970696,0.4375,0.09574468,-40.124264,382.69547,0.0053886697,-0.0044408143,0.022536278,0.0,0.0,0.0
865.69604,463.67505,126970704,0.4375,0.09574468,-40.124264,382.69547,0.0053886697,-0.0044408143,0.022536278,0.0,0.0,0.0
981.6583,381.0443,126970825,0.77500004,0.08510638,0.0,0.0,0.0053886697,-0.0044408143,0.022536278,0.0,0.0,0.0
981.6583,381.0443,126970845,0.825,0.09574468,0.06784746,0.026289636,0.0053886697,-0.0044408143,0.022536278,0.0,0.0,0.0
981.6583,381.0443,126970861,0.8125,0.09574468,-0.018136915,-0.007366485,0.0053886697,-0.0044408143,0.022536278,0.0,0.0,0.0
959.6935,382.2782,126970878,0.85,0.08510638,-1378.8488,56.185143,0.0053886697,-0.0044408143,0.022536278,0.0,0.0,0.0
945.99884,387.5619,126970895,0.875,0.10638297,-1480.7361,274.7964,0.0053886697,-0.0044408143,0.022536278,0.0,0.0,0.0
933.1135,395.5067,126970912,0.825,0.12765957,-1321.9746,472.41815,0.0053886697,-0.0044408143,0.022536278,0.0,0.0,0.0
927.3772,402.08215,126970928,0.8125,0.11702127,-794.77716,594.84076,0.0053886697,-0.0044408143,0.022536278,0.0,0.0,0.0
919.64185,417.57715,126970945,0.85,0.09574468,-213.76407,833.5242,0.0053886697,-0.0044408143,0.022536278,0.0,0.0,0.0
917.6299,433.27832,126970962,0.8125,0.09574468,-17.08469,1043.2983,0.0053886697,-0.0044408143,0.022536278,0.0,0.0,0.0
919.93976,444.16846,126970978,0.8125,0.12765957,155.18146,1025.2745,0.0053886697,-0.0044408143,0.022536278,0.0,0.0,0.0
925.6672,451.0077,126970995,0.85,0.12765957,407.52933,748.1687,0.0053886697,-0.0044408143,0.022536278,0.0,0.0,0.0
935.4436,456.25476,126971012,0.8125,0.10638297,681.95306,346.91473,0.0053886697,-0.0044408143,0.022536278,0.0,0.0,0.0
951.48834,456.71802,126971029,0.8,0.12765957,1019.15704,-16.393646,0.0053886697,-0.0044408143,0.022536278,0.0,0.0,0.0
964.8723,450.81628,126971045,0.825,0.11702127,1149.1405,-331.44818,0.0053886697,-0.0044408143,0.022536278,0.0,0.0,0.0
975.79517,439.188,126971062,0.825,0.08510638,1019.5281,-739.9241,0.0053886697,-0.0044408143,0.022536278,0.0,0.0,0.0
984.38794,425.0598,126971079,0.825,0.09574468,688.0722,-1120.7765,0.0053886697,-0.0044408143,0.022536278,0.0,0.0,0.0
992.7394,403.69385,126971095,0.83750004,0.09574468,414.04593,-1426.8143,0.0053886697,-0.0044408143,0.022536278,0.0,0.0,0.0
993.15454,385.23364,126971112,0.83750004,0.08510638,133.0645,-1501.6392,0.0053886697,-0.0044408143,0.022536278,0.0,0.0,0.0
991.28296,372.72693,126971129,0.83750004,0.08510638,-154.00073,-1255.8365,0.0053886697,-0.0044408143,0.022536278,0.0,0.0,0.0
988.2219,366.9453,126971146,0.8625,0.11702127,-389.44324,-687.27264,0.0053886697,-0.0044408143,0.022536278,0.0,0.0,0.0
980.93774,361.36633,126971162,0.8625,0.11702127,-550.24506,-155.3305,0.036310934,-0.0035526454,0.002029419,0.0,0.0,0.0
971.5951,360.60864,126971179,0.85,0.10638297,-667.92834,154.7509,0.036310934,-0.0035526454,0.002029419,0.0,0.0,0.0
959.2494,364.74353,126971196,0.8625,0.08510638,-798.50305,330.71573,0.036310934,-0.0035526454,0.002029419,0.0,0.0,0.0
948.6117,374.22205,126971212,0.85,0.08510638,-886.71045,588.97015,0.036310934,-0.0035526454,0.002029419,0.0,0.0,0.0
940.24713,385.98584,126971229,0.85,0.12765957,-759.25916,870.90094,0.036310934,-0.0035526454,0.002029419,0.0,0.0,0.0
935.95276,399.88428,126971246,0.825,0.12765957,-473.20255,1112.0228,0.036310934,-0.0035526454,0.002029419,0.0,0.0,0.0
936.4536,407.30957,126971263,0.8625,0.09574468,-20.963772,901.6482,0.036310934,-0.0035526454,0.002029419,0.0,0.0,0.0
942.8739,412.85437,126971279,0.8625,0.08510638,405.25613,492.8328,0.036310934,-0.0035526454,0.002029419,0.0,0.0,0.0
956.9446,417.72522,126971296,0.83750004,0.08510638,847.84973,181.98158,0.036310934,-0.0035526454,0.002029419,0.0,0.0,0.0
976.5144,417.68652,126971313,0.85,0.09574468,1339.3318,-54.36825,0.036310934,-0.0035526454,0.002029419,0.0,0.0,0.0
997.9425,411.86133,126971329,0.8875,0.10638297,1648.9133,-266.01883,0.036310934,-0.0035526454,0.002029419,0.0,0.0,0.0
1014.5625,402.7682,126971346,0.83750004,0.12765957,1588.7358,-609.8487,0.036310934,-0.0035526454,0.002029419,0.0,0.0,0.0
1027.0908,389.98682,126971363,0.83750004,0.09574468,1147.6145,-933.3989,0.036310934,-0.0035526454,0.002029419,0.0,0.0,0.0
1036.4103,376.12207,126971380,0.8625,0.10638297,613.8344,-1089.4988,0.036310934,-0.0035526454,0.002029419,0.0,0.0,0.0
1044.1772,363.20422,126971396,0.83750004,0.12765957,303.70605,-1041.5502,0.036310934,-0.0035526454,0.002029419,0.0,0.0,0.0
1048.1077,355.32922,126971413,0.8625,0.12765957,122.34726,-793.5568,0.036310934,-0.0035526454,0.002029419,0.0,0.0,0.0
1049.7837,348.27124,126971430,0.83750004,0.09574468,5.120012,-491.92865,0.036310934,-0.0035526454,0.002029419,0.0,0.0,0.0
1050.136,344.2671,126971446,0.875,0.10638297,-114.09412,-204.88414,0.036310934,-0.0035526454,0.002029419,0.0,0.0,0.0
1049.9006,342.4203,126971463,0.875,0.10638297,-151.86134,-7.4396014,0.036310934,-0.0035526454,0.002029419,0.0,0.0,0.0
1048.8608,340.57202,126971480,0.875,0.10638297,-155.34303,49.105892,0.036310934,-0.0035526454,0.002029419,0.0,0.0,0.0
1047.8209,339.28455,126971496,0.8875,0.10638297,-135.87645,42.414158,0.036310934,-0.0035526454,0.002029419,0.0,0.0,0.0
1046.887,339.28455,126971512,0.875,0.10638297,-115.03123,47.77062,0.036310934,-0.0035526454,0.002029419,0.0,0.0,0.0
1047.137,339.28455,126971530,0.875,0.12765957,-44.738,32.01247,0.036310934,-0.0035526454,0.002029419,0.0,0.0,0.0
1051.122,343.20557,126971547,0.83750004,0.10638297,90.13467,131.81369,0.036310934,-0.0035526454,0.002029419,0.0,0.0,0.0
1064.7257,356.64294,126971563,0.83750004,0.10638297,515.4202,517.8368,0.036310934,-0.0035526454,0.002029419,0.0,0.0,0.0
1080.7953,375.0193,126971580,0.85,0.08510638,1058.7202,1107.1687,0.036310934,-0.0035526454,0.002029419,0.0,0.0,0.0
1098.4536,393.46594,126971597,0.8125,0.10638297,1372.783,1469.8798,0.036310934,-0.0035526454,0.002029419,0.0,0.0,0.0
1117.8673,412.49072,126971613,0.825,0.08510638,1434.6198,1499.9117,0.036310934,-0.0035526454,0.002029419,0.0,0.0,0.0
1128.1376,426.838,126971630,0.8,0.09574468,1119.2559,1243.5375,0.036310934,-0.0035526454,0.002029419,0.0,0.0,0.0
1134.439,436.1255,126971647,0.8125,0.11702127,608.94073,786.8238,0.036310934,-0.0035526454,0.002029419,0.0,0.0,0.0
1138.5255,443.46606,126971664,0.825,0.12765957,164.32265,407.97812,0.036310934,-0.0035526454,0.002029419,0.0,0.0,0.0
1138.1078,448.12585,126971680,0.8125,0.12765957,-196.07408,119.894264,0.036310934,-0.0035526454,0.002029419,0.0,0.0,0.0
1130.8181,453.9275,126971697,0.7875,0.12765957,-412.39032,65.82085,0.036310934,-0.0035526454,0.002029419,0.0,0.0,0.0
1106.3495,465.36975,126971714,0.85,0.10638297,-1130.8889,319.8518,0.013048753,0.013157904,-0.01437664,0.0,0.0,0.0
1085.4067,472.7329,126971730,0.83750004,0.09574468,-1808.662,570.43713,0.013048753,0.013157904,-0.01437664,0.0,0.0,0.0
1065.7786,479.15137,126971747,0.825,0.08510638,-1916.7483,583.494,0.013048753,0.013157904,-0.01437664,0.0,0.0,0.0
1050.6359,481.44507,126971758,0.275,0.09574468,-1847.992,484.10727,0.013048753,0.013157904,-0.01437664,0.0,0.0,0.0
1050.6359,481.44507,126971764,0.275,0.09574468,-1847.992,484.10727,0.013048753,0.013157904,-0.01437664,0.0,0.0,0.0
