x,y,timestamp,pressure,fingerarea,velocityx,velocityy,accelx,accely,accelz,gyrox,gyroy,gyroz
274.88837,253.98828,98592697,1.2125,0.12765957,0.0,0.0,0.013267398,-0.011250019,-0.003712654,-3.355443E-6,0.0,0.0
274.88837,253.98828,98592719,1.35,0.12765957,0.01657189,0.015180472,0.013267398,-0.011250019,-0.003712654,0.0,0.0,0.0
274.88837,253.98828,98592736,1.375,0.12765957,-0.009969081,-0.008158548,0.013267398,-0.011250019,-0.003712654,0.0,0.0,0.0
274.88837,253.98828,98592752,1.2375001,0.12765957,-1.8628532E-4,4.9852766E-4,0.013267398,-0.011250019,-0.003712654,0.0,0.0,0.0
277.76553,271.88867,98592769,0.975,0.08510638,86.920044,540.89984,0.013267398,-0.011250019,-0.003712654,3.355443E-6,0.0,0.0
282.50043,297.2063,98592786,0.90000004,0.09574468,263.10455,1511.0422,0.013267398,-0.011250019,-0.003712654,3.355443E-6,0.0,0.0
288.19345,326.82788,98592802,0.8875,0.09574468,417.82382,2250.5598,0.013267398,-0.011250019,-0.003712654,3.355443E-6,0.0,0.0
296.26746,355.7611,98592819,0.90000004,0.10638297,534.4993,2454.0796,0.013267398,-0.011250019,-0.003712654,3.355443E-6,0.0,0.0
305.77948,384.13953,98592836,0.875,0.11702127,631.44666,2242.5151,0.013267398,-0.011250019,-0.003712654,0.0,0.0,0.0
315.93018,410.01392,98592853,0.875,0.11702127,679.187,1766.3179,0.013267398,-0.011250019,-0.003712654,0.0,0.0,0.0
324.16092,433.7909,98592869,0.85,0.08510638,677.35864,1547.4703,0.013267398,-0.011250019,-0.003712654,0.0,0.0,0.0
332.48642,457.81873,98592886,0.8,0.10638297,564.2772,1335.3478,0.013267398,-0.011250019,-0.003712654,0.0,0.0,0.0
339.96027,480.71326,98592903,0.7375,0.053191487,454.12265,1286.8159,0.013267398,-0.011250019,-0.003712654,0.0,0.0,0.0
342.3664,487.66467,98592914,0.25,0.10638297,377.33115,1149.8119,0.013267398,-0.011250019,-0.003712654,0.0,0.0,0.0
342.3664,487.66467,98592921,0.25,0.10638297,377.33115,1149.8119,0.013267398,-0.011250019,-0.003712654,0.0,0.0,0.0
236.90073,293.0824,98593139,0.83750004,0.08510638,0.0,0.0,-0.0053860545,-0.113000154,-0.034970284,-1.224621E-4,2.0410349E-5,0.0
236.90073,293.0824,98593170,1.075,0.10638297,-9.376496E-4,8.585979E-4,-0.0053860545,-0.113000154,-0.034970284,-1.342177E-5,0.0,0.0
252.81296,261.24304,98593187,1.0375,0.12765957,1123.4478,-2257.021,-0.0053860545,-0.113000154,-0.034970284,-1.342177E-5,0.0,0.0
277.09818,239.18604,98593204,1.0125,0.10638297,1670.7573,-2081.7126,-0.0053860545,-0.113000154,-0.034970284,-1.342177E-5,0.0,0.0
310.5996,212.2102,98593220,0.9875,0.12765957,2284.4653,-2110.1724,-0.0053860545,-0.113000154,-0.034970284,-1.342177E-5,0.0,0.0
339.66632,191.77942,98593237,1.0,0.11702127,2493.4275,-1946.6862,-0.0053860545,-0.113000154,-0.034970284,1.3210376E-4,-2.6420752E-5,0.0
364.1843,182.56555,98593254,1.025,0.12765957,2236.7244,-1119.0242,-0.0053860545,-0.113000154,-0.034970284,1.3210376E-4,-2.6420752E-5,0.0
380.484,178.6864,98593270,1.025,0.10638297,1509.4102,-278.2525,-0.0053860545,-0.113000154,-0.034970284,1.3210376E-4,-2.6420752E-5,0.0
388.69592,179.7522,98593287,1.025,0.08510638,497.82147,388.73517,-0.0053860545,-0.113000154,-0.034970284,1.3210376E-4,-2.6420752E-5,0.0
392.88153,181.60327,98593304,1.025,0.09574468,-25.565693,570.2368,-0.0053860545,-0.113000154,-0.034970284,-1.0820965E-4,0.0,0.0
395.27338,190.84143,98593321,0.96250004,0.10638297,-274.19925,601.60297,-0.0053860545,-0.113000154,-0.034970284,-1.0820965E-4,0.0,0.0
396.50333,210.43555,98593337,0.90000004,0.08510638,-269.94284,1024.3158,-0.0053860545,-0.113000154,-0.034970284,-1.0820965E-4,0.0,0.0
390.5754,239.40894,98593354,0.85,0.10638297,-306.23178,1714.2224,-0.0053860545,-0.113000154,-0.034970284,-1.0820965E-4,0.0,0.0
376.12262,272.61023,98593371,0.8625,0.09574468,-697.36896,2362.9863,-0.0053860545,-0.113000154,-0.034970284,0.0,0.0,0.0
363.2595,296.8933,98593387,0.85,0.12765957,-1106.4003,2426.003,-0.0053860545,-0.113000154,-0.034970284,0.0,0.0,0.0
350.29196,316.2915,98593404,0.875,0.08510638,-1175.1366,1689.2197,-0.0053860545,-0.113000154,-0.034970284,0.0,0.0,0.0
340.4938,330.00842,98593421,0.90000004,0.12765957,-931.0799,951.3457,-0.0053860545,-0.113000154,-0.034970284,0.0,0.0,0.0
335.24597,337.72583,98593437,0.96250004,0.12765957,-473.30988,290.11108,-0.0053860545,-0.113000154,-0.034970284,1.7201326E-4,-2.8668877E-5,0.0
333.04022,341.6466,98593454,1.1625,0.12765957,-115.358315,-30.907005,-0.0053860545,-0.113000154,-0.034970284,1.7201326E-4,-2.8668877E-5,0.0
333.36932,341.95007,98593471,1.2625,0.12765957,122.80202,-181.54344,-0.0053860545,-0.113000154,-0.034970284,1.7201326E-4,-2.8668877E-5,0.0
339.25757,339.94202,98593488,1.15,0.10638297,377.09402,-335.38892,-0.0053860545,-0.113000154,-0.034970284,1.7201326E-4,-2.8668877E-5,0.0
349.1177,332.61792,98593504,1.0125,0.10638297,642.49615,-472.9086,-0.0053860545,-0.113000154,-0.034970284,3.183252E-5,0.0,0.0
363.0385,323.87854,98593521,0.975,0.14893617,961.29553,-720.7004,-0.0053860545,-0.113000154,-0.034970284,3.183252E-5,0.0,0.0
378.6766,319.44446,98593538,0.9875,0.11702127,1188.1375,-662.25543,-0.0053860545,-0.113000154,-0.034970284,3.183252E-5,0.0,0.0
392.43393,320.39722,98593554,1.0,0.09574468,1171.1277,-304.51987,-0.0053860545,-0.113000154,-0.034970284,3.183252E-5,0.0,0.0
403.38904,324.5581,98593571,0.9875,0.10638297,916.46924,203.18436,-0.020308882,-0.07440019,-0.03597641,1.342177E-5,0.0,0.0
414.79434,331.82214,98593588,0.96250004,0.12765957,675.16504,597.136,-0.020308882,-0.07440019,-0.03597641,1.342177E-5,0.0,0.0
427.72858,340.09155,98593605,0.975,0.12765957,598.6942,743.97864,-0.020308882,-0.07440019,-0.03597641,1.342177E-5,0.0,0.0
439.22217,349.40222,98593621,0.9375,0.10638297,666.4035,726.028,-0.020308882,-0.07440019,-0.03597641,1.342177E-5,0.0,0.0
451.04785,361.4193,98593638,0.95,0.09574468,721.03894,764.23553,-0.020308882,-0.07440019,-0.03597641,1.342177E-5,0.0,0.0
460.30536,373.51,98593655,0.925,0.10638297,649.5816,812.54254,-0.020308882,-0.07440019,-0.03597641,1.342177E-5,0.0,0.0
467.9063,385.35596,98593671,0.9125,0.12765957,494.8752,835.0811,-0.020308882,-0.07440019,-0.03597641,1.342177E-5,0.0,0.0
475.0962,404.57043,98593688,0.9125,0.12765957,372.6922,973.6684,-0.020308882,-0.07440019,-0.03597641,1.342177E-5,0.0,0.0
475.38422,421.64404,98593705,0.875,0.09574468,146.63475,1141.3237,-0.020308882,-0.07440019,-0.03597641,3.183252E-5,0.0,0.0
466.9886,442.54883,98593722,0.875,0.10638297,-297.0758,1300.2262,-0.020308882,-0.07440019,-0.03597641,3.183252E-5,0.0,0.0
451.90332,463.7738,98593738,0.8875,0.09574468,-927.90894,1416.1772,-0.020308882,-0.07440019,-0.03597641,3.183252E-5,0.0,0.0
428.8769,487.18604,98593755,0.9125,0.09574468,-1569.8475,1457.1133,-0.020308882,-0.07440019,-0.03597641,3.183252E-5,0.0,0.0
405.34006,505.5232,98593772,0.95,0.10638297,-1915.6589,1348.4113,-0.020308882,-0.07440019,-0.03597641,6.710883E-5,0.0,0.0
387.07755,516.027,98593788,0.975,0.12765957,-1750.3909,984.5542,-0.020308882,-0.07440019,-0.03597641,6.710883E-5,0.0,0.0
374.2858,522.9756,98593805,1.025,0.12765957,-1187.2694,406.9914,-0.020308882,-0.07440019,-0.03597641,6.710883E-5,0.0,0.0
367.30722,524.09326,98593822,1.075,0.12765957,-528.9997,-56.822163,-0.020308882,-0.07440019,-0.03597641,6.710883E-5,0.0,0.0
364.75244,523.11,98593839,1.0625,0.12765957,-7.2379603,-337.67697,-0.020308882,-0.07440019,-0.03597641,1.342177E-5,0.0,0.0
363.76364,521.25757,98593855,0.90000004,0.12765957,236.19046,-394.99908,-0.020308882,-0.07440019,-0.03597641,1.342177E-5,0.0,0.0
363.8594,520.5393,98593862,0.7375,0.12765957,286.0307,-390.0908,-0.020308882,-0.07440019,-0.03597641,1.342177E-5,0.0,0.0
363.8594,520.5393,98593869,0.7375,0.12765957,286.0307,-390.0908,-0.020308882,-0.07440019,-0.03597641,1.342177E-5,0.0,0.0
698.75037,376.60168,98594152,0.7375,0.09574468,0.0,0.0,0.015752912,0.012479782,0.027218819,-1.342177E-5,0.0,0.0
698.75037,376.60168,98594173,0.9125,0.11702127,-0.13570184,-0.07605862,0.015752912,0.012479782,0.027218819,0.0,0.0,0.0
698.75037,376.60168,98594189,1.1625,0.12765957,0.010919246,0.0073502907,0.015752912,0.012479782,0.027218819,0.0,0.0,0.0
698.75037,376.60168,98594206,1.2375001,0.12765957,-0.011003689,-0.007855851,0.015752912,0.012479782,0.027218819,0.0,0.0,0.0
698.75037,376.60168,98594223,1.2625,0.14893617,0.048516374,0.025277188,0.015752912,0.012479782,0.027218819,0.0,0.0,0.0
698.75037,376.60168,98594240,1.2,0.12765957,-0.0026335083,-0.001403858,0.015752912,0.012479782,0.027218819,8.388603E-5,0.0,0.0
680.3427,360.66064,98594256,1.0875,0.11702127,-384.5607,-333.04044,0.015752912,0.012479782,0.027218819,8.388603E-5,0.0,0.0
664.40814,348.83374,98594273,1.0,0.12765957,-1121.9469,-920.9458,0.015752912,0.012479782,0.027218819,8.388603E-5,0.0,0.0
645.076,342.52087,98594290,1.025,0.12765957,-1547.6078,-986.52765,0.015752912,0.012479782,0.027218819,8.388603E-5,0.0,0.0
624.3367,340.88953,98594306,1.0500001,0.10638297,-1666.4934,-580.44617,0.015752912,0.012479782,0.027218819,8.7176915E-5,-1.7435385E-5,0.0
604.45667,338.98926,98594323,1.0625,0.12765957,-1464.7604,-39.899017,0.015752912,0.012479782,0.027218819,8.7176915E-5,-1.7435385E-5,0.0
587.19574,340.81934,98594340,1.0625,0.12765957,-1152.085,337.24875,0.015752912,0.012479782,0.027218819,8.7176915E-5,-1.7435385E-5,0.0
573.0404,344.5271,98594357,1.0875,0.11702127,-1048.4984,333.83942,0.015752912,0.012479782,0.027218819,8.7176915E-5,-1.7435385E-5,0.0
562.9516,348.66895,98594373,1.0875,0.11702127,-641.973,359.81293,0.015752912,0.012479782,0.027218819,4.898473E-4,-8.164123E-5,0.0
556.288,354.75696,98594390,1.075,0.12765957,-343.43594,443.62146,0.015752912,0.012479782,0.027218819,4.898473E-4,-8.164123E-5,0.0
549.1476,368.85828,98594407,1.025,0.10638297,-173.25282,666.1487,0.015752912,0.012479782,0.027218819,4.898473E-4,-8.164123E-5,0.0
545.5432,383.76,98594423,0.975,0.11702127,-99.356316,978.3506,0.015752912,0.012479782,0.027218819,4.898473E-4,-8.164123E-5,0.0
545.2228,400.98914,98594440,0.9125,0.12765957,-23.393238,1225.8254,0.015752912,0.012479782,0.027218819,0.0,0.0,0.0
548.64966,418.65173,98594457,0.8875,0.08510638,198.63255,1314.8676,0.015752912,0.012479782,0.027218819,0.0,0.0,0.0
555.84784,435.34473,98594474,0.875,0.09574468,486.2484,1180.1199,0.015752912,0.012479782,0.027218819,0.0,0.0,0.0
565.88904,449.36414,98594490,0.8625,0.12765957,728.1905,970.8947,0.015752912,0.012479782,0.027218819,0.0,0.0,0.0
581.56354,462.88928,98594507,0.90000004,0.11702127,983.9332,834.55334,0.015752912,0.012479782,0.027218819,0.0,0.0,0.0
601.494,472.87634,98594524,0.925,0.09574468,1270.0219,633.6156,0.015752912,0.012479782,0.027218819,0.0,0.0,0.0
623.245,475.56152,98594540,0.9375,0.12765957,1500.0219,324.16272,0.015752912,0.012479782,0.027218819,0.0,0.0,0.0
643.94037,468.55896,98594557,0.9375,0.12765957,1571.0076,-212.3493,0.015752912,0.012479782,0.027218819,0.0,0.0,0.0
660.9782,459.25134,98594574,0.96250004,0.08510638,1347.9132,-851.7021,0.015752912,0.012479782,0.027218819,-2.7346303E-4,3.0384783E-5,0.0
671.5547,450.46375,98594590,1.025,0.10638297,898.5334,-1013.3312,0.015752912,0.012479782,0.027218819,-2.7346303E-4,3.0384783E-5,0.0
676.7156,439.79736,98594607,1.075,0.10638297,324.45328,-900.50494,0.015752912,0.012479782,0.027218819,-2.7346303E-4,3.0384783E-5,0.0
677.9189,424.81592,98594624,1.075,0.12765957,-125.3349,-869.5866,0.015752912,0.012479782,0.027218819,-2.7346303E-4,3.0384783E-5,0.0
675.5507,414.61243,98594641,1.1125001,0.11702127,-405.55762,-863.19214,0.012602329,0.04198408,0.021775246,1.8041533E-4,-2.5773617E-5,0.0
672.86847,409.67126,98594657,1.125,0.11702127,-465.92203,-646.6799,0.012602329,0.04198408,0.021775246,1.8041533E-4,-2.5773617E-5,0.0
670.7814,407.71875,98594674,1.1750001,0.12765957,-400.6697,-207.4325,0.012602329,0.04198408,0.021775246,1.8041533E-4,-2.5773617E-5,0.0
668.7057,407.69934,98594691,1.3000001,0.12765957,-251.05191,174.9017,0.012602329,0.04198408,0.021775246,1.8041533E-4,-2.5773617E-5,0.0
666.56775,409.70508,98594707,1.325,0.12765957,-136.99602,305.69067,0.012602329,0.04198408,0.021775246,-3.6489475E-4,4.0543862E-5,0.0
665.1537,419.5089,98594724,1.25,0.12765957,-95.89999,499.88257,0.012602329,0.04198408,0.021775246,-3.6489475E-4,4.0543862E-5,0.0
666.6053,427.58203,98594741,1.0500001,0.09574468,-11.271309,690.5041,0.012602329,0.04198408,0.021775246,-3.6489475E-4,4.0543862E-5,0.0
671.78644,439.7339,98594758,0.83750004,0.09574468,189.27988,848.70557,0.012602329,0.04198408,0.021775246,-3.6489475E-4,4.0543862E-5,0.0
680.2658,453.10754,98594774,0.8625,0.12765957,518.0401,940.7648,0.012602329,0.04198408,0.021775246,8.388603E-5,0.0,0.0
696.1367,470.6814,98594791,0.8875,0.11702127,908.136,1045.475,0.012602329,0.04198408,0.021775246,8.388603E-5,0.0,0.0
716.66656,483.2738,98594808,0.90000004,0.09574468,1318.2181,1079.4666,0.012602329,0.04198408,0.021775246,8.388603E-5,0.0,0.0
742.124,488.22864,98594824,0.9375,0.12765957,1666.3201,698.9526,0.012602329,0.04198408,0.021775246,8.388603E-5,0.0,0.0
770.92303,484.2705,98594841,0.975,0.10638297,1967.7258,8.6120615,0.012602329,0.04198408,0.021775246,0.0,0.0,0.0
794.89905,471.818,98594858,0.9875,0.12765957,1934.2028,-784.8321,0.012602329,0.04198408,0.021775246,0.0,0.0,0.0
814.74725,457.86902,98594875,1.0500001,0.12765957,1606.38,-1323.5321,0.012602329,0.04198408,0.021775246,0.0,0.0,0.0
826.8675,442.11572,98594891,1.0375,0.10638297,960.6107,-1384.2987,0.012602329,0.04198408,0.021775246,0.0,0.0,0.0
843.53925,403.17517,98594908,1.0500001,0.10638297,656.53156,-1995.5011,0.012602329,0.04198408,0.021775246,-4.7453127E-6,0.0,0.0
851.80695,362.0913,98594925,1.0625,0.14893617,435.3008,-2578.6616,0.012602329,0.04198408,0.021775246,-4.7453127E-6,0.0,0.0
851.7006,332.97815,98594941,1.075,0.10638297,88.77866,-2721.0361,0.012602329,0.04198408,0.021775246,-4.7453127E-6,0.0,0.0
846.71606,293.88196,98594958,1.0625,0.12765957,-339.18106,-2631.0688,0.012602329,0.04198408,0.021775246,-4.7453127E-6,0.0,0.0
838.47455,265.96887,98594975,1.0625,0.12765957,-758.7758,-2062.9827,0.012602329,0.04198408,0.021775246,0.0,0.0,0.0
830.2283,243.36304,98594992,1.0625,0.12765957,-860.4668,-1618.6122,0.012602329,0.04198408,0.021775246,0.0,0.0,0.0
821.0292,229.78381,98595008,1.075,0.11702127,-764.34216,-913.60425,0.012602329,0.04198408,0.021775246,0.0,0.0,0.0
805.93427,217.46497,98595025,1.0375,0.11702127,-817.0732,-381.71988,0.012602329,0.04198408,0.021775246,0.0,0.0,0.0
790.8377,211.87756,98595042,1.0625,0.10638297,-975.17053,-74.31861,0.012602329,0.04198408,0.021775246,-3.183252E-5,0.0,0.0
777.86395,212.9331,98595058,1.0375,0.10638297,-1035.6852,223.91222,0.012602329,0.04198408,0.021775246,-3.183252E-5,0.0,0.0
767.73773,218.14612,98595075,1.0500001,0.12765957,-883.2499,427.37018,0.012602329,0.04198408,0.021775246,-3.183252E-5,0.0,0.0
760.3219,225.44763,98595092,1.0625,0.12765957,-526.17847,767.4788,0.012602329,0.04198408,0.021775246,-3.183252E-5,0.0,0.0
754.0713,235.61597,98595108,0.9875,0.12765957,-266.00024,834.1351,0.012602329,0.04198408,0.021775246,0.0,0.0,0.0
746.81104,254.3905,98595125,0.90000004,0.09574468,-243.17131,1056.7283,0.012602329,0.04198408,0.021775246,0.0,0.0,0.0
740.62836,281.5692,98595142,0.8875,0.12765957,-286.3478,1541.5117,0.012602329,0.04198408,0.021775246,0.0,0.0,0.0
738.9311,316.9104,98595159,0.8875,0.08510638,-215.27225,2174.012,0.012602329,0.04198408,0.021775246,0.0,0.0,0.0
741.469,357.69482,98595175,0.875,0.12765957,12.003846,2662.999,0.11408186,-0.01441288,-0.014579773,5.3687072E-5,0.0,0.0
747.10144,384.06567,98595192,0.8625,0.09574468,396.87448,2499.0452,0.11408186,-0.01441288,-0.014579773,5.3687072E-5,0.0,0.0
757.1227,415.67004,98595209,0.85,0.09574468,708.505,2144.9714,0.11408186,-0.01441288,-0.014579773,5.3687072E-5,0.0,0.0
767.75757,441.16504,98595225,0.85,0.10638297,869.0608,1696.211,0.11408186,-0.01441288,-0.014579773,5.3687072E-5,0.0,0.0
778.0585,456.48315,98595242,0.875,0.09574468,852.48364,1073.87,0.11408186,-0.01441288,-0.014579773,-3.355443E-6,0.0,0.0
797.57477,477.2173,98595259,0.875,0.09574468,972.75134,736.9161,0.11408186,-0.01441288,-0.014579773,-3.355443E-6,0.0,0.0
828.15497,492.44568,98595276,0.8625,0.09574468,1492.0735,687.42267,0.11408186,-0.01441288,-0.014579773,-3.355443E-6,0.0,0.0
854.69965,493.88416,98595285,0.4875,0.11702127,2008.3276,560.35895,0.11408186,-0.01441288,-0.014579773,-3.355443E-6,0.0,0.0
854.69965,493.88416,98595292,0.4875,0.11702127,2008.3276,560.35895,0.11408186,-0.01441288,-0.014579773,-3.355443E-6,0.0,0.0
960.1653,362.38574,98595453,1.075,0.12765957,0.0,0.0,0.11408186,-0.01441288,-0.014579773,-2.4196437E-5,0.0,0.0
960.1653,362.38574,98595476,1.225,0.12765957,0.034468293,0.0168858,0.11408186,-0.01441288,-0.014579773,-2.4196437E-5,0.0,0.0
960.1653,362.38574,98595493,1.3000001,0.14893617,-0.07140571,-0.025104286,0.11408186,-0.01441288,-0.014579773,-2.4196437E-5,0.0,0.0
960.1653,362.38574,98595510,1.2375001,0.12765957,0.025045764,0.0059581334,0.11408186,-0.01441288,-0.014579773,-0.0,0.0,0.0
960.1653,362.38574,98595526,1.0500001,0.09574468,-0.054632697,-0.021803305,0.11408186,-0.01441288,-0.014579773,-0.0,0.0,0.0
960.1653,362.38574,98595543,0.85,0.08510638,-0.050180506,-0.018904665,0.11408186,-0.01441288,-0.014579773,-0.0,0.0,0.0
933.94836,388.16382,98595560,0.825,0.12765957,-856.5936,838.02716,0.11408186,-0.01441288,-0.014579773,6.643413E-4,-9.49059E-5,0.0
924.60175,403.07922,98595576,0.85,0.11702127,-1146.745,1275.8505,0.11408186,-0.01441288,-0.014579773,6.643413E-4,-9.49059E-5,0.0
913.0034,428.60718,98595593,0.85,0.09574468,-1210.3137,1776.3092,0.11408186,-0.01441288,-0.014579773,6.643413E-4,-9.49059E-5,0.0
908.96747,444.8059,98595610,0.825,0.12765957,-612.3663,1589.5133,0.11408186,-0.01441288,-0.014579773,6.643413E-4,-9.49059E-5,0.0
909.2359,462.28198,98595626,0.85,0.11702127,114.98816,1116.9279,0.11408186,-0.01441288,-0.014579773,-5.5339362E-5,1.38348405E-5,0.0
912.77783,475.07727,98595643,0.85,0.09574468,334.4142,901.30164,0.11408186,-0.01441288,-0.014579773,-5.5339362E-5,1.38348405E-5,0.0
918.2009,482.86914,98595660,0.825,0.09574468,593.7356,443.6095,0.11408186,-0.01441288,-0.014579773,-5.5339362E-5,1.38348405E-5,0.0
929.27905,492.1095,98595677,0.8625,0.09574468,700.4576,348.40927,0.11408186,-0.01441288,-0.014579773,-5.5339362E-5,1.38348405E-5,0.0
945.16864,496.43848,98595693,0.9125,0.10638297,971.0667,192.90923,-0.012734532,0.036469936,-0.09966469,-1.342177E-5,0.0,0.0
965.12244,494.86426,98595710,0.9125,0.12765957,1294.7234,-22.450533,-0.012734532,0.036469936,-0.09966469,-1.342177E-5,0.0,0.0
984.4789,486.60815,98595727,0.95,0.10638297,1482.4952,-436.18524,-0.012734532,0.036469936,-0.09966469,-1.342177E-5,0.0,0.0
998.77856,474.5769,98595743,1.0125,0.11702127,1304.5187,-879.9818,-0.012734532,0.036469936,-0.09966469,-1.342177E-5,0.0,0.0
1006.2521,462.6056,98595760,1.0375,0.12765957,786.8104,-1106.9156,-0.012734532,0.036469936,-0.09966469,-1.660858E-4,2.3726541E-5,0.0
1012.6758,443.7954,98595777,1.0500001,0.11702127,303.97464,-1235.2108,-0.012734532,0.036469936,-0.09966469,1.07426495E-4,0.0,0.0
1011.2499,417.48914,98595794,1.0500001,0.12765957,-140.87628,-1462.3016,-0.012734532,0.036469936,-0.09966469,1.07426495E-4,0.0,0.0
1004.56433,403.10303,98595810,1.0875,0.10638297,-514.20184,-1498.6171,-0.012734532,0.036469936,-0.09966469,1.07426495E-4,0.0,0.0
996.6362,391.24072,98595827,1.0875,0.10638297,-731.18524,-1099.4397,-0.012734532,0.036469936,-0.09966469,-5.9553164E-5,1.9851053E-5,0.0
986.2904,379.30457,98595844,1.0625,0.11702127,-886.7381,-640.05444,-0.012734532,0.036469936,-0.09966469,-5.9553164E-5,1.9851053E-5,0.0
977.10376,370.63403,98595860,1.0625,0.12765957,-806.32025,-337.20856,-0.012734532,0.036469936,-0.09966469,-5.9553164E-5,1.9851053E-5,0.0
968.11707,366.15173,98595877,1.1,0.12765957,-671.0062,-211.78506,-0.012734532,0.036469936,-0.09966469,-5.9553164E-5,1.9851053E-5,0.0
962.99695,365.9397,98595894,1.125,0.12765957,-491.06802,-42.52546,-0.012734532,0.036469936,-0.09966469,1.3654621E-4,-2.2757702E-5,0.0
960.2499,367.64148,98595911,1.15,0.12765957,-211.2763,265.18503,-0.012734532,0.036469936,-0.09966469,1.3654621E-4,-2.2757702E-5,0.0
957.6664,373.9358,98595927,1.2,0.12765957,-33.187283,487.71222,-0.012734532,0.036469936,-0.09966469,1.3654621E-4,-2.2757702E-5,0.0
957.66614,381.33057,98595944,1.2125,0.12765957,79.51828,613.78265,-0.012734532,0.036469936,-0.09966469,1.3654621E-4,-2.2757702E-5,0.0
959.24805,384.74475,98595961,1.1125001,0.12765957,157.51218,537.25977,-0.012734532,0.036469936,-0.09966469,-5.0331622E-5,0.0,0.0
963.1035,388.54248,98595977,0.9875,0.12765957,247.50151,364.83047,-0.012734532,0.036469936,-0.09966469,-5.0331622E-5,0.0,0.0
969.94775,393.45154,98595994,0.8875,0.12765957,408.22556,227.96739,-0.012734532,0.036469936,-0.09966469,-5.0331622E-5,0.0,0.0
983.5082,400.7882,98596011,0.90000004,0.10638297,712.3542,275.70303,-0.012734532,0.036469936,-0.09966469,-5.0331622E-5,0.0,0.0
1000.87573,405.86768,98596028,0.9125,0.10638297,1103.001,412.5359,-0.012734532,0.036469936,-0.09966469,-0.0,0.0,0.0
1022.4331,406.30823,98596044,0.9375,0.14893617,1437.6763,279.54333,-0.012734532,0.036469936,-0.09966469,-0.0,0.0,0.0
1043.9789,402.41553,98596061,0.925,0.11702127,1620.7577,-106.13796,-0.012734532,0.036469936,-0.09966469,-0.0,0.0,0.0
1061.5575,396.2235,98596078,0.9375,0.10638297,1436.4429,-490.29153,-0.012734532,0.036469936,-0.09966469,-0.0,0.0,0.0
1077.8208,386.5581,98596094,0.96250004,0.12765957,1155.4906,-723.07916,-0.012734532,0.036469936,-0.09966469,3.355443E-6,0.0,0.0
1086.7122,374.66833,98596111,1.0125,0.12765957,708.50165,-861.3276,-0.012734532,0.036469936,-0.09966469,3.355443E-6,0.0,0.0
1093.5723,355.48315,98596128,1.0625,0.12765957,319.76077,-1122.7877,-0.012734532,0.036469936,-0.09966469,3.355443E-6,0.0,0.0
1093.0983,345.2942,98596145,1.075,0.11702127,-51.73631,-1081.8157,-0.012734532,0.036469936,-0.09966469,3.355443E-6,0.0,0.0
1089.9506,337.099,98596161,1.0500001,0.11702127,-388.88013,-781.91455,-0.012734532,0.036469936,-0.09966469,6.0023962E-5,0.0,0.0
1086.7117,332.5155,98596178,1.0375,0.11702127,-506.50858,-342.58298,-0.012734532,0.036469936,-0.09966469,6.0023962E-5,0.0,0.0
1080.7585,326.96326,98596195,1.0500001,0.11702127,-542.3827,-77.497505,-0.012734532,0.036469936,-0.09966469,6.0023962E-5,0.0,0.0
1074.6984,322.63074,98596211,1.075,0.12765957,-520.50287,-71.23286,-0.012734532,0.036469936,-0.09966469,6.0023962E-5,0.0,0.0
1069.9554,321.51453,98596228,1.125,0.12765957,-439.88513,-92.74914,-0.0421876,0.061175823,0.02426815,0.0,0.0,0.0
1066.3292,321.51453,98596245,1.1375,0.12765957,-314.3593,14.874297,-0.0421876,0.061175823,0.02426815,0.0,0.0,0.0
1064.0247,322.59277,98596261,1.1875,0.12765957,-150.96034,151.95117,-0.0421876,0.061175823,0.02426815,0.0,0.0,0.0
1062.2896,326.286,98596278,1.2375001,0.12765957,-52.156345,265.15704,-0.0421876,0.061175823,0.02426815,0.0,0.0,0.0
1061.6322,329.89014,98596295,1.2625,0.12765957,-9.375985E-4,310.00885,-0.0421876,0.061175823,0.02426815,0.0,0.0,0.0
1062.0516,332.03357,98596312,1.2875,0.12765957,48.07693,284.09573,-0.0421876,0.061175823,0.02426815,0.0,0.0,0.0
1063.0956,333.8894,98596328,1.2,0.12765957,104.36615,196.19832,-0.0421876,0.061175823,0.02426815,0.0,0.0,0.0
1065.1515,335.74878,98596345,0.71250004,0.12765957,152.50708,89.482346,-0.0421876,0.061175823,0.02426815,0.0,0.0,0.0
1065.1515,335.74878,98596352,0.71250004,0.12765957,152.50708,89.482346,-0.0421876,0.061175823,0.02426815,0.0,0.0,0.0
1199.0875,338.39612,98596860,0.7375,0.11702127,0.0,0.0,0.030249894,0.032940626,-0.0525856,3.355443E-6,0.0,0.0
1199.0875,338.39612,98596880,0.9125,0.11702127,0.43773463,0.12030619,0.030249894,0.032940626,-0.0525856,3.355443E-6,0.0,0.0
1199.0875,338.39612,98596896,1.125,0.12765957,-0.00689601,-0.0017275547,0.030249894,0.032940626,-0.0525856,0.0,0.0,0.0
1199.0875,338.39612,98596913,1.15,0.12765957,-0.04374621,-0.012586212,0.030249894,0.032940626,-0.0525856,1.5005995E-5,0.0,0.0
1199.0875,338.39612,98596930,1.1125001,0.12765957,-0.10223231,-0.029388927,0.030249894,0.032940626,-0.0525856,1.5005995E-5,0.0,0.0
1185.851,327.64,98596947,1.0625,0.12765957,-275.66083,-223.99666,0.030249894,0.032940626,-0.0525856,1.5005995E-5,0.0,0.0
1172.3256,319.8816,98596963,1.0,0.10638297,-960.48193,-703.5211,0.030249894,0.032940626,-0.0525856,2.3091657E-4,-2.8864572E-5,0.0
1164.8651,320.547,98596980,0.9875,0.10638297,-1073.8318,-583.3184,0.030249894,0.032940626,-0.0525856,2.3091657E-4,-2.8864572E-5,0.0
1159.6168,323.2798,98596997,1.0125,0.12765957,-787.5296,-132.43413,0.030249894,0.032940626,-0.0525856,2.3091657E-4,-2.8864572E-5,0.0
1155.984,326.98474,98597013,1.0125,0.12765957,-243.65874,386.86218,0.030249894,0.032940626,-0.0525856,2.3091657E-4,-2.8864572E-5,0.0
1150.7798,336.30542,98597030,0.95,0.12765957,7.5154037,738.1988,0.030249894,0.032940626,-0.0525856,1.342177E-5,0.0,0.0
1147.7023,346.0443,98597047,0.8875,0.12765957,-125.52426,702.761,0.030249894,0.032940626,-0.0525856,1.342177E-5,0.0,0.0
1143.3342,359.79626,98597064,0.8625,0.09574468,-180.8969,843.7032,0.030249894,0.032940626,-0.0525856,1.342177E-5,0.0,0.0
1137.1935,378.9619,98597080,0.8625,0.09574468,-278.24463,1133.173,0.030249894,0.032940626,-0.0525856,1.342177E-5,0.0,0.0
1132.8977,399.00647,98597097,0.8625,0.12765957,-331.9829,1385.2516,0.030249894,0.032940626,-0.0525856,1.342177E-5,0.0,0.0
1130.3306,416.60828,98597114,0.85,0.09574468,-279.5395,1432.9802,0.030249894,0.032940626,-0.0525856,-3.0198984E-5,0.0,0.0
1130.7521,431.24158,98597130,0.85,0.09574468,-67.418915,1147.8768,0.030249894,0.032940626,-0.0525856,-3.0198984E-5,0.0,0.0
1132.9078,441.16296,98597147,0.83750004,0.11702127,179.9689,707.3313,0.030249894,0.032940626,-0.0525856,-3.0198984E-5,0.0,0.0
1136.1812,447.11316,98597164,0.83750004,0.12765957,307.64615,307.77307,0.030249894,0.032940626,-0.0525856,-3.0198984E-5,0.0,0.0
1142.6719,453.57092,98597181,0.85,0.12765957,417.51413,114.60597,0.030249894,0.032940626,-0.0525856,0.0,0.0,0.0
1149.9645,457.4203,98597197,0.875,0.10638297,525.6182,73.59364,0.030249894,0.032940626,-0.0525856,0.0,0.0,0.0
1159.6036,458.344,98597214,0.8875,0.10638297,626.7675,16.280186,0.030249894,0.032940626,-0.0525856,0.0,0.0,0.0
1168.5854,456.45862,98597231,0.925,0.10638297,683.3491,-120.72811,0.030249894,0.032940626,-0.0525856,0.0,0.0,0.0
1176.5059,453.4967,98597247,0.925,0.12765957,598.93884,-288.30594,0.030249894,0.032940626,-0.0525856,-2.800534E-4,3.1117048E-5,0.0
1182.8658,448.7721,98597264,0.9875,0.12765957,479.29807,-398.22998,0.030249894,0.032940626,-0.0525856,-2.800534E-4,3.1117048E-5,0.0
1189.2382,441.88013,98597281,1.0125,0.12765957,369.84366,-472.7882,0.030249894,0.032940626,-0.0525856,-2.800534E-4,3.1117048E-5,0.0
1193.2542,431.10327,98597298,1.025,0.12765957,254.81128,-622.0327,0.030249894,0.032940626,-0.0525856,-2.800534E-4,3.1117048E-5,0.0
1194.589,418.71545,98597314,1.0,0.14893617,126.86232,-830.19086,-0.0078001022,0.0743525,0.013932228,0.0,0.0,0.0
1193.9911,408.5968,98597331,1.0,0.14893617,-64.513054,-869.8786,-0.0078001022,0.0743525,0.013932228,0.0,0.0,0.0
1191.9163,400.86267,98597348,1.0,0.12765957,-223.39825,-685.49805,-0.0078001022,0.0743525,0.013932228,0.0,0.0,0.0
1188.9513,393.44885,98597364,0.9875,0.11702127,-300.39145,-442.37192,-0.0078001022,0.0743525,0.013932228,0.0,0.0,0.0
1186.2496,387.54443,98597381,1.0,0.09574468,-297.68533,-285.89777,-0.0078001022,0.0743525,0.013932228,3.0011981E-5,0.0,0.0
1182.1962,380.33923,98597398,1.025,0.10638297,-274.20044,-286.24973,-0.0078001022,0.0743525,0.013932228,3.0011981E-5,0.0,0.0
1178.0631,374.78296,98597414,1.0500001,0.12765957,-274.12662,-325.88297,-0.0078001022,0.0743525,0.013932228,3.0011981E-5,0.0,0.0
1174.4567,371.10632,98597431,1.0875,0.12765957,-267.19528,-261.25864,-0.0078001022,0.0743525,0.013932228,3.0011981E-5,0.0,0.0
1170.2622,368.45654,98597448,1.1375,0.12765957,-258.4718,-160.68929,-0.0078001022,0.0743525,0.013932228,0.0,0.0,0.0
1166.2446,369.91248,98597465,1.2,0.12765957,-251.88464,19.202599,-0.0078001022,0.0743525,0.013932228,0.0,0.0,0.0
1161.9797,376.20154,98597481,1.2125,0.12765957,-245.1388,306.02725,-0.0078001022,0.0743525,0.013932228,0.0,0.0,0.0
1159.1917,384.2743,98597498,1.1875,0.12765957,-226.46523,588.33813,-0.0078001022,0.0743525,0.013932228,0.0,0.0,0.0
1159.3423,391.219,98597515,1.1125001,0.12765957,-88.515526,712.98724,-0.0078001022,0.0743525,0.013932228,0.0,0.0,0.0
1160.3845,393.98865,98597531,1.0,0.10638297,87.635025,492.8688,-0.0078001022,0.0743525,0.013932228,0.0,0.0,0.0
1162.5717,397.30066,98597548,0.8875,0.10638297,210.8336,192.78459,-0.0078001022,0.0743525,0.013932228,0.0,0.0,0.0
1169.8534,411.4635,98597565,0.8125,0.09574468,373.83527,310.1802,-0.0078001022,0.0743525,0.013932228,0.0,0.0,0.0
1178.3723,433.04382,98597582,0.7875,0.08510638,567.8444,972.4313,-0.0078001022,0.0743525,0.013932228,3.613921E-5,0.0,0.0
1187.9731,458.62354,98597598,0.77500004,0.12765957,710.8959,1686.2083,-0.0078001022,0.0743525,0.013932228,3.613921E-5,0.0,0.0
1196.0016,489.9552,98597615,0.8,0.09574468,732.773,2211.9668,-0.0078001022,0.0743525,0.013932228,3.613921E-5,0.0,0.0
1201.2549,523.2621,98597632,0.77500004,0.08510638,496.73654,2337.2488,-0.0078001022,0.0743525,0.013932228,3.613921E-5,0.0,0.0
1202.6503,554.34595,98597648,0.7375,0.12765957,194.44093,2246.4004,-0.0078001022,0.0743525,0.013932228,-2.4196437E-5,0.0,0.0
1200.882,587.60547,98597665,0.75,0.08510638,-101.98828,2160.6216,-0.0078001022,0.0743525,0.013932228,-2.4196437E-5,0.0,0.0
1194.9167,612.1669,98597682,0.725,0.12765957,-403.59692,1817.6204,-0.0078001022,0.0743525,0.013932228,-2.4196437E-5,0.0,0.0
1184.4684,635.37634,98597699,0.77500004,0.08510638,-687.1857,1448.1481,-0.0078001022,0.0743525,0.013932228,0.0,0.0,0.0
1177.291,646.44495,98597715,0.8,0.08510638,-781.466,836.49493,-0.0078001022,0.0743525,0.013932228,0.0,0.0,0.0
1168.0687,656.06165,98597732,0.875,0.10638297,-703.518,325.0517,-0.0078001022,0.0743525,0.013932228,0.0,0.0,0.0
1157.9946,661.4374,98597749,0.95,0.12765957,-633.5056,43.91405,-0.0078001022,0.0743525,0.013932228,0.0,0.0,0.0
1149.2524,659.1321,98597765,1.0375,0.12765957,-576.54706,-261.44464,-0.0078001022,0.0743525,0.013932228,0.0,0.0,0.0
1142.8347,651.5559,98597782,1.0625,0.12765957,-504.99542,-550.9983,-0.0078001022,0.0743525,0.013932228,9.1892536E-5,-1.8378507E-5,0.0
1134.1914,633.8224,98597799,0.96250004,0.12765957,-440.52386,-1061.8826,-0.0078001022,0.0743525,0.013932228,9.1892536E-5,-1.8378507E-5,0.0
1131.145,603.4784,98597816,0.925,0.11702127,-296.6948,-1769.4275,-0.0078001022,0.0743525,0.013932228,9.1892536E-5,-1.8378507E-5,0.0
1134.6493,568.3113,98597832,1.0,0.12765957,29.97468,-2449.539,-0.0078001022,0.0743525,0.013932228,9.1892536E-5,-1.8378507E-5,0.0
1144.5822,540.80383,98597849,0.9875,0.12765957,515.5952,-2526.102,0.20975989,-0.2925179,-0.2928543,2.8660998E-4,-3.5826248E-5,0.0
1156.2649,516.84216,98597866,0.96250004,0.10638297,973.68616,-2131.72,0.20975989,-0.2925179,-0.2928543,2.8660998E-4,-3.5826248E-5,0.0
1174.8981,500.14844,98597882,0.925,0.11702127,1282.0496,-1303.7429,0.20975989,-0.2925179,-0.2928543,2.8660998E-4,-3.5826248E-5,0.0
1201.6997,485.75183,98597899,0.83750004,0.09574468,1610.9326,-638.1651,0.20975989,-0.2925179,-0.2928543,-7.4867386E-4,1.604301E-4,0.0
1233.0764,470.78308,98597912,0.375,0.12765957,2027.4968,-483.1903,0.20975989,-0.2925179,-0.2928543,-7.4867386E-4,1.604301E-4,0.0
1233.0764,470.78308,98597920,0.375,0.12765957,2027.4968,-483.1903,0.20975989,-0.2925179,-0.2928543,-7.4867386E-4,1.604301E-4,0.0
1265.066,421.9154,98598169,0.8625,0.09574468,0.0,0.0,0.20975989,-0.2925179,-0.2928543,-3.183252E-5,0.0,0.0
1265.066,421.9154,98598200,1.1625,0.14893617,-0.21631746,-0.072924495,0.20975989,-0.2925179,-0.2928543,0.0,0.0,0.0
1263.7808,405.16052,98598217,1.1375,0.12765957,-74.71202,-974.23596,0.20975989,-0.2925179,-0.2928543,0.0,0.0,0.0
1264.962,386.10278,98598233,0.9375,0.08510638,-22.963852,-1679.2803,0.20975989,-0.2925179,-0.2928543,0.0,0.0,0.0
1273.1322,356.82544,98598250,0.9375,0.10638297,327.9374,-2070.9429,0.20975989,-0.2925179,-0.2928543,0.0,0.0,0.0
1282.5781,332.7577,98598267,0.95,0.10638297,576.7576,-2147.2678,0.20975989,-0.2925179,-0.2928543,0.0,0.0,0.0
1290.1078,300.41333,98598283,0.95,0.12765957,748.66345,-2173.605,0.20975989,-0.2925179,-0.2928543,0.0,0.0,0.0
1292.6793,274.95508,98598300,0.95,0.11702127,567.33936,-1858.568,0.20975989,-0.2925179,-0.2928543,0.0,0.0,0.0
1291.7098,242.51892,98598317,0.975,0.12765957,120.37899,-1877.8411,0.20975989,-0.2925179,-0.2928543,-5.0331622E-5,0.0,0.0
1288.3114,221.2738,98598334,0.96250004,0.10638297,-279.98264,-1615.2727,0.20975989,-0.2925179,-0.2928543,-5.0331622E-5,0.0,0.0
1283.3129,196.24548,98598350,0.96250004,0.12765957,-506.77167,-1403.9889,0.20975989,-0.2925179,-0.2928543,-5.0331622E-5,0.0,0.0
1278.1108,182.47961,98598367,0.9875,0.10638297,-501.10162,-1087.0923,0.20975989,-0.2925179,-0.2928543,-5.0331622E-5,0.0,0.0
1274.2522,175.82996,98598384,1.025,0.10638297,-405.01468,-467.54453,-0.03219211,0.08598566,0.05371666,3.8879525E-4,0.0,0.0
1270.5928,172.48071,98598400,1.0625,0.10638297,-272.66132,28.956526,-0.03219211,0.08598566,0.05371666,3.8879525E-4,0.0,0.0
1266.8419,172.24597,98598417,1.0625,0.12765957,-197.16724,375.14093,-0.03219211,0.08598566,0.05371666,3.8879525E-4,0.0,0.0
1263.7322,173.9248,98598434,1.0875,0.12765957,-172.42426,424.2318,-0.03219211,0.08598566,0.05371666,3.8879525E-4,0.0,0.0
1259.6191,182.77148,98598451,1.1375,0.14893617,-191.72528,501.19702,-0.03219211,0.08598566,0.05371666,1.710946E-5,0.0,0.0
1258.0684,194.82568,98598467,1.0,0.11702127,-169.22299,790.8121,-0.03219211,0.08598566,0.05371666,1.710946E-5,0.0,0.0
1260.296,209.0044,98598484,0.8,0.08510638,6.8570423,1034.7885,-0.03219211,0.08598566,0.05371666,1.710946E-5,0.0,0.0
1262.9277,243.15942,98598501,0.8,0.10638297,198.16812,1663.2715,-0.03219211,0.08598566,0.05371666,1.710946E-5,0.0,0.0
1266.2433,277.47766,98598517,0.8125,0.10638297,325.97787,2297.2244,-0.03219211,0.08598566,0.05371666,-3.372172E-5,0.0,0.0
1270.8115,314.1637,98598534,0.7875,0.08510638,379.0433,2722.5063,-0.03219211,0.08598566,0.05371666,-3.372172E-5,0.0,0.0
1275.7192,349.76025,98598551,0.7875,0.10638297,340.79678,2709.2778,-0.03219211,0.08598566,0.05371666,-3.372172E-5,0.0,0.0
1280.6322,379.71008,98598567,0.77500004,0.08510638,356.61307,2193.2231,-0.03219211,0.08598566,0.05371666,-3.372172E-5,0.0,0.0
1284.7938,406.2826,98598584,0.77500004,0.10638297,320.03043,1694.187,-0.03219211,0.08598566,0.05371666,0.0,0.0,0.0
1287.7614,425.1328,98598601,0.77500004,0.07446808,227.21378,1179.7698,-0.03219211,0.08598566,0.05371666,0.0,0.0,0.0
1289.9519,436.26648,98598618,0.77500004,0.08510638,131.08076,631.9536,-0.03219211,0.08598566,0.05371666,0.0,0.0,0.0
1291.487,442.86438,98598634,0.77500004,0.10638297,55.083817,149.73048,-0.03219211,0.08598566,0.05371666,0.0,0.0,0.0
1292.0573,445.01648,98598651,0.83750004,0.12765957,5.8278713,-166.78604,-0.03219211,0.08598566,0.05371666,-3.0011981E-5,0.0,0.0
1293.5833,445.01648,98598668,0.9875,0.12765957,6.116249,-325.12668,-0.03219211,0.08598566,0.05371666,-3.0011981E-5,0.0,0.0
1300.472,443.05408,98598684,1.0,0.12765957,191.66623,-347.75726,-0.03219211,0.08598566,0.05371666,-3.0011981E-5,0.0,0.0
1311.082,432.30005,98598701,1.0,0.11702127,520.374,-561.276,-0.03219211,0.08598566,0.05371666,-3.0011981E-5,0.0,0.0
1319.9854,416.97974,98598718,0.9875,0.11702127,736.8468,-933.00464,-0.03219211,0.08598566,0.05371666,-3.4793097E-4,8.698274E-5,0.0
1327.7705,407.92163,98598735,1.0,0.10638297,758.9926,-1057.9479,-0.03219211,0.08598566,0.05371666,-3.4793097E-4,8.698274E-5,0.0
1332.8724,403.77734,98598751,1.0125,0.12765957,532.281,-801.9809,-0.03219211,0.08598566,0.05371666,-3.4793097E-4,8.698274E-5,0.0
1336.0345,402.3683,98598768,1.0,0.12765957,195.87042,-145.71008,-0.03219211,0.08598566,0.05371666,-3.4793097E-4,8.698274E-5,0.0
1338.1039,402.3683,98598785,1.0,0.12765957,36.082096,232.82321,-0.03219211,0.08598566,0.05371666,-0.0,0.0,0.0
1339.6974,404.422,98598801,0.925,0.12765957,-40.17992,311.12582,-0.03219211,0.08598566,0.05371666,-0.0,0.0,0.0
1341.7777,414.94617,98598818,0.8875,0.12765957,4.7748976,492.2338,-0.03219211,0.08598566,0.05371666,-0.0,0.0,0.0
1345.1931,432.6598,98598835,0.8125,0.08510638,99.16063,951.2759,-0.03219211,0.08598566,0.05371666,-0.0,0.0,0.0
1349.353,457.83118,98598852,0.77500004,0.12765957,222.54497,1542.7152,-0.03219211,0.08598566,0.05371666,-4.040477E-5,0.0,0.0
1352.0377,492.81335,98598868,0.75,0.09574468,274.9597,2223.4624,-0.03219211,0.08598566,0.05371666,-4.040477E-5,0.0,0.0
1340.056,533.0967,98598885,0.1875,0.07446808,-200.11649,2792.7195,-0.03219211,0.08598566,0.05371666,-4.040477E-5,0.0,0.0
1340.056,533.0967,98598892,0.1875,0.07446808,-200.11649,2792.7195,-0.03219211,0.08598566,0.05371666,-4.040477E-5,0.0,0.0
