x,y,timestamp,pressure,fingerarea,velocityx,velocityy,accelx,accely,accelz,gyrox,gyroy,gyroz
370.85712,133.15186,15425349,1.3000001,0.12765957,0.0,0.0,-0.037862506,0.02727443,-0.053649902,0.0,0.0,0.0
370.85712,133.15186,15425378,1.2875,0.12765957,-0.037187994,-0.012644121,-0.037862506,0.02727443,-0.053649902,0.0,0.0,0.0
371.20215,150.93799,15425394,1.15,0.11702127,19.369028,997.08026,-0.037862506,0.02727443,-0.053649902,0.0,0.0,0.0
376.79172,190.98608,15425411,1.0125,0.12765957,250.53708,2686.1917,-0.037862506,0.02727443,-0.053649902,5.6272484E-6,-1.1254497E-5,0.0
388.92654,236.48584,15425428,1.0,0.08510638,648.67664,3542.4016,-0.037862506,0.02727443,-0.053649902,5.6272484E-6,-1.1254497E-5,0.0
402.48257,281.34155,15425445,0.975,0.08510638,944.88477,3885.5964,-0.037862506,0.02727443,-0.053649902,5.6272484E-6,-1.1254497E-5,0.0
418.5094,330.94617,15425461,0.9125,0.11702127,1205.3408,3718.8596,-0.037862506,0.02727443,-0.053649902,5.6272484E-6,-1.1254497E-5,0.0
433.4068,382.9923,15425478,0.9125,0.08510638,1187.6327,3314.6016,-0.030290004,0.021819532,0.12508011,3.355443E-6,0.0,0.0
449.14233,436.90283,15425495,0.8875,0.08510638,1054.1622,3317.1636,-0.030290004,0.021819532,0.12508011,3.355443E-6,0.0,0.0
463.19434,484.9054,15425511,0.8875,0.07446808,922.17236,3179.003,-0.030290004,0.021819532,0.12508011,3.355443E-6,0.0,0.0
474.26953,524.5303,15425528,0.875,0.09574468,759.00323,2715.1797,-0.030290004,0.021819532,0.12508011,3.355443E-6,0.0,0.0
484.21045,550.64233,15425545,0.85,0.11702127,605.54565,1945.7407,-0.030290004,0.021819532,0.12508011,0.0,0.0,0.0
493.75702,579.85547,15425562,0.83750004,0.07446808,493.19388,1323.5688,-0.030290004,0.021819532,0.12508011,0.0,0.0,0.0
499.45917,597.08154,15425578,0.8,0.08510638,373.0258,940.81006,-0.030290004,0.021819532,0.12508011,0.0,0.0,0.0
501.31464,612.0232,15425595,0.6375,0.12765957,158.07301,645.5292,-0.030290004,0.021819532,0.12508011,0.0,0.0,0.0
501.31464,612.9436,15425598,0.275,0.12765957,113.841255,576.685,-0.030290004,0.021819532,0.12508011,0.0,0.0,0.0
501.31464,612.9436,15425605,0.275,0.12765957,113.841255,576.685,-0.030290004,0.021819532,0.12508011,0.0,0.0,0.0
223.90497,314.4065,15425807,0.85,0.08510638,0.0,0.0,-0.030290004,0.021819532,0.12508011,0.0,0.0,0.0
224.65591,301.05774,15425829,0.975,0.10638297,159.11494,-2827.9304,-0.030290004,0.021819532,0.12508011,0.0,0.0,0.0
230.11673,273.19836,15425846,1.0,0.07446808,434.35596,-2401.6343,-0.030290004,0.021819532,0.12508011,0.0,0.0,0.0
243.23749,249.58044,15425862,0.96250004,0.12765957,903.9568,-2080.4302,-0.030290004,0.021819532,0.12508011,0.0,0.0,0.0
275.10095,213.40527,15425879,0.96250004,0.07446808,1744.5469,-2249.925,-0.030290004,0.021819532,0.12508011,0.0,0.0,0.0
322.75253,181.18481,15425896,0.96250004,0.10638297,2897.1882,-2372.761,-0.030290004,0.021819532,0.12508011,0.0,0.0,0.0
372.2498,157.60327,15425912,0.96250004,0.08510638,3766.5898,-1867.0327,-0.030290004,0.021819532,0.12508011,0.0,0.0,0.0
418.44064,147.47803,15425929,1.0,0.11702127,3850.1882,-1227.4927,-0.030290004,0.021819532,0.12508011,0.0,0.0,0.0
451.90637,150.52625,15425946,1.0,0.08510638,3041.8591,-53.325443,-0.030290004,0.021819532,0.12508011,0.0,0.0,0.0
474.28717,161.65332,15425963,1.0125,0.09574468,1810.6593,1046.0453,-0.030290004,0.021819532,0.12508011,0.0,0.0,0.0
489.9475,178.80481,15425979,0.9875,0.10638297,680.4641,1590.6365,-0.030290004,0.021819532,0.12508011,0.0,0.0,0.0
503.83496,214.57202,15425996,0.9875,0.08510638,307.845,2192.668,-0.030290004,0.021819532,0.12508011,0.0,0.0,0.0
502.74902,248.11609,15426013,0.96250004,0.10638297,-70.34218,2600.7583,-0.024232004,0.049455583,0.044063568,1.342177E-5,0.0,0.0
491.89972,284.4231,15426029,0.96250004,0.10638297,-715.1313,2802.5515,-0.024232004,0.049455583,0.044063568,1.342177E-5,0.0,0.0
474.87018,320.9463,15426046,0.9375,0.08510638,-1380.7982,2672.3499,-0.024232004,0.049455583,0.044063568,1.342177E-5,0.0,0.0
463.91333,337.67566,15426063,0.95,0.12765957,-1575.4791,1804.5027,-0.024232004,0.049455583,0.044063568,1.342177E-5,0.0,0.0
452.72522,352.95508,15426080,0.96250004,0.08510638,-1217.7203,924.1715,-0.024232004,0.049455583,0.044063568,3.355443E-6,0.0,0.0
446.84406,360.59204,15426096,0.95,0.07446808,-628.4556,192.15747,-0.024232004,0.049455583,0.044063568,3.355443E-6,0.0,0.0
445.8327,363.34253,15426113,1.0875,0.08510638,-105.11696,-218.8297,-0.024232004,0.049455583,0.044063568,3.355443E-6,0.0,0.0
452.04272,361.21606,15426130,0.9875,0.09574468,332.49405,-388.7589,-0.024232004,0.049455583,0.044063568,3.355443E-6,0.0,0.0
488.7461,355.60413,15426146,0.95,0.10638297,1436.9425,-548.91565,-0.024232004,0.049455583,0.044063568,0.0,0.0,0.0
528.4023,352.10828,15426163,0.90000004,0.12765957,2673.8467,-615.05383,-0.024232004,0.049455583,0.044063568,0.0,0.0,0.0
566.88025,357.88745,15426180,0.9375,0.09574468,3368.3735,-255.1882,-0.024232004,0.049455583,0.044063568,0.0,0.0,0.0
598.0684,369.68164,15426197,0.90000004,0.08510638,3011.2817,504.14032,-0.024232004,0.049455583,0.044063568,0.0,0.0,0.0
620.6865,386.34155,15426213,0.8875,0.10638297,1885.1394,1169.8856,-0.024232004,0.049455583,0.044063568,2.5165823E-6,0.0,0.0
635.59827,408.44434,15426230,0.9125,0.11702127,836.0012,1523.8673,-0.024232004,0.049455583,0.044063568,2.5165823E-6,0.0,0.0
642.6227,436.57275,15426247,0.90000004,0.09574468,177.01402,1909.3247,-0.024232004,0.049455583,0.044063568,2.5165823E-6,0.0,0.0
639.8051,457.83716,15426263,0.8875,0.12765957,-387.9198,1855.5244,-0.024232004,0.049455583,0.044063568,2.5165823E-6,0.0,0.0
632.2799,475.34058,15426280,0.9125,0.07446808,-815.59344,1521.1478,-0.024232004,0.049455583,0.044063568,1.342177E-5,0.0,0.0
612.4254,496.81116,15426297,0.925,0.10638297,-1286.1455,1143.2058,-0.024232004,0.049455583,0.044063568,1.342177E-5,0.0,0.0
585.515,518.9751,15426314,0.9375,0.08510638,-1882.492,1082.4463,-0.024232004,0.049455583,0.044063568,1.342177E-5,0.0,0.0
552.37933,539.14966,15426330,0.95,0.09574468,-2324.5063,1251.4814,-0.024232004,0.049455583,0.044063568,1.342177E-5,0.0,0.0
525.92053,550.8021,15426347,0.975,0.09574468,-2339.39,1043.783,-0.024232004,0.049455583,0.044063568,0.0,0.0,0.0
505.26495,555.6941,15426364,0.96250004,0.10638297,-1864.3059,511.89017,-0.024232004,0.049455583,0.044063568,0.0,0.0,0.0
491.56787,556.9679,15426380,0.95,0.11702127,-1140.3477,-42.734924,-0.024232004,0.049455583,0.044063568,0.0,0.0,0.0
487.49023,556.9679,15426397,0.96250004,0.11702127,-327.4852,-379.07346,-0.024232004,0.049455583,0.044063568,0.0,0.0,0.0
485.09546,556.9679,15426414,0.96250004,0.11702127,160.63652,-298.5034,-0.024232004,0.049455583,0.044063568,-3.355443E-6,0.0,0.0
484.3202,555.5719,15426430,0.90000004,0.11702127,353.66568,-201.34409,-0.024232004,0.049455583,0.044063568,-3.355443E-6,0.0,0.0
490.12036,549.01306,15426447,0.675,0.06382979,458.26816,-280.791,-0.024232004,0.049455583,0.044063568,-3.355443E-6,0.0,0.0
490.81805,548.0829,15426450,0.25,0.06382979,486.42352,-316.5229,-0.024232004,0.049455583,0.044063568,-3.355443E-6,0.0,0.0
490.81805,548.0829,15426459,0.25,0.06382979,486.42352,-316.5229,-0.024232004,0.049455583,0.044063568,-3.355443E-6,0.0,0.0
796.7185,423.69238,15426741,0.825,0.08510638,0.0,0.0,0.036614396,0.03956449,-0.044748306,0.0,0.0,0.0
796.7185,423.69238,15426765,0.9125,0.08510638,-0.03422687,-0.016570091,0.036614396,0.03956449,-0.044748306,0.0,0.0,0.0
772.7787,406.50146,15426781,0.925,0.12765957,-1856.0068,-1332.361,0.036614396,0.03956449,-0.044748306,0.0,0.0,0.0
757.10864,399.27527,15426798,0.95,0.11702127,-1592.5701,-925.206,0.036614396,0.03956449,-0.044748306,0.0,0.0,0.0
738.11475,395.92688,15426815,0.975,0.09574468,-1486.9022,-504.10425,0.036614396,0.03956449,-0.044748306,-3.355443E-6,0.0,0.0
721.55316,397.35596,15426832,0.975,0.12765957,-1349.1111,-113.12196,0.036614396,0.03956449,-0.044748306,-3.355443E-6,0.0,0.0
704.54706,404.37622,15426848,0.95,0.12765957,-989.7424,522.3429,0.036614396,0.03956449,-0.044748306,-3.355443E-6,0.0,0.0
686.8676,417.12854,15426865,0.9875,0.08510638,-1045.4271,877.1556,0.036614396,0.03956449,-0.044748306,-3.355443E-6,0.0,0.0
674.63257,430.07947,15426882,0.975,0.08510638,-928.3732,1105.9124,0.036614396,0.03956449,-0.044748306,3.355443E-6,0.0,0.0
666.1921,444.45264,15426898,0.96250004,0.12765957,-616.099,1114.5231,0.036614396,0.03956449,-0.044748306,3.355443E-6,0.0,0.0
661.9103,460.05835,15426915,0.9375,0.10638297,-242.69492,1103.6565,0.036614396,0.03956449,-0.044748306,3.355443E-6,0.0,0.0
664.69385,472.9248,15426932,0.9125,0.07446808,201.53033,938.5843,0.036614396,0.03956449,-0.044748306,3.355443E-6,0.0,0.0
673.8121,483.20508,15426949,0.8875,0.06382979,594.62134,748.0536,0.036614396,0.03956449,-0.044748306,2.5165823E-6,0.0,0.0
696.35095,496.99036,15426965,0.875,0.11702127,1208.5303,671.806,0.036614396,0.03956449,-0.044748306,2.5165823E-6,0.0,0.0
722.12946,501.01868,15426982,0.9125,0.09574468,1849.6008,431.74197,0.036614396,0.03956449,-0.044748306,2.5165823E-6,0.0,0.0
742.7036,495.31726,15426999,0.9125,0.09574468,1978.0236,-34.87624,0.036614396,0.03956449,-0.044748306,2.5165823E-6,0.0,0.0
755.74963,482.9596,15427015,0.8875,0.08510638,1531.1628,-729.38306,0.036614396,0.03956449,-0.044748306,-3.355443E-6,0.0,0.0
763.6968,469.9524,15427032,0.8625,0.12765957,748.1984,-1230.6012,0.036614396,0.03956449,-0.044748306,-3.355443E-6,0.0,0.0
771.93695,452.85217,15427049,0.8625,0.08510638,178.17265,-1393.3435,0.036614396,0.03956449,-0.044748306,-3.355443E-6,0.0,0.0
773.22614,444.81702,15427066,0.875,0.07446808,-84.10595,-1107.9152,0.036614396,0.03956449,-0.044748306,-3.355443E-6,0.0,0.0
772.98206,441.02856,15427082,0.90000004,0.07446808,-149.0214,-510.45926,0.005291518,-0.06434837,-0.0037984848,0.0,0.0,0.0
771.94147,439.68542,15427099,0.9875,0.09574468,-232.94038,-32.071728,0.005291518,-0.06434837,-0.0037984848,0.0,0.0,0.0
770.579,441.72546,15427116,1.075,0.11702127,-278.48682,326.1345,0.005291518,-0.06434837,-0.0037984848,0.0,0.0,0.0
770.08276,447.54395,15427132,1.0625,0.12765957,-195.72229,517.6917,0.005291518,-0.06434837,-0.0037984848,0.0,0.0,0.0
772.83655,455.8745,15427149,0.96250004,0.12765957,7.3209734,634.14465,0.005291518,-0.06434837,-0.0037984848,1.342177E-5,0.0,0.0
781.0006,463.92114,15427166,0.875,0.08510638,297.97165,695.2135,0.005291518,-0.06434837,-0.0037984848,1.342177E-5,0.0,0.0
798.4042,474.18213,15427183,0.8875,0.09574468,835.12634,744.0473,0.005291518,-0.06434837,-0.0037984848,1.342177E-5,0.0,0.0
813.11707,477.8911,15427199,0.8875,0.08510638,1278.9893,584.48553,0.005291518,-0.06434837,-0.0037984848,1.342177E-5,0.0,0.0
822.6865,474.98364,15427216,0.9125,0.08510638,1139.4348,89.04593,0.005291518,-0.06434837,-0.0037984848,0.0,0.0,0.0
827.1242,470.22925,15427233,0.9125,0.10638297,640.1872,-353.65558,0.005291518,-0.06434837,-0.0037984848,0.0,0.0,0.0
830.0029,459.43555,15427249,0.8875,0.09574468,94.002266,-773.5548,0.005291518,-0.06434837,-0.0037984848,0.0,0.0,0.0
828.28754,443.4297,15427266,0.8625,0.07446808,-254.6519,-1076.1904,0.005291518,-0.06434837,-0.0037984848,0.0,0.0,0.0
821.03973,406.6134,15427283,0.825,0.10638297,-436.2578,-1625.2418,0.005291518,-0.06434837,-0.0037984848,0.0,0.0,0.0
809.3624,282.91333,15427300,0.725,0.08510638,-786.8809,-4986.5083,0.005291518,-0.06434837,-0.0037984848,0.0,0.0,0.0
806.7152,249.54578,15427303,0.38750002,0.13829787,-843.7684,-5890.511,0.005291518,-0.06434837,-0.0037984848,0.0,0.0,0.0
806.7152,249.54578,15427312,0.38750002,0.13829787,-843.7684,-5890.511,0.005291518,-0.06434837,-0.0037984848,0.0,0.0,0.0
794.2193,67.40259,15427352,0.65000004,0.09574468,0.0,0.0,0.005291518,-0.06434837,-0.0037984848,1.0066329E-5,0.0,0.0
782.2232,59.406128,15427369,1.1375,0.09574468,683.45917,455.61316,0.005291518,-0.06434837,-0.0037984848,1.0066329E-5,0.0,0.0
782.2232,59.406128,15427383,1.15,0.11702127,563.7482,375.79865,0.005291518,-0.06434837,-0.0037984848,1.0066329E-5,0.0,0.0
782.2232,59.406128,15427400,1.225,0.11702127,339.0748,226.06697,0.005291518,-0.06434837,-0.0037984848,1.0066329E-5,0.0,0.0
782.2232,59.406128,15427417,1.3000001,0.11702127,243.05066,161.98917,0.005291518,-0.06434837,-0.0037984848,-2.1474808E-4,0.0,0.0
782.2232,59.406128,15427417,1.3000001,0.12765957,207.88547,138.58583,0.005291518,-0.06434837,-0.0037984848,-2.1474808E-4,0.0,0.0
782.2232,59.406128,15427433,1.1,0.12765957,159.83273,106.55459,0.005291518,-0.06434837,-0.0037984848,-2.1474808E-4,0.0,0.0
764.14905,112.46033,15427450,0.975,0.11702127,-430.08325,1638.8325,0.005291518,-0.06434837,-0.0037984848,-2.1474808E-4,0.0,0.0
759.8022,160.94763,15427467,0.96250004,0.09574468,-733.02203,3123.1206,0.005291518,-0.06434837,-0.0037984848,-2.1474808E-4,0.0,0.0
762.2634,200.91785,15427483,0.975,0.09574468,-451.8731,3827.4204,0.005291518,-0.06434837,-0.0037984848,0.0,0.0,0.0
769.5698,243.78442,15427500,0.95,0.12765957,181.75989,3676.1978,0.005291518,-0.06434837,-0.0037984848,0.0,0.0,0.0
780.69226,287.30115,15427517,0.925,0.10638297,975.2526,2624.6665,0.005291518,-0.06434837,-0.0037984848,0.0,0.0,0.0
793.6113,330.35583,15427534,0.90000004,0.07446808,1045.2065,2656.4045,0.005291518,-0.06434837,-0.0037984848,0.0,0.0,0.0
805.3225,370.48682,15427550,0.90000004,0.08510638,1048.3538,2493.3381,0.005291518,-0.06434837,-0.0037984848,3.355443E-6,0.0,0.0
815.9849,406.79614,15427567,0.875,0.12765957,847.07996,2248.6086,0.005291518,-0.06434837,-0.0037984848,3.355443E-6,0.0,0.0
825.5224,432.1101,15427584,0.875,0.07446808,645.93835,1817.7991,0.005291518,-0.06434837,-0.0037984848,3.355443E-6,0.0,0.0
831.95715,441.97034,15427600,0.8875,0.12765957,427.94354,887.4627,0.005291518,-0.06434837,-0.0037984848,3.355443E-6,0.0,0.0
843.31104,452.21155,15427617,0.8875,0.12765957,448.68143,145.0615,0.004233215,0.012521327,-0.067038536,0.0,0.0,0.0
854.2435,455.76636,15427634,0.90000004,0.12765957,576.1007,-260.8596,0.004233215,0.012521327,-0.067038536,0.0,0.0,0.0
869.3405,452.69983,15427651,0.925,0.10638297,810.81714,-470.34827,0.004233215,0.012521327,-0.067038536,0.0,0.0,0.0
879.5157,444.72852,15427667,0.8875,0.08510638,866.21515,-626.13855,0.004233215,0.012521327,-0.067038536,0.0,0.0,0.0
889.8953,431.995,15427684,0.8625,0.08510638,745.4047,-934.14355,0.004233215,0.012521327,-0.067038536,0.0,0.0,0.0
896.69,420.66296,15427701,0.83750004,0.12765957,512.78674,-1114.7812,0.004233215,0.012521327,-0.067038536,0.0,0.0,0.0
903.40924,402.94336,15427717,0.85,0.10638297,309.80383,-1138.2333,0.004233215,0.012521327,-0.067038536,0.0,0.0,0.0
903.61365,388.5426,15427734,0.83750004,0.07446808,128.42857,-1133.4979,0.004233215,0.012521327,-0.067038536,0.0,0.0,0.0
900.19354,374.1388,15427751,0.8625,0.07446808,-204.32549,-1011.6409,0.004233215,0.012521327,-0.067038536,0.0,0.0,0.0
890.7588,353.88037,15427768,0.85,0.12765957,-591.51294,-1050.4371,0.004233215,0.012521327,-0.067038536,0.0,0.0,0.0
883.9208,342.87744,15427784,0.85,0.08510638,-805.12,-966.3476,0.004233215,0.012521327,-0.067038536,0.0,0.0,0.0
876.7456,334.44507,15427801,0.90000004,0.08510638,-729.1414,-679.7179,0.004233215,0.012521327,-0.067038536,0.0,0.0,0.0
872.2974,330.49158,15427818,0.925,0.08510638,-488.086,-304.14758,0.004233215,0.012521327,-0.067038536,0.0,0.0,0.0
869.6622,329.5111,15427834,1.0,0.09574468,-205.82036,102.66161,0.004233215,0.012521327,-0.067038536,0.0,0.0,0.0
868.0821,330.50012,15427851,1.0625,0.11702127,-30.912052,277.1096,0.004233215,0.012521327,-0.067038536,0.0,0.0,0.0
867.6954,335.3573,15427868,1.0625,0.12765957,43.048325,364.74243,0.004233215,0.012521327,-0.067038536,0.0,0.0,0.0
868.3286,340.88416,15427885,1.0375,0.12765957,108.54804,492.9067,0.004233215,0.012521327,-0.067038536,0.0,0.0,0.0
871.2582,348.6173,15427901,0.95,0.10638297,171.6965,572.367,0.004233215,0.012521327,-0.067038536,0.0,0.0,0.0
876.1715,358.7942,15427918,0.7875,0.08510638,287.34763,652.3905,0.004233215,0.012521327,-0.067038536,0.0,0.0,0.0
884.9433,372.16418,15427935,0.725,0.08510638,526.11,834.46375,0.004233215,0.012521327,-0.067038536,0.0,0.0,0.0
886.1894,373.93628,15427939,0.4875,0.12765957,551.0616,846.1333,0.004233215,0.012521327,-0.067038536,-1.342177E-5,0.0,0.0
886.1894,373.93628,15427947,0.4875,0.12765957,551.0616,846.1333,0.004233215,0.012521327,-0.067038536,-1.342177E-5,0.0,0.0
914.6801,355.2777,15428196,0.85,0.12765957,0.0,0.0,0.011386572,-0.07798296,-0.02163124,0.0,0.0,0.0
914.6801,355.2777,15428219,0.925,0.12765957,0.04702771,0.01502196,0.011386572,-0.07798296,-0.02163124,0.0,0.0,0.0
914.6801,355.2777,15428235,1.0125,0.12765957,-0.05818101,-0.024133872,0.011386572,-0.07798296,-0.02163124,0.0,0.0,0.0
914.6801,355.2777,15428252,1.0,0.12765957,-0.009696555,-0.004110036,0.011386572,-0.07798296,-0.02163124,0.0,0.0,0.0
914.6801,355.2777,15428269,1.0125,0.10638297,0.02452359,0.0088749975,0.011386572,-0.07798296,-0.02163124,0.0,0.0,0.0
914.6801,355.2777,15428286,0.90000004,0.07446808,-0.027569618,-0.010369683,0.011386572,-0.07798296,-0.02163124,3.0198984E-5,0.0,0.0
901.6226,383.7295,15428302,0.85,0.10638297,-439.8167,929.4571,0.011386572,-0.07798296,-0.02163124,3.0198984E-5,0.0,0.0
905.5271,407.15625,15428319,0.825,0.08510638,-358.61505,1595.9185,0.011386572,-0.07798296,-0.02163124,3.0198984E-5,0.0,0.0
915.21155,425.73364,15428336,0.8625,0.08510638,125.11529,1932.4323,0.011386572,-0.07798296,-0.02163124,3.0198984E-5,0.0,0.0
931.39276,441.53687,15428352,0.83750004,0.09574468,956.1918,1481.2632,0.011386572,-0.07798296,-0.02163124,0.0,0.0,0.0
954.8375,454.04382,15428369,0.83750004,0.12765957,1714.2306,776.90875,0.011386572,-0.07798296,-0.02163124,0.0,0.0,0.0
976.31836,458.344,15428386,0.85,0.12765957,1790.9078,379.50452,0.011386572,-0.07798296,-0.02163124,0.0,0.0,0.0
993.51733,454.7152,15428403,0.8875,0.10638297,1580.2604,-208.74591,0.011386572,-0.07798296,-0.02163124,0.0,0.0,0.0
1004.09973,447.72754,15428419,0.85,0.08510638,1011.637,-670.4276,0.011386572,-0.07798296,-0.02163124,0.0,0.0,0.0
1010.15405,433.9596,15428436,0.83750004,0.07446808,341.7766,-1060.2126,0.011386572,-0.07798296,-0.02163124,0.0,0.0,0.0
1011.64856,417.11682,15428453,0.83750004,0.10638297,-73.195435,-1290.429,0.011386572,-0.07798296,-0.02163124,0.0,0.0,0.0
1006.5652,399.47632,15428470,0.83750004,0.07446808,-419.21127,-1365.2207,0.011386572,-0.07798296,-0.02163124,0.0,0.0,0.0
998.8706,388.68982,15428486,0.83750004,0.07446808,-674.1793,-1186.2778,0.011386572,-0.07798296,-0.02163124,0.0,0.0,0.0
981.4149,373.36682,15428503,0.85,0.09574468,-1016.187,-942.06464,0.011386572,-0.07798296,-0.02163124,0.0,0.0,0.0
953.25665,359.8756,15428519,0.8625,0.10638297,-1590.0282,-774.78625,0.011386572,-0.07798296,-0.02163124,0.0,0.0,0.0
920.23157,352.40173,15428536,0.875,0.12765957,-2225.31,-618.62897,0.011386572,-0.07798296,-0.02163124,0.0,0.0,0.0
893.05884,351.72363,15428553,0.9125,0.12765957,-2439.2766,-299.91144,0.011386572,-0.07798296,-0.02163124,0.0,0.0,0.0
883.6697,352.99817,15428569,0.975,0.12765957,-1766.3492,125.928116,0.011386572,-0.07798296,-0.02163124,0.0,0.0,0.0
879.6737,354.84924,15428586,1.0125,0.11702127,-272.14236,474.40005,0.011386572,-0.07798296,-0.02163124,0.0,0.0,0.0
878.19196,360.05603,15428603,1.0500001,0.09574468,493.34695,463.96713,0.011386572,-0.07798296,-0.02163124,0.0,0.0,0.0
880.271,367.85828,15428620,0.96250004,0.08510638,654.7529,514.5604,0.011386572,-0.07798296,-0.02163124,0.0,0.0,0.0
886.75104,378.06482,15428636,0.825,0.06382979,601.6634,634.0282,0.011386572,-0.07798296,-0.02163124,0.0,0.0,0.0
906.4067,407.05554,15428653,0.83750004,0.11702127,935.9394,1230.3396,0.011386572,-0.07798296,-0.02163124,0.0,0.0,0.0
924.90607,426.97156,15428670,0.58750004,0.07446808,1484.5879,1813.0365,0.011386572,-0.07798296,-0.02163124,0.0,0.0,0.0
925.1767,427.24646,15428670,0.2125,0.06382979,1463.9913,1765.1338,0.011386572,-0.07798296,-0.02163124,0.0,0.0,0.0
925.1767,427.24646,15428678,0.2125,0.06382979,1463.9913,1765.1338,0.011386572,-0.07798296,-0.02163124,0.0,0.0,0.0
1070.1295,357.9431,15428855,0.975,0.11702127,0.0,0.0,0.009109258,0.025613606,-0.03330517,0.0,0.0,0.0
1070.1295,357.9431,15428887,1.0125,0.12765957,-0.047931507,-0.016414905,0.009109258,0.025613606,-0.03330517,2.5165823E-6,0.0,0.0
1070.1295,357.9431,15428891,1.0,0.12765957,-0.08559135,-0.02829935,0.009109258,0.025613606,-0.03330517,2.5165823E-6,0.0,0.0
1070.1295,357.9431,15428920,0.975,0.12765957,0.0041425927,0.0019531513,0.009109258,0.025613606,-0.03330517,2.5165823E-6,0.0,0.0
1070.1295,357.9431,15428937,0.96250004,0.12765957,-0.0012577034,-0.0012216284,0.009109258,0.025613606,-0.03330517,2.5165823E-6,0.0,0.0
1050.0745,360.17126,15428954,0.90000004,0.10638297,-499.238,55.451015,0.009109258,0.025613606,-0.03330517,3.355443E-6,0.0,0.0
1045.5637,363.02173,15428970,0.9125,0.09574468,-854.8657,156.62999,0.009109258,0.025613606,-0.03330517,3.355443E-6,0.0,0.0
1041.3478,369.47375,15428987,0.9125,0.09574468,-773.4784,312.10123,0.009109258,0.025613606,-0.03330517,3.355443E-6,0.0,0.0
1039.1395,378.6975,15429004,0.8875,0.09574468,-346.7591,573.66174,0.009109258,0.025613606,-0.03330517,3.355443E-6,0.0,0.0
1040.7032,389.6847,15429021,0.8625,0.12765957,290.08917,760.0053,0.009109258,0.025613606,-0.03330517,0.0,0.0,0.0
1046.9156,405.73755,15429037,0.83750004,0.10638297,488.53107,951.4993,0.009109258,0.025613606,-0.03330517,0.0,0.0,0.0
1055.0647,418.9983,15429054,0.83750004,0.06382979,618.0829,1053.9075,0.009109258,0.025613606,-0.03330517,0.0,0.0,0.0
1072.5499,433.76526,15429071,0.8625,0.09574468,979.38995,1020.8191,0.009109258,0.025613606,-0.03330517,0.0,0.0,0.0
1090.0479,440.1643,15429087,0.8625,0.08510638,1281.7092,767.50275,0.009109258,0.025613606,-0.03330517,-1.0066329E-5,0.0,0.0
1103.854,438.04944,15429104,0.9125,0.08510638,1333.0076,180.0209,0.009109258,0.025613606,-0.03330517,-1.0066329E-5,0.0,0.0
1110.168,430.70898,15429121,0.9375,0.08510638,844.664,-526.85803,0.009109258,0.025613606,-0.03330517,-1.0066329E-5,0.0,0.0
1112.6156,417.70557,15429138,0.875,0.12765957,246.46643,-1021.0761,0.009109258,0.025613606,-0.03330517,-1.0066329E-5,0.0,0.0
1112.0216,408.63892,15429154,0.875,0.12765957,-250.14268,-1128.2582,0.009109258,0.025613606,-0.03330517,1.342177E-5,0.0,0.0
1108.7195,402.55054,15429171,0.875,0.10638297,-458.58582,-813.8927,0.009109258,0.025613606,-0.03330517,1.342177E-5,0.0,0.0
1105.3696,399.03772,15429188,0.8875,0.11702127,-454.764,-384.92014,0.009109258,0.025613606,-0.03330517,1.342177E-5,0.0,0.0
1099.0898,397.03735,15429204,0.9125,0.11702127,-469.1523,-70.266884,0.009109258,0.025613606,-0.03330517,1.342177E-5,0.0,0.0
1094.3932,398.7887,15429221,0.96250004,0.12765957,-430.8331,148.05995,-7.12594E-4,-0.01150912,0.069355965,0.0,0.0,0.0
1090.2739,405.26855,15429238,0.9875,0.11702127,-361.5622,375.3214,-7.12594E-4,-0.01150912,0.069355965,0.0,0.0,0.0
1088.6234,413.8047,15429255,0.9875,0.09574468,-216.88997,620.7698,-7.12594E-4,-0.01150912,0.069355965,0.0,0.0,0.0
1091.0735,426.1831,15429271,0.90000004,0.08510638,59.669632,860.5631,-7.12594E-4,-0.01150912,0.069355965,0.0,0.0,0.0
1102.0317,453.75354,15429288,0.825,0.10638297,459.2102,1300.5732,-7.12594E-4,-0.01150912,0.069355965,1.0066329E-5,0.0,0.0
1116.3108,488.4629,15429305,0.8125,0.07446808,957.89044,2098.4985,-7.12594E-4,-0.01150912,0.069355965,1.0066329E-5,0.0,0.0
1129.329,524.1488,15429321,0.8125,0.11702127,1219.0778,2667.6384,-7.12594E-4,-0.01150912,0.069355965,1.0066329E-5,0.0,0.0
1135.6989,546.78955,15429338,0.8125,0.11702127,928.39355,2370.9458,-7.12594E-4,-0.01150912,0.069355965,1.0066329E-5,0.0,0.0
1136.6078,564.1897,15429355,0.83750004,0.11702127,337.67294,1513.1027,-7.12594E-4,-0.01150912,0.069355965,0.0,0.0,0.0
1133.8279,574.68115,15429372,0.8875,0.09574468,-245.84837,593.133,-7.12594E-4,-0.01150912,0.069355965,0.0,0.0,0.0
1128.8656,578.8214,15429388,0.90000004,0.08510638,-553.9697,6.8778143,-7.12594E-4,-0.01150912,0.069355965,0.0,0.0,0.0
1117.9093,582.5582,15429405,0.9125,0.08510638,-761.4853,-238.99037,-7.12594E-4,-0.01150912,0.069355965,0.0,0.0,0.0
1107.7681,582.355,15429422,0.9125,0.08510638,-850.9798,-271.59152,-7.12594E-4,-0.01150912,0.069355965,2.5165823E-6,0.0,0.0
1095.8091,579.2361,15429438,0.8875,0.11702127,-897.00104,-315.57547,-7.12594E-4,-0.01150912,0.069355965,2.5165823E-6,0.0,0.0
1083.1113,573.54504,15429455,0.875,0.12765957,-899.44507,-413.75345,-7.12594E-4,-0.01150912,0.069355965,2.5165823E-6,0.0,0.0
1070.2773,564.06055,15429472,0.8625,0.09574468,-841.06964,-630.56946,-7.12594E-4,-0.01150912,0.069355965,2.5165823E-6,0.0,0.0
1057.5525,553.0122,15429488,0.8625,0.08510638,-817.5346,-810.7402,-7.12594E-4,-0.01150912,0.069355965,-3.0198984E-5,0.0,0.0
1047.4302,539.54285,15429505,0.83750004,0.07446808,-726.3183,-923.54785,-7.12594E-4,-0.01150912,0.069355965,-3.0198984E-5,0.0,0.0
1038.6544,521.7283,15429522,0.83750004,0.12765957,-557.41895,-1053.2817,-7.12594E-4,-0.01150912,0.069355965,-3.0198984E-5,0.0,0.0
1034.6652,506.47375,15429539,0.83750004,0.09574468,-335.17044,-1164.4353,-7.12594E-4,-0.01150912,0.069355965,-3.0198984E-5,0.0,0.0
1034.1412,493.49304,15429555,0.825,0.08510638,-25.811375,-1023.25977,-7.12594E-4,-0.01150912,0.069355965,-2.5165823E-6,0.0,0.0
1035.2832,481.44775,15429572,0.77500004,0.09574468,195.48451,-825.89825,-7.12594E-4,-0.01150912,0.069355965,-2.5165823E-6,0.0,0.0
1043.9349,454.82593,15429589,0.75,0.08510638,503.90143,-1057.01,-7.12594E-4,-0.01150912,0.069355965,-2.5165823E-6,0.0,0.0
1049.238,443.94714,15429605,0.65000004,0.06382979,634.15436,-1090.2836,-7.12594E-4,-0.01150912,0.069355965,-2.5165823E-6,0.0,0.0
1064.1315,429.912,15429620,0.275,0.09574468,746.2848,-1028.7751,-7.12594E-4,-0.01150912,0.069355965,3.355443E-6,0.0,0.0
1064.1315,429.912,15429626,0.275,0.09574468,746.2848,-1028.7751,-7.12594E-4,-0.01150912,0.069355965,3.355443E-6,0.0,0.0
1111.616,175.80005,15429788,0.90000004,0.10638297,0.0,0.0,-5.700756E-4,-0.041207284,-0.12851524,0.0,0.0,0.0
1111.616,175.80005,15429806,1.0125,0.11702127,0.25581327,0.041134834,-5.700756E-4,-0.041207284,-0.12851524,0.0,0.0,0.0
1111.616,175.80005,15429823,1.075,0.11702127,-0.028809777,-0.0039515756,-5.700756E-4,-0.041207284,-0.12851524,0.0,0.0,0.0
1111.616,175.80005,15429839,1.125,0.11702127,0.05282325,0.008708473,-5.700756E-4,-0.041207284,-0.12851524,0.0,0.0,0.0
1111.616,175.80005,15429856,1.0125,0.12765957,-0.036960132,-0.005747525,-5.700756E-4,-0.041207284,-0.12851524,0.0,0.0,0.0
1111.1161,204.52393,15429873,0.90000004,0.08510638,-17.082586,835.90247,-5.700756E-4,-0.041207284,-0.12851524,0.0,0.0,0.0
1112.8597,244.15247,15429890,0.825,0.12765957,20.254665,2327.3499,-5.700756E-4,-0.041207284,-0.12851524,3.355443E-6,0.0,0.0
1115.6561,279.3086,15429906,0.825,0.08510638,131.56357,3175.2542,-5.700756E-4,-0.041207284,-0.12851524,3.355443E-6,0.0,0.0
1120.1533,315.17188,15429923,0.8125,0.07446808,270.32022,3199.5098,-5.700756E-4,-0.041207284,-0.12851524,3.355443E-6,0.0,0.0
1124.6818,351.7152,15429940,0.8,0.12765957,356.2262,2576.45,-5.700756E-4,-0.041207284,-0.12851524,3.355443E-6,0.0,0.0
1127.5437,381.1588,15429956,0.8,0.08510638,332.42142,1937.3401,-5.700756E-4,-0.041207284,-0.12851524,2.5165823E-6,0.0,0.0
1131.1305,406.05835,15429973,0.8,0.09574468,234.61679,1602.7606,-5.700756E-4,-0.041207284,-0.12851524,2.5165823E-6,0.0,0.0
1133.1987,422.55334,15429990,0.825,0.08510638,154.03432,1103.8213,-5.700756E-4,-0.041207284,-0.12851524,2.5165823E-6,0.0,0.0
1134.1926,429.47107,15430007,0.8875,0.08510638,63.073467,399.8298,-5.700756E-4,-0.041207284,-0.12851524,2.5165823E-6,0.0,0.0
1134.6085,433.0349,15430023,0.95,0.09574468,1.8069137,-128.81941,-5.700756E-4,-0.041207284,-0.12851524,3.355443E-6,0.0,0.0
1134.6085,433.46594,15430040,1.0375,0.09574468,-40.750313,-373.75803,-5.700756E-4,-0.041207284,-0.12851524,3.355443E-6,0.0,0.0
1135.879,428.06042,15430057,0.9875,0.09574468,-31.860674,-548.3787,-5.700756E-4,-0.041207284,-0.12851524,3.355443E-6,0.0,0.0
1140.0524,415.42065,15430073,0.90000004,0.12765957,131.46745,-763.5602,-5.700756E-4,-0.041207284,-0.12851524,3.355443E-6,0.0,0.0
1143.1749,407.57617,15430090,0.875,0.11702127,258.08246,-927.1066,-5.700756E-4,-0.041207284,-0.12851524,-2.5165823E-6,0.0,0.0
1148.0093,399.547,15430107,0.83750004,0.08510638,335.94922,-818.6576,-5.700756E-4,-0.041207284,-0.12851524,-2.5165823E-6,0.0,0.0
1154.59,390.9569,15430123,0.8125,0.07446808,395.87717,-591.79535,-5.700756E-4,-0.041207284,-0.12851524,-2.5165823E-6,0.0,0.0
1161.4752,384.26465,15430140,0.8,0.07446808,452.3324,-393.38248,-5.700756E-4,-0.041207284,-0.12851524,-2.5165823E-6,0.0,0.0
1166.8314,381.16272,15430157,0.83750004,0.07446808,463.76382,-272.58234,-5.700756E-4,-0.041207284,-0.12851524,0.0,0.0,0.0
1170.546,382.77625,15430174,0.8875,0.08510638,357.57895,-37.361477,-5.700756E-4,-0.041207284,-0.12851524,0.0,0.0,0.0
1173.651,388.27478,15430190,0.9125,0.12765957,173.06306,350.57635,-5.700756E-4,-0.041207284,-0.12851524,0.0,0.0,0.0
1174.0956,398.5149,15430207,0.925,0.12765957,28.615871,697.92737,-5.700756E-4,-0.041207284,-0.12851524,0.0,0.0,0.0
1172.4109,409.57507,15430224,0.90000004,0.08510638,-109.04857,909.3956,-5.700756E-4,-0.041207284,-0.12851524,1.0066329E-5,0.0,0.0
1170.4594,424.75842,15430240,0.85,0.07446808,-213.111,1052.3478,-5.700756E-4,-0.041207284,-0.12851524,1.0066329E-5,0.0,0.0
1171.4073,443.88916,15430257,0.8125,0.12765957,-171.50784,1191.1766,-5.700756E-4,-0.041207284,-0.12851524,1.0066329E-5,0.0,0.0
1180.1476,483.36572,15430274,0.7875,0.07446808,152.30797,1880.306,-5.700756E-4,-0.041207284,-0.12851524,1.0066329E-5,0.0,0.0
1190.0905,505.4347,15430287,0.3375,0.13829787,544.0098,2282.2693,-0.03245606,-0.016965806,0.0011882782,-3.0198984E-5,0.0,0.0
1190.0905,505.4347,15430294,0.3375,0.13829787,544.0098,2282.2693,-0.03245606,-0.016965806,0.0011882782,-3.0198984E-5,0.0,0.0
