x,y,timestamp,pressure,fingerarea,velocityx,velocityy,accelx,accely,accelz,gyrox,gyroy,gyroz
339.86722,248.65723,77577831,0.83750004,0.10638297,0.0,0.0,0.02749294,0.0885202,0.102952,0.0,0.0,0.0
339.86722,248.65723,77577853,0.9125,0.10638297,0.065945044,0.050797816,0.02749294,0.0885202,0.102952,0.0,0.0,0.0
339.86722,248.65723,77577869,0.9375,0.09574468,7.1728707E-4,0.0017948337,0.02749294,0.0885202,0.102952,0.0,0.0,0.0
344.6294,264.04858,77577886,0.96250004,0.08510638,206.47545,667.2767,0.02749294,0.0885202,0.102952,0.0,0.0,0.0
350.7097,281.12134,77577903,0.96250004,0.10638297,451.58453,1368.7817,0.02749294,0.0885202,0.102952,0.0,0.0,0.0
358.98438,304.08557,77577919,0.925,0.09574468,587.2495,1681.5745,0.02749294,0.0885202,0.102952,0.0,0.0,0.0
366.72293,331.69482,77577936,0.90000004,0.12765957,654.23346,2005.1423,-0.010005653,-0.033183843,-0.05363846,0.0,0.0,0.0
371.9274,354.8092,77577953,0.9375,0.09574468,533.0413,1909.8928,-0.010005653,-0.033183843,-0.05363846,0.0,0.0,0.0
378.0247,378.29248,77577970,0.9125,0.08510638,370.98477,1604.8639,-0.010005653,-0.033183843,-0.05363846,0.0,0.0,0.0
381.93832,394.4773,77577986,0.9375,0.12765957,269.05655,1308.3129,-0.010005653,-0.033183843,-0.05363846,0.0,0.0,0.0
386.19092,408.01477,77578003,0.95,0.10638297,190.35324,834.7339,-0.010005653,-0.033183843,-0.05363846,0.0,0.0,0.0
390.59628,424.5652,77578020,0.9375,0.08510638,209.26282,680.7045,-0.010005653,-0.033183843,-0.05363846,0.0,0.0,0.0
394.20944,439.18762,77578036,0.925,0.09574468,201.09091,731.7134,-0.010005653,-0.033183843,-0.05363846,0.0,0.0,0.0
397.31955,450.2445,77578053,0.9125,0.10638297,194.6179,737.2815,-0.010005653,-0.033183843,-0.05363846,0.0,0.0,0.0
400.07877,458.27698,77578070,0.9125,0.09574468,163.39078,565.3443,-0.010005653,-0.033183843,-0.05363846,0.0,0.0,0.0
401.2267,463.2467,77578087,0.8875,0.09574468,83.6368,246.96046,-0.010005653,-0.033183843,-0.05363846,0.0,0.0,0.0
401.3472,465.35608,77578103,0.875,0.08510638,5.029388,10.122314,-0.010005653,-0.033183843,-0.05363846,0.0,0.0,0.0
401.3472,467.2235,77578120,0.75,0.08510638,-52.635323,-75.59201,-0.010005653,-0.033183843,-0.05363846,0.0,0.0,0.0
401.3472,467.22913,77578120,0.4,0.12765957,-50.141384,-61.585323,-0.010005653,-0.033183843,-0.05363846,0.0,0.0,0.0
401.3472,467.22913,77578128,0.4,0.12765957,-50.141384,-61.585323,-0.010005653,-0.033183843,-0.05363846,0.0,0.0,0.0
278.38724,256.6538,77578435,0.85,0.08510638,0.0,0.0,-0.010005653,-0.033183843,-0.05363846,0.0,0.0,0.0
278.38724,256.6538,77578454,0.875,0.09574468,0.065741204,0.058828734,-0.010005653,-0.033183843,-0.05363846,0.0,0.0,0.0
278.38724,256.6538,77578471,0.925,0.12765957,-0.0186332,-0.015708156,-0.008004546,-0.010547087,-0.026910782,0.0,0.0,0.0
282.7272,249.6405,77578488,0.925,0.10638297,238.37587,-385.24142,-0.008004546,-0.010547087,-0.026910782,0.0,0.0,0.0
291.3008,235.47583,77578504,0.925,0.08510638,529.8385,-862.14624,-0.008004546,-0.010547087,-0.026910782,0.0,0.0,0.0
300.7956,220.375,77578521,0.9375,0.09574468,718.6019,-1160.5314,-0.008004546,-0.010547087,-0.026910782,0.0,0.0,0.0
310.2916,206.5232,77578538,0.925,0.11702127,785.22217,-1236.4915,-0.008004546,-0.010547087,-0.026910782,0.0,0.0,0.0
321.72412,192.52698,77578554,0.925,0.12765957,788.52716,-1106.6146,-0.008004546,-0.010547087,-0.026910782,0.0,0.0,0.0
334.17972,181.28625,77578571,0.9375,0.09574468,766.09607,-813.79846,-0.008004546,-0.010547087,-0.026910782,0.0,0.0,0.0
346.72092,172.00269,77578588,0.9375,0.08510638,802.7486,-575.72925,-0.008004546,-0.010547087,-0.026910782,0.0,0.0,0.0
356.80902,164.78467,77578605,0.95,0.09574468,767.772,-417.86038,-0.008004546,-0.010547087,-0.026910782,0.0,0.0,0.0
366.32562,159.23413,77578621,0.95,0.09574468,631.9884,-263.40125,-0.008004546,-0.010547087,-0.026910782,0.0,0.0,0.0
375.8692,155.65515,77578638,0.96250004,0.08510638,516.958,-143.65512,-0.008004546,-0.010547087,-0.026910782,0.0,0.0,0.0
386.37485,155.36438,77578655,0.95,0.08510638,510.65405,-13.1811905,-0.008004546,-0.010547087,-0.026910782,0.0,0.0,0.0
394.8509,157.04333,77578671,0.95,0.08510638,546.2558,147.79146,-0.008004546,-0.010547087,-0.026910782,0.0,0.0,0.0
403.18118,160.7384,77578688,0.95,0.08510638,541.55286,311.3732,-0.008004546,-0.010547087,-0.026910782,0.0,0.0,0.0
410.1389,165.84387,77578705,0.9375,0.11702127,445.51492,418.78583,-0.008004546,-0.010547087,-0.026910782,0.0,0.0,0.0
416.29248,171.31311,77578722,0.925,0.11702127,332.11078,456.6688,-0.008004546,-0.010547087,-0.026910782,0.0,0.0,0.0
422.2271,178.48218,77578738,0.9125,0.12765957,293.86005,475.95828,-0.008004546,-0.010547087,-0.026910782,0.0,0.0,0.0
428.5156,189.4425,77578755,0.9375,0.11702127,278.8063,559.99805,-0.008004546,-0.010547087,-0.026910782,0.0,0.0,0.0
434.56717,205.14795,77578772,0.9125,0.08510638,330.28714,829.91486,-0.008004546,-0.010547087,-0.026910782,0.0,0.0,0.0
436.34247,219.41956,77578788,0.9125,0.10638297,244.58723,1072.4,-0.008004546,-0.010547087,-0.026910782,0.0,0.0,0.0
437.36786,230.34387,77578805,0.9125,0.12765957,77.183205,1003.9901,-0.008004546,-0.010547087,-0.026910782,0.0,0.0,0.0
436.75775,242.38,77578822,0.925,0.10638297,-86.29776,815.3249,-0.008004546,-0.010547087,-0.026910782,0.0,0.0,0.0
434.48087,253.47498,77578839,0.9125,0.09574468,-217.52505,617.31976,-0.008004546,-0.010547087,-0.026910782,0.0,0.0,0.0
432.46274,267.3108,77578855,0.925,0.09574468,-236.55424,629.793,-0.008004546,-0.010547087,-0.026910782,0.0,0.0,0.0
429.75903,275.79553,77578872,0.9125,0.11702127,-229.22037,664.758,-0.008004546,-0.010547087,-0.026910782,0.0,0.0,0.0
426.8644,284.1068,77578889,0.90000004,0.12765957,-224.95004,556.4951,-0.008004546,-0.010547087,-0.026910782,0.0,0.0,0.0
424.31012,291.41064,77578905,0.9125,0.12765957,-193.01572,417.47537,-0.008004546,-0.010547087,-0.026910782,0.0,0.0,0.0
422.3303,298.44934,77578922,0.925,0.11702127,-148.92757,309.41006,-0.008004546,-0.010547087,-0.026910782,0.0,0.0,0.0
420.68515,306.07507,77578939,0.925,0.09574468,-99.68707,339.559,-0.008004546,-0.010547087,-0.026910782,0.0,0.0,0.0
419.4687,314.38965,77578956,0.90000004,0.09574468,-57.49217,434.58807,-0.008004546,-0.010547087,-0.026910782,0.0,0.0,0.0
418.42648,321.06238,77578972,0.9125,0.09574468,-40.597378,454.39346,-0.008004546,-0.010547087,-0.026910782,0.0,0.0,0.0
417.84183,325.76184,77578989,0.9125,0.09574468,-26.711187,381.94302,-0.008004546,-0.010547087,-0.026910782,0.0,0.0,0.0
417.84183,328.6443,77579006,0.95,0.11702127,1.2914985,205.4519,-0.006403625,-4.376769E-4,0.026471138,0.0,0.0,0.0
417.84183,330.47913,77579022,0.925,0.11702127,21.027332,56.741013,-0.006403625,-4.376769E-4,0.026471138,0.0,0.0,0.0
418.4446,332.3595,77579039,0.90000004,0.11702127,41.212177,-7.34979,-0.006403625,-4.376769E-4,0.026471138,0.0,0.0,0.0
418.84152,333.06506,77579056,0.9125,0.11702127,54.828808,-10.271763,-0.006403625,-4.376769E-4,0.026471138,0.0,0.0,0.0
420.0352,334.29846,77579073,0.90000004,0.11702127,65.64119,2.994023,-0.006403625,-4.376769E-4,0.026471138,0.0,0.0,0.0
422.76596,334.84204,77579089,0.925,0.11702127,124.36065,21.760656,-0.006403625,-4.376769E-4,0.026471138,0.0,0.0,0.0
426.8531,334.84204,77579106,0.925,0.10638297,225.9185,0.6428811,-0.006403625,-4.376769E-4,0.026471138,0.0,0.0,0.0
432.50296,334.84204,77579123,0.925,0.10638297,346.69543,-15.709974,-0.006403625,-4.376769E-4,0.026471138,0.0,0.0,0.0
439.54358,334.84204,77579139,0.925,0.09574468,466.02432,-25.536858,-0.006403625,-4.376769E-4,0.026471138,0.0,0.0,0.0
447.8546,334.84204,77579156,0.9375,0.09574468,541.9389,-24.482882,-0.006403625,-4.376769E-4,0.026471138,0.0,0.0,0.0
457.0431,333.9536,77579173,0.925,0.08510638,620.37634,-26.094393,-0.006403625,-4.376769E-4,0.026471138,0.0,0.0,0.0
466.4475,333.9536,77579190,0.90000004,0.11702127,650.23303,-34.088116,-0.006403625,-4.376769E-4,0.026471138,0.0,0.0,0.0
475.773,333.9536,77579206,0.9125,0.11702127,632.80054,-20.247467,-0.006403625,-4.376769E-4,0.026471138,0.0,0.0,0.0
485.61078,335.78235,77579223,0.9125,0.10638297,605.3194,53.553036,-0.006403625,-4.376769E-4,0.026471138,0.0,0.0,0.0
494.96594,337.63574,77579240,0.9125,0.10638297,582.2658,130.11037,-0.006403625,-4.376769E-4,0.026471138,0.0,0.0,0.0
503.79865,341.45056,77579256,0.9125,0.12765957,558.45984,218.58928,-0.006403625,-4.376769E-4,0.026471138,0.0,0.0,0.0
512.359,345.08118,77579273,0.9125,0.12765957,528.10144,274.60144,-0.006403625,-4.376769E-4,0.026471138,0.0,0.0,0.0
520.6122,348.83167,77579290,0.9125,0.12765957,490.86206,290.0497,-0.006403625,-4.376769E-4,0.026471138,0.0,0.0,0.0
527.6225,354.22607,77579306,0.8875,0.11702127,429.84418,303.92917,-0.006403625,-4.376769E-4,0.026471138,0.0,0.0,0.0
535.1847,360.74182,77579323,0.9125,0.09574468,407.9376,373.20828,-0.006403625,-4.376769E-4,0.026471138,0.0,0.0,0.0
542.0334,367.99146,77579340,0.8875,0.08510638,386.8739,463.78763,-0.006403625,-4.376769E-4,0.026471138,0.0,0.0,0.0
548.0689,374.73962,77579357,0.9125,0.08510638,371.78964,501.50467,-0.006403625,-4.376769E-4,0.026471138,0.0,0.0,0.0
552.7159,381.787,77579373,0.90000004,0.09574468,302.9863,462.77048,-0.006403625,-4.376769E-4,0.026471138,0.0,0.0,0.0
558.0492,391.07776,77579390,0.875,0.10638297,235.11363,448.87137,-0.006403625,-4.376769E-4,0.026471138,0.0,0.0,0.0
562.1838,402.0393,77579407,0.875,0.10638297,231.66089,616.81934,-0.006403625,-4.376769E-4,0.026471138,0.0,0.0,0.0
564.3014,410.41663,77579423,0.8875,0.08510638,171.5523,667.1065,-0.006403625,-4.376769E-4,0.026471138,0.0,0.0,0.0
564.2524,423.32312,77579440,0.8875,0.08510638,43.184097,734.5192,-0.006403625,-4.376769E-4,0.026471138,0.0,0.0,0.0
561.08636,434.02246,77579457,0.8875,0.09574468,-168.65353,723.36646,-0.006403625,-4.376769E-4,0.026471138,0.0,0.0,0.0
558.429,443.22058,77579474,0.90000004,0.12765957,-311.2727,652.90216,-0.006403625,-4.376769E-4,0.026471138,0.0,0.0,0.0
554.82,449.136,77579490,0.8875,0.12765957,-343.1217,515.5126,-0.006403625,-4.376769E-4,0.026471138,0.0,0.0,0.0
548.89923,456.21155,77579507,0.8875,0.11702127,-370.1135,330.88837,-0.006403625,-4.376769E-4,0.026471138,0.0,0.0,0.0
541.6086,462.29883,77579524,0.90000004,0.11702127,-432.2229,246.78592,-0.006403625,-4.376769E-4,0.026471138,0.0,0.0,0.0
534.05115,466.45288,77579540,0.9125,0.08510638,-526.1917,239.38217,0.042877078,-3.501475E-4,0.005177498,0.0,0.0,0.0
525.8626,470.09192,77579557,0.925,0.08510638,-567.5366,210.70454,0.042877078,-3.501475E-4,0.005177498,0.0,0.0,0.0
516.46545,472.26587,77579574,0.9125,0.08510638,-582.131,121.8021,0.042877078,-3.501475E-4,0.005177498,0.0,0.0,0.0
505.74908,473.4486,77579591,0.9125,0.08510638,-624.76263,25.926926,0.042877078,-3.501475E-4,0.005177498,0.0,0.0,0.0
494.55988,473.4486,77579607,0.9125,0.09574468,-708.77405,-29.49228,0.042877078,-3.501475E-4,0.005177498,0.0,0.0,0.0
484.52637,472.59668,77579624,0.9375,0.11702127,-719.92163,-88.47461,0.042877078,-3.501475E-4,0.005177498,0.0,0.0,0.0
476.15668,470.74622,77579641,0.9125,0.10638297,-609.24396,-152.00995,0.042877078,-3.501475E-4,0.005177498,0.0,0.0,0.0
469.45398,467.8977,77579657,0.9125,0.12765957,-449.6389,-197.69794,0.042877078,-3.501475E-4,0.005177498,0.0,0.0,0.0
464.92688,466.1631,77579674,0.90000004,0.10638297,-273.40775,-200.90186,0.042877078,-3.501475E-4,0.005177498,0.0,0.0,0.0
462.03174,463.41235,77579691,0.90000004,0.10638297,-130.1888,-196.69017,0.042877078,-3.501475E-4,0.005177498,0.0,0.0,0.0
459.91937,461.5349,77579708,0.90000004,0.10638297,-31.398403,-153.76715,0.042877078,-3.501475E-4,0.005177498,0.0,0.0,0.0
458.1104,459.73303,77579724,0.90000004,0.10638297,1.2952774,-115.69371,0.042877078,-3.501475E-4,0.005177498,0.0,0.0,0.0
457.0749,457.89233,77579741,0.8875,0.10638297,-12.860848,-95.29233,0.042877078,-3.501475E-4,0.005177498,0.0,0.0,0.0
456.32928,456.0514,77579758,0.8125,0.10638297,-17.360933,-94.08778,0.042877078,-3.501475E-4,0.005177498,0.0,0.0,0.0
456.32928,454.79004,77579769,0.425,0.12765957,-0.061076295,-96.57854,0.042877078,-3.501475E-4,0.005177498,0.0,0.0,0.0
456.32928,454.79004,77579776,0.425,0.12765957,-0.061076295,-96.57854,0.042877078,-3.501475E-4,0.005177498,0.0,0.0,0.0
658.7634,367.71667,77580196,0.5625,0.08510638,0.0,0.0,0.0023016632,-0.008280113,-0.011857986,0.0,0.0,0.0
658.7634,367.71667,77580226,0.725,0.08510638,0.0071892026,0.0030547755,0.0023016632,-0.008280113,-0.011857986,0.0,0.0,0.0
658.7634,367.71667,77580242,0.77500004,0.10638297,0.018726422,0.010801273,0.0023016632,-0.008280113,-0.011857986,0.0,0.0,0.0
658.7634,367.71667,77580259,0.8125,0.10638297,-0.030352546,-0.017320858,0.0023016632,-0.008280113,-0.011857986,0.0,0.0,0.0
658.7634,367.71667,77580276,0.825,0.12765957,0.017168768,0.009398628,0.0023016632,-0.008280113,-0.011857986,0.0,0.0,0.0
658.7634,367.71667,77580292,0.8125,0.12765957,-0.059262067,-0.03359374,0.0023016632,-0.008280113,-0.011857986,0.0,0.0,0.0
658.7634,367.71667,77580305,0.825,0.12765957,-0.028345872,-0.014856333,0.0023016632,-0.008280113,-0.011857986,0.0,0.0,0.0
658.7634,367.71667,77580325,0.83750004,0.12765957,-0.005613572,-0.0027065282,0.0023016632,-0.008280113,-0.011857986,0.0,0.0,0.0
658.7634,367.71667,77580341,0.85,0.12765957,0.027658232,0.015760886,0.0023016632,-0.008280113,-0.011857986,0.0,0.0,0.0
636.44073,349.68005,77580359,0.8875,0.12765957,-516.74243,-417.52225,0.0023016632,-0.008280113,-0.011857986,0.0,0.0,0.0
629.13904,348.29968,77580376,0.8625,0.10638297,-941.99786,-637.5675,0.0023016632,-0.008280113,-0.011857986,0.0,0.0,0.0
620.4937,350.7384,77580393,0.8875,0.10638297,-998.2099,-345.14685,0.0023016632,-0.008280113,-0.011857986,0.0,0.0,0.0
612.4242,354.91284,77580409,0.875,0.10638297,-716.6981,178.56746,0.0023016632,-0.008280113,-0.011857986,0.0,0.0,0.0
605.70123,360.70276,77580426,0.90000004,0.09574468,-225.16621,703.0042,0.0023016632,-0.008280113,-0.011857986,0.0,0.0,0.0
598.9344,369.82056,77580443,0.90000004,0.09574468,-200.46732,766.3221,0.0023016632,-0.008280113,-0.011857986,0.0,0.0,0.0
593.76807,381.53247,77580460,0.90000004,0.09574468,-290.16147,774.66864,0.0023016632,-0.008280113,-0.011857986,0.0,0.0,0.0
591.4393,390.13403,77580476,0.875,0.12765957,-185.26625,787.9958,0.0023016632,-0.008280113,-0.011857986,0.0,0.0,0.0
590.7855,401.0996,77580493,0.8875,0.12765957,-38.833767,742.6546,0.0023016632,-0.008280113,-0.011857986,0.0,0.0,0.0
592.79407,413.9839,77580510,0.875,0.09574468,153.87085,730.8968,0.0023016632,-0.008280113,-0.011857986,0.0,0.0,0.0
596.47723,428.82275,77580526,0.8625,0.08510638,302.7955,834.7706,0.0023016632,-0.008280113,-0.011857986,0.0,0.0,0.0
600.6352,437.64685,77580543,0.875,0.10638297,372.01425,825.86884,0.0023016632,-0.008280113,-0.011857986,0.0,0.0,0.0
603.5514,443.71924,77580560,0.8625,0.10638297,347.30338,582.83856,0.0023016632,-0.008280113,-0.011857986,0.0,0.0,0.0
609.83563,450.71033,77580576,0.85,0.10638297,342.45517,297.35117,0.0023016632,-0.008280113,-0.011857986,0.0,0.0,0.0
616.6595,455.49182,77580593,0.825,0.10638297,393.11298,144.74706,0.0023016632,-0.008280113,-0.011857986,0.0,0.0,0.0
624.1685,459.6454,77580610,0.83750004,0.10638297,494.23233,182.03609,-0.014158666,0.0013759136,0.0065145493,0.0,0.0,0.0
630.9497,461.00952,77580627,0.825,0.11702127,525.5299,135.0743,-0.014158666,0.0013759136,0.0065145493,0.0,0.0,0.0
637.15265,461.00952,77580643,0.825,0.12765957,445.46918,-19.263182,-0.014158666,0.0013759136,0.0065145493,0.0,0.0,0.0
643.4025,461.00952,77580660,0.8125,0.12765957,364.56094,-127.97192,-0.014158666,0.0013759136,0.0065145493,0.0,0.0,0.0
648.5717,459.43835,77580677,0.825,0.12765957,305.8292,-157.66234,-0.014158666,0.0013759136,0.0065145493,0.0,0.0,0.0
653.9462,456.79358,77580693,0.83750004,0.12765957,290.85217,-181.57643,-0.014158666,0.0013759136,0.0065145493,0.0,0.0,0.0
658.6796,453.96106,77580710,0.85,0.10638297,273.95395,-215.74335,-0.014158666,0.0013759136,0.0065145493,0.0,0.0,0.0
662.87714,450.26575,77580727,0.83750004,0.08510638,244.89896,-264.4248,-0.014158666,0.0013759136,0.0065145493,0.0,0.0,0.0
666.52277,445.55603,77580744,0.83750004,0.08510638,213.14845,-298.73526,-0.014158666,0.0013759136,0.0065145493,0.0,0.0,0.0
669.66174,440.927,77580760,0.825,0.08510638,175.06528,-316.59796,-0.014158666,0.0013759136,0.0065145493,0.0,0.0,0.0
671.55237,435.35022,77580777,0.825,0.08510638,128.05238,-353.66888,-0.014158666,0.0013759136,0.0065145493,0.0,0.0,0.0
673.62964,429.81116,77580794,0.83750004,0.08510638,91.83266,-374.3246,-0.014158666,0.0013759136,0.0065145493,0.0,0.0,0.0
676.1766,423.0924,77580810,0.825,0.09574468,91.909775,-398.54077,-0.014158666,0.0013759136,0.0065145493,0.0,0.0,0.0
677.5018,415.735,77580827,0.83750004,0.12765957,95.866905,-449.51163,-0.014158666,0.0013759136,0.0065145493,0.0,0.0,0.0
678.2571,409.2069,77580844,0.83750004,0.12765957,64.94922,-459.99243,-0.014158666,0.0013759136,0.0065145493,0.0,0.0,0.0
677.9404,403.3452,77580860,0.83750004,0.09574468,-6.702862,-418.20465,-0.014158666,0.0013759136,0.0065145493,0.0,0.0,0.0
676.9065,397.83154,77580877,0.83750004,0.09574468,-91.37822,-336.7941,-0.014158666,0.0013759136,0.0065145493,0.0,0.0,0.0
674.94305,391.4751,77580894,0.85,0.08510638,-147.40384,-299.3294,-0.014158666,0.0013759136,0.0065145493,0.0,0.0,0.0
672.8588,384.86487,77580911,0.85,0.08510638,-175.93654,-359.0975,-0.014158666,0.0013759136,0.0065145493,0.0,0.0,0.0
671.2726,379.3379,77580927,0.85,0.08510638,-170.05174,-379.64185,-0.014158666,0.0013759136,0.0065145493,0.0,0.0,0.0
670.2325,376.55334,77580944,0.875,0.08510638,-108.0677,-278.5167,-0.014158666,0.0013759136,0.0065145493,0.0,0.0,0.0
669.1934,374.7063,77580961,0.8625,0.08510638,-59.177353,-118.516945,-0.014158666,0.0013759136,0.0065145493,0.0,0.0,0.0
668.15424,373.93628,77580977,0.8625,0.08510638,-34.04648,17.486506,-0.014158666,0.0013759136,0.0065145493,0.0,0.0,0.0
667.10223,373.93628,77580994,0.875,0.08510638,-41.855625,82.87435,-0.014158666,0.0013759136,0.0065145493,0.0,0.0,0.0
667.2606,373.93628,77581011,0.90000004,0.08510638,-25.66011,88.76622,-0.014158666,0.0013759136,0.0065145493,0.0,0.0,0.0
667.2606,375.6178,77581028,0.875,0.08510638,10.856494,88.567314,-0.014158666,0.0013759136,0.0065145493,0.0,0.0,0.0
667.2606,380.67163,77581044,0.875,0.08510638,29.744139,227.28046,-0.014158666,0.0013759136,0.0065145493,0.0,0.0,0.0
668.06415,385.32922,77581061,0.8625,0.09574468,44.026104,358.3649,-0.014158666,0.0013759136,0.0065145493,0.0,0.0,0.0
669.1021,390.86426,77581078,0.8625,0.10638297,63.59028,441.2084,-0.014158666,0.0013759136,0.0065145493,0.0,0.0,0.0
670.13495,397.03918,77581094,0.8625,0.10638297,85.9339,434.94116,-0.014158666,0.0013759136,0.0065145493,0.0,0.0,0.0
672.09894,403.57617,77581111,0.8625,0.10638297,112.48542,411.47177,-0.014158666,0.0013759136,0.0065145493,0.0,0.0,0.0
674.6397,410.0841,77581128,0.875,0.09574468,145.23929,422.02567,-0.014158666,0.0013759136,0.0065145493,0.0,0.0,0.0
678.7747,419.28796,77581145,0.8625,0.08510638,221.18553,500.73862,0.03667307,-0.02289927,-0.042788506,0.0,0.0,0.0
682.3832,429.401,77581161,0.85,0.08510638,280.70438,612.1012,0.03667307,-0.02289927,-0.042788506,0.0,0.0,0.0
686.0047,436.57605,77581178,0.8625,0.10638297,285.02164,610.03314,0.03667307,-0.02289927,-0.042788506,0.0,0.0,0.0
688.8743,442.56555,77581195,0.8625,0.12765957,234.59355,494.4275,0.03667307,-0.02289927,-0.042788506,0.0,0.0,0.0
690.56964,445.57898,77581211,0.85,0.12765957,138.7305,248.53133,0.03667307,-0.02289927,-0.042788506,0.0,0.0,0.0
692.6588,449.29272,77581228,0.85,0.12765957,79.53561,81.73163,0.03667307,-0.02289927,-0.042788506,0.0,0.0,0.0
695.7345,452.9829,77581245,0.83750004,0.12765957,109.45603,99.94656,0.03667307,-0.02289927,-0.042788506,0.0,0.0,0.0
699.367,456.6709,77581261,0.83750004,0.11702127,182.98825,171.09634,0.03667307,-0.02289927,-0.042788506,0.0,0.0,0.0
702.88824,459.80054,77581278,0.85,0.10638297,255.09125,216.89787,0.03667307,-0.02289927,-0.042788506,0.0,0.0,0.0
705.4628,461.64453,77581295,0.8625,0.10638297,229.64351,149.94547,0.03667307,-0.02289927,-0.042788506,0.0,0.0,0.0
708.026,463.4784,77581312,0.85,0.10638297,169.76721,86.28474,0.03667307,-0.02289927,-0.042788506,0.0,0.0,0.0
709.679,465.33142,77581328,0.8625,0.10638297,104.54049,57.726288,0.03667307,-0.02289927,-0.042788506,0.0,0.0,0.0
711.2213,466.34058,77581345,0.8625,0.10638297,61.63948,54.41999,0.03667307,-0.02289927,-0.042788506,0.0,0.0,0.0
712.2652,466.34058,77581362,0.8625,0.10638297,47.488407,19.83368,0.03667307,-0.02289927,-0.042788506,0.0,0.0,0.0
713.3065,466.34058,77581378,0.8625,0.10638297,32.616924,-25.918446,0.03667307,-0.02289927,-0.042788506,0.0,0.0,0.0
714.34546,466.34058,77581395,0.8625,0.10638297,35.935432,-48.769695,0.03667307,-0.02289927,-0.042788506,0.0,0.0,0.0
714.7452,466.34058,77581412,0.8625,0.08510638,34.262333,-36.275703,0.03667307,-0.02289927,-0.042788506,0.0,0.0,0.0
715.93744,466.34058,77581429,0.8625,0.09574468,38.427876,-9.133775,0.03667307,-0.02289927,-0.042788506,0.0,0.0,0.0
716.0959,466.34058,77581445,0.8625,0.10638297,27.37659,0.025208507,0.03667307,-0.02289927,-0.042788506,0.0,0.0,0.0
717.0009,466.34058,77581462,0.875,0.09574468,28.218098,0.0024812277,0.03667307,-0.02289927,-0.042788506,0.0,0.0,0.0
717.7442,466.34058,77581479,0.875,0.09574468,44.850693,0.010039174,0.03667307,-0.02289927,-0.042788506,0.0,0.0,0.0
717.7442,466.34058,77581495,0.875,0.09574468,27.35435,0.0064161546,0.03667307,-0.02289927,-0.042788506,0.0,0.0,0.0
718.244,466.34058,77581512,0.8625,0.09574468,16.842556,-0.024905879,0.03667307,-0.02289927,-0.042788506,0.0,0.0,0.0
718.6365,466.34058,77581529,0.8625,0.09574468,3.416457,0.03244119,0.03667307,-0.02289927,-0.042788506,0.0,0.0,0.0
718.7439,466.34058,77581546,0.8625,0.10638297,6.9925137,0.05317179,0.03667307,-0.02289927,-0.042788506,0.0,0.0,0.0
718.7439,466.34058,77581562,0.875,0.09574468,8.963888,0.022087459,0.03667307,-0.02289927,-0.042788506,0.0,0.0,0.0
718.7439,466.34058,77581579,0.8875,0.09574468,-4.7317753,0.0041683107,0.03667307,-0.02289927,-0.042788506,0.0,0.0,0.0
718.7439,466.34058,77581591,0.875,0.09574468,-10.830457,-0.027267389,0.03667307,-0.02289927,-0.042788506,0.0,0.0,0.0
719.35974,466.34058,77581612,0.8625,0.09574468,8.006243,0.0015199817,0.03667307,-0.02289927,-0.042788506,0.0,0.0,0.0
719.9125,466.34058,77581629,0.8625,0.09574468,32.404026,0.02936745,0.03667307,-0.02289927,-0.042788506,0.0,0.0,0.0
719.7435,466.34058,77581646,0.8625,0.09574468,28.835493,4.0176943E-5,0.03667307,-0.02289927,-0.042788506,0.0,0.0,0.0
719.9734,466.34058,77581663,0.875,0.09574468,11.61185,-0.021131605,0.03667307,-0.02289927,-0.042788506,0.0,0.0,0.0
720.99316,466.34058,77581679,0.8625,0.09574468,25.758936,0.017529761,-0.03466153,-0.018319413,-0.018230438,0.0,0.0,0.0
721.05444,466.34058,77581696,0.85,0.09574468,24.653667,0.040281273,-0.03466153,-0.018319413,-0.018230438,0.0,0.0,0.0
721.6702,466.34058,77581713,0.8625,0.09574468,38.398678,-0.03278257,-0.03466153,-0.018319413,-0.018230438,0.0,0.0,0.0
722.63184,466.34058,77581729,0.85,0.09574468,48.09814,0.017179985,-0.03466153,-0.018319413,-0.018230438,0.0,0.0,0.0
723.6738,465.57373,77581746,0.83750004,0.09574468,60.935207,-16.520535,-0.03466153,-0.018319413,-0.018230438,0.0,0.0,0.0
725.6796,463.7301,77581763,0.83750004,0.10638297,101.61349,-76.73845,-0.03466153,-0.018319413,-0.018230438,0.0,0.0,0.0
727.7578,460.9796,77581780,0.8125,0.10638297,139.70221,-169.21635,-0.03466153,-0.018319413,-0.018230438,0.0,0.0,0.0
730.8921,456.29663,77581796,0.8,0.10638297,184.87051,-267.6816,-0.03466153,-0.018319413,-0.018230438,0.0,0.0,0.0
736.1939,445.82166,77581813,0.825,0.08510638,276.79483,-503.1883,-0.03466153,-0.018319413,-0.018230438,0.0,0.0,0.0
744.08795,424.9746,77581830,0.8125,0.11702127,436.05466,-1019.4122,-0.03466153,-0.018319413,-0.018230438,0.0,0.0,0.0
749.1766,410.35022,77581846,0.8125,0.12765957,476.81354,-1295.0366,-0.03466153,-0.018319413,-0.018230438,0.0,0.0,0.0
754.24365,393.443,77581863,0.8125,0.09574468,423.6204,-1325.6072,-0.03466153,-0.018319413,-0.018230438,0.0,0.0,0.0
758.20337,375.49,77581880,0.825,0.09574468,278.39893,-1167.518,-0.03466153,-0.018319413,-0.018230438,0.0,0.0,0.0
760.3053,356.76636,77581897,0.8125,0.12765957,136.25963,-1091.3121,-0.03466153,-0.018319413,-0.018230438,0.0,0.0,0.0
761.52704,336.86414,77581913,0.83750004,0.09574468,52.669838,-1208.7865,-0.03466153,-0.018319413,-0.018230438,0.0,0.0,0.0
761.0819,318.10828,77581930,0.83750004,0.09574468,-55.20334,-1214.4647,-0.03466153,-0.018319413,-0.018230438,0.0,0.0,0.0
757.64014,300.04846,77581947,0.83750004,0.12765957,-196.93822,-1144.9558,-0.03466153,-0.018319413,-0.018230438,0.0,0.0,0.0
753.0576,285.2367,77581963,0.83750004,0.09574468,-324.26688,-1000.12415,-0.03466153,-0.018319413,-0.018230438,0.0,0.0,0.0
747.32513,270.16907,77581980,0.8625,0.09574468,-440.6738,-846.46674,-0.03466153,-0.018319413,-0.018230438,0.0,0.0,0.0
742.13354,260.02527,77581997,0.8625,0.12765957,-456.4639,-665.5921,-0.03466153,-0.018319413,-0.018230438,0.0,0.0,0.0
733.6954,248.82129,77582013,0.875,0.12765957,-484.0098,-554.34424,-0.03466153,-0.018319413,-0.018230438,0.0,0.0,0.0
725.30865,239.73962,77582030,0.875,0.10638297,-532.9879,-463.19373,-0.03466153,-0.018319413,-0.018230438,0.0,0.0,0.0
715.50525,232.72668,77582047,0.875,0.11702127,-619.2406,-380.2899,-0.03466153,-0.018319413,-0.018230438,0.0,0.0,0.0
706.29285,226.22498,77582064,0.8875,0.09574468,-655.14606,-322.90945,-0.03466153,-0.018319413,-0.018230438,0.0,0.0,0.0
698.9305,222.10889,77582080,0.8875,0.09574468,-555.5334,-230.8142,-0.03466153,-0.018319413,-0.018230438,0.0,0.0,0.0
693.43866,219.75842,77582097,0.90000004,0.08510638,-390.51566,-105.735374,-0.03466153,-0.018319413,-0.018230438,0.0,0.0,0.0
688.2822,218.44812,77582114,0.9125,0.08510638,-243.65364,-14.898063,-0.03466153,-0.018319413,-0.018230438,0.0,0.0,0.0
684.80676,218.44812,77582130,0.9375,0.08510638,-165.16798,68.875725,-0.03466153,-0.018319413,-0.018230438,0.0,0.0,0.0
682.088,218.44812,77582147,0.925,0.08510638,-113.658295,99.58126,-0.03466153,-0.018319413,-0.018230438,0.0,0.0,0.0
679.9366,220.7937,77582164,0.925,0.10638297,-71.85398,131.02632,-0.03466153,-0.018319413,-0.018230438,0.0,0.0,0.0
677.8451,224.51147,77582181,0.9375,0.10638297,-57.543026,222.07742,-0.03466153,-0.018319413,-0.018230438,0.0,0.0,0.0
677.2574,229.10388,77582197,0.9125,0.12765957,-38.820297,320.1605,-0.03466153,-0.018319413,-0.018230438,0.0,0.0,0.0
677.79785,235.6189,77582214,0.90000004,0.12765957,18.627983,425.3376,0.020270765,0.0013444722,0.03341484,0.0,0.0,0.0
679.9945,247.86694,77582231,0.8875,0.08510638,121.79124,635.4417,0.020270765,0.0013444722,0.03341484,0.0,0.0,0.0
684.8564,271.1969,77582247,0.8875,0.08510638,274.7093,1113.2024,0.020270765,0.0013444722,0.03341484,0.0,0.0,0.0
689.67114,290.4508,77582264,0.875,0.12765957,380.59164,1492.413,0.020270765,0.0013444722,0.03341484,0.0,0.0,0.0
693.0263,308.41577,77582281,0.875,0.09574468,373.83316,1550.459,0.020270765,0.0013444722,0.03341484,0.0,0.0,0.0
698.19574,327.53918,77582298,0.875,0.11702127,324.7491,1349.4666,0.020270765,0.0013444722,0.03341484,0.0,0.0,0.0
703.1226,340.0365,77582314,0.875,0.12765957,293.5831,957.66437,0.020270765,0.0013444722,0.03341484,0.0,0.0,0.0
708.4752,350.3518,77582331,0.8875,0.10638297,324.28656,635.72253,0.020270765,0.0013444722,0.03341484,0.0,0.0,0.0
714.7547,362.64807,77582348,0.875,0.08510638,342.31677,401.175,0.020270765,0.0013444722,0.03341484,0.0,0.0,0.0
721.15137,373.7732,77582364,0.875,0.08510638,404.55347,462.80603,0.020270765,0.0013444722,0.03341484,0.0,0.0,0.0
728.17303,384.62207,77582381,0.8875,0.12765957,431.0364,603.33685,0.020270765,0.0013444722,0.03341484,0.0,0.0,0.0
735.0038,395.79114,77582398,0.8625,0.12765957,437.1547,655.6899,0.020270765,0.0013444722,0.03341484,0.0,0.0,0.0
740.3635,405.25903,77582415,0.875,0.09574468,386.8072,600.6773,0.020270765,0.0013444722,0.03341484,0.0,0.0,0.0
748.06,418.94006,77582431,0.875,0.09574468,397.80167,668.61237,0.020270765,0.0013444722,0.03341484,0.0,0.0,0.0
752.1241,430.06567,77582448,0.875,0.09574468,358.5007,772.76807,0.020270765,0.0013444722,0.03341484,0.0,0.0,0.0
755.7835,437.11182,77582465,0.8625,0.11702127,242.2511,617.949,0.020270765,0.0013444722,0.03341484,0.0,0.0,0.0
757.6464,440.42334,77582481,0.8625,0.12765957,121.72893,335.1081,0.020270765,0.0013444722,0.03341484,0.0,0.0,0.0
761.363,444.8778,77582498,0.875,0.12765957,80.79907,103.94104,0.020270765,0.0013444722,0.03341484,0.0,0.0,0.0
764.4825,448.5747,77582515,0.8625,0.12765957,154.71896,68.54804,0.020270765,0.0013444722,0.03341484,0.0,0.0,0.0
768.3157,452.20264,77582532,0.875,0.12765957,209.12486,139.78625,0.020270765,0.0013444722,0.03341484,0.0,0.0,0.0
771.40295,454.42407,77582548,0.875,0.10638297,222.19008,161.53667,0.020270765,0.0013444722,0.03341484,0.0,0.0,0.0
775.67584,456.32288,77582565,0.85,0.10638297,225.87888,95.31467,0.020270765,0.0013444722,0.03341484,0.0,0.0,0.0
779.8108,458.1604,77582582,0.85,0.10638297,247.2642,55.428463,0.020270765,0.0013444722,0.03341484,0.0,0.0,0.0
784.8143,459.97607,77582598,0.83750004,0.12765957,278.9959,59.144634,0.020270765,0.0013444722,0.03341484,0.0,0.0,0.0
790.1385,461.00952,77582615,0.85,0.12765957,318.2441,68.75288,0.020270765,0.0013444722,0.03341484,0.0,0.0,0.0
794.34454,461.00952,77582632,0.83750004,0.12765957,324.37344,29.848658,0.020270765,0.0013444722,0.03341484,0.0,0.0,0.0
799.0121,459.99036,77582649,0.825,0.12765957,301.95285,-48.060265,0.020270765,0.0013444722,0.03341484,0.0,0.0,0.0
803.19965,458.12927,77582665,0.825,0.12765957,262.37103,-133.54027,0.020270765,0.0013444722,0.03341484,0.0,0.0,0.0
806.68506,456.2887,77582682,0.83750004,0.12765957,214.24806,-174.95049,0.020270765,0.0013444722,0.03341484,0.0,0.0,0.0
810.5634,453.14673,77582699,0.83750004,0.11702127,197.97766,-198.07086,0.020270765,0.0013444722,0.03341484,0.0,0.0,0.0
812.6679,450.83215,77582715,0.83750004,0.10638297,160.50864,-204.79497,0.020270765,0.0013444722,0.03341484,0.0,0.0,0.0
814.9995,448.9928,77582732,0.8125,0.10638297,121.59795,-163.54562,-0.01578343,0.009075582,0.04273224,0.0,0.0,0.0
819.5968,447.15723,77582749,0.6875,0.10638297,167.97606,-120.00631,-0.01578343,0.009075582,0.04273224,0.0,0.0,0.0
820.2108,446.79346,77582752,0.4125,0.10638297,180.48282,-115.8792,-0.01578343,0.009075582,0.04273224,0.0,0.0,0.0
820.2108,446.79346,77582761,0.4125,0.10638297,180.48282,-115.8792,-0.01578343,0.009075582,0.04273224,0.0,0.0,0.0
892.18744,336.61914,77583844,0.6125,0.09574468,0.0,0.0,-0.016501397,-0.01819162,-0.055850983,0.0,0.0,0.0
892.18744,336.61914,77583868,0.625,0.09574468,-0.034031764,-0.01247942,-0.016501397,-0.01819162,-0.055850983,0.0,0.0,0.0
892.18744,336.61914,77583885,0.7,0.08510638,-0.04031531,-0.01606185,-0.016501397,-0.01819162,-0.055850983,0.0,0.0,0.0
892.18744,336.61914,77583902,0.75,0.08510638,-0.030857326,-0.013432201,-0.016501397,-0.01819162,-0.055850983,0.0,0.0,0.0
892.18744,336.61914,77583919,0.77500004,0.08510638,0.01794063,0.0055147978,-0.016501397,-0.01819162,-0.055850983,0.0,0.0,0.0
892.18744,336.61914,77583935,0.8125,0.11702127,-0.022738976,-0.01058517,-0.016501397,-0.01819162,-0.055850983,0.0,0.0,0.0
883.67224,338.0381,77583952,0.8,0.11702127,-146.52525,24.438107,-0.016501397,-0.01819162,-0.055850983,0.0,0.0,0.0
869.70386,340.67847,77583969,0.8,0.12765957,-771.8111,135.89,-0.016501397,-0.01819162,-0.055850983,0.0,0.0,0.0
863.1301,342.56226,77583985,0.825,0.12765957,-942.5276,190.22835,-0.016501397,-0.01819162,-0.055850983,0.0,0.0,0.0
858.5835,344.38745,77584002,0.83750004,0.12765957,-685.8924,178.82155,-0.016501397,-0.01819162,-0.055850983,3.355443E-6,0.0,0.0
855.4323,347.8938,77584019,0.83750004,0.12765957,-230.3634,171.49933,-0.016501397,-0.01819162,-0.055850983,3.355443E-6,0.0,0.0
852.3152,351.58765,77584036,0.83750004,0.10638297,83.19321,198.54672,-0.016501397,-0.01819162,-0.055850983,3.355443E-6,0.0,0.0
847.6944,358.84497,77584052,0.83750004,0.08510638,-130.8051,366.6933,-0.016501397,-0.01819162,-0.055850983,3.355443E-6,0.0,0.0
845.10986,368.12927,77584069,0.825,0.08510638,-174.70341,550.7132,-0.016501397,-0.01819162,-0.055850983,0.0,0.0,0.0
843.6176,377.36206,77584086,0.83750004,0.08510638,-146.19539,670.0681,-0.016501397,-0.01819162,-0.055850983,0.0,0.0,0.0
843.8489,384.74548,77584102,0.85,0.10638297,-29.24851,636.4572,-0.016501397,-0.01819162,-0.055850983,0.0,0.0,0.0
844.8909,392.15466,77584119,0.825,0.12765957,104.48163,526.821,-0.016501397,-0.01819162,-0.055850983,0.0,0.0,0.0
847.5949,400.21094,77584136,0.825,0.12765957,206.45633,439.60495,-0.016501397,-0.01819162,-0.055850983,0.0,0.0,0.0
850.4199,407.6256,77584153,0.83750004,0.10638297,245.00758,439.2043,-0.016501397,-0.01819162,-0.055850983,0.0,0.0,0.0
854.03503,415.89758,77584169,0.83750004,0.09574468,268.05997,485.06375,-0.016501397,-0.01819162,-0.055850983,0.0,0.0,0.0
857.6624,423.8811,77584186,0.825,0.09574468,268.05856,484.6986,-0.016501397,-0.01819162,-0.055850983,0.0,0.0,0.0
861.6385,431.58423,77584203,0.825,0.09574468,261.45157,475.72314,-0.016501397,-0.01819162,-0.055850983,0.0,0.0,0.0
863.99927,434.8922,77584219,0.825,0.11702127,218.41888,346.01843,-0.016501397,-0.01819162,-0.055850983,0.0,0.0,0.0
867.449,438.578,77584236,0.8125,0.10638297,172.90967,185.03668,-0.016501397,-0.01819162,-0.055850983,0.0,0.0,0.0
871.61456,442.28027,77584253,0.8125,0.12765957,191.16908,90.65592,-0.016501397,-0.01819162,-0.055850983,0.0,0.0,0.0
877.8066,446.8612,77584269,0.8125,0.10638297,301.8721,147.7606,-0.016501397,-0.01819162,-0.055850983,0.0,0.0,0.0
883.5541,450.563,77584286,0.8,0.10638297,391.8393,222.85799,-0.016501397,-0.01819162,-0.055850983,0.0,0.0,0.0
888.7938,452.30383,77584303,0.8,0.10638297,408.14563,193.86162,-0.016501397,-0.01819162,-0.055850983,0.0,0.0,0.0
893.28723,454.1681,77584320,0.8,0.12765957,342.88858,101.5843,-0.016501397,-0.01819162,-0.055850983,0.0,0.0,0.0
899.3746,454.79004,77584336,0.7875,0.12765957,309.9095,22.129602,-0.016501397,-0.01819162,-0.055850983,0.0,0.0,0.0
903.05096,454.4048,77584353,0.77500004,0.12765957,268.86734,-42.1482,0.0027988553,0.0414467,0.0033187866,0.0,0.0,0.0
907.19336,452.56396,77584370,0.77500004,0.12765957,246.23024,-114.481766,0.0027988553,0.0414467,0.0033187866,0.0,0.0,0.0
910.8342,450.72388,77584386,0.77500004,0.11702127,208.04971,-179.8334,0.0027988553,0.0414467,0.0033187866,0.0,0.0,0.0
914.97705,447.4181,77584403,0.7875,0.11702127,198.32866,-222.66428,0.0027988553,0.0414467,0.0033187866,0.0,0.0,0.0
917.9156,443.70764,77584420,0.7875,0.09574468,196.30336,-255.56262,0.0027988553,0.0414467,0.0033187866,0.0,0.0,0.0
919.9606,439.37756,77584437,0.8,0.09574468,142.18105,-279.1308,0.0027988553,0.0414467,0.0033187866,0.0,0.0,0.0
922.0553,433.79224,77584453,0.77500004,0.08510638,92.486145,-335.88434,0.0027988553,0.0414467,0.0033187866,0.0,0.0,0.0
925.1686,425.48853,77584470,0.7875,0.08510638,96.82961,-451.8971,0.0027988553,0.0414467,0.0033187866,0.0,0.0,0.0
926.71405,419.93652,77584487,0.7875,0.10638297,118.16977,-482.5971,0.0027988553,0.0414467,0.0033187866,0.0,0.0,0.0
927.7493,415.30383,77584503,0.7875,0.12765957,97.42741,-405.48083,0.0027988553,0.0414467,0.0033187866,0.0,0.0,0.0
928.7276,409.19873,77584520,0.7875,0.12765957,47.299244,-334.81808,0.0027988553,0.0414467,0.0033187866,0.0,0.0,0.0
928.67554,403.20093,77584537,0.7875,0.10638297,-12.018654,-303.76648,0.0027988553,0.0414467,0.0033187866,0.0,0.0,0.0
928.67554,397.79944,77584554,0.8,0.10638297,-37.721825,-318.92313,0.0027988553,0.0414467,0.0033187866,0.0,0.0,0.0
927.9419,392.23645,77584570,0.8,0.09574468,-47.659534,-348.17615,0.0027988553,0.0414467,0.0033187866,0.0,0.0,0.0
926.9042,387.18567,77584587,0.77500004,0.09574468,-80.480995,-314.55847,0.0027988553,0.0414467,0.0033187866,0.0,0.0,0.0
925.0644,382.6217,77584604,0.8,0.09574468,-110.32952,-288.2462,0.0027988553,0.0414467,0.0033187866,0.0,0.0,0.0
922.71045,378.12158,77584620,0.8,0.09574468,-151.57205,-251.4294,0.0027988553,0.0414467,0.0033187866,0.0,0.0,0.0
920.08875,374.4225,77584637,0.7875,0.09574468,-182.51129,-210.4533,0.0027988553,0.0414467,0.0033187866,0.0,0.0,0.0
916.46783,369.8352,77584654,0.8,0.08510638,-217.99982,-219.2439,0.0027988553,0.0414467,0.0033187866,0.0,0.0,0.0
912.26544,366.8783,77584671,0.8125,0.10638297,-270.14288,-217.66153,0.0027988553,0.0414467,0.0033187866,0.0,0.0,0.0
909.1405,365.0266,77584687,0.8,0.10638297,-258.99722,-140.80128,0.0027988553,0.0414467,0.0033187866,0.0,0.0,0.0
904.4187,363.18005,77584704,0.825,0.09574468,-265.52957,-78.39393,0.0027988553,0.0414467,0.0033187866,0.0,0.0,0.0
900.8187,362.38574,77584721,0.83750004,0.09574468,-251.06342,-24.192625,0.0027988553,0.0414467,0.0033187866,0.0,0.0,0.0
897.0607,362.38574,77584737,0.85,0.09574468,-230.3577,23.843151,0.0027988553,0.0414467,0.0033187866,0.0,0.0,0.0
894.06244,362.38574,77584754,0.85,0.09574468,-208.96014,39.257656,0.0027988553,0.0414467,0.0033187866,0.0,0.0,0.0
892.2757,362.38574,77584771,0.85,0.08510638,-146.88342,49.950356,0.0027988553,0.0414467,0.0033187866,0.0,0.0,0.0
890.34717,362.38574,77584788,0.85,0.08510638,-89.411606,24.974705,0.0027988553,0.0414467,0.0033187866,0.0,0.0,0.0
888.9324,362.38574,77584804,0.83750004,0.08510638,-59.108788,0.022208845,0.0027988553,0.0414467,0.0033187866,0.0,0.0,0.0
887.98285,362.38574,77584821,0.83750004,0.08510638,-36.531948,0.025056014,0.0027988553,0.0414467,0.0033187866,0.0,0.0,0.0
886.894,362.38574,77584838,0.825,0.08510638,-32.799374,0.013699431,0.0027988553,0.0414467,0.0033187866,0.0,0.0,0.0
886.6892,362.38574,77584854,0.825,0.08510638,-14.54078,0.020427646,0.0027988553,0.0414467,0.0033187866,0.0,0.0,0.0
886.6892,362.38574,77584871,0.83750004,0.08510638,8.715665,-0.0014505999,0.0027988553,0.0414467,0.0033187866,0.0,0.0,0.0
887.62225,362.38574,77584888,0.8125,0.08510638,41.285744,0.0150587335,-0.013760895,0.017157346,-0.013344765,0.0,0.0,0.0
891.2756,362.38574,77584904,0.8,0.10638297,163.24231,0.010162725,-0.013760895,0.017157346,-0.013344765,0.0,0.0,0.0
897.8908,359.59863,77584921,0.7875,0.10638297,360.55893,-78.09382,-0.013760895,0.017157346,-0.013344765,0.0,0.0,0.0
904.6635,355.82483,77584938,0.7875,0.12765957,515.0502,-204.21725,-0.013760895,0.017157346,-0.013344765,0.0,0.0,0.0
911.1894,352.015,77584954,0.77500004,0.12765957,532.96814,-306.30386,-0.013760895,0.017157346,-0.013344765,0.0,0.0,0.0
916.1422,348.3739,77584971,0.8,0.12765957,444.82956,-319.3954,-0.013760895,0.017157346,-0.013344765,0.0,0.0,0.0
921.43427,344.76,77584988,0.7875,0.11702127,332.93832,-281.54565,-0.013760895,0.017157346,-0.013344765,0.0,0.0,0.0
926.6631,341.07324,77585005,0.8,0.10638297,289.0009,-224.23216,-0.013760895,0.017157346,-0.013344765,0.0,0.0,0.0
930.53357,337.37903,77585021,0.8,0.08510638,265.45737,-223.58449,-0.013760895,0.017157346,-0.013344765,0.0,0.0,0.0
934.3101,333.83228,77585038,0.7875,0.08510638,205.73108,-213.53915,-0.013760895,0.017157346,-0.013344765,0.0,0.0,0.0
937.6798,330.09485,77585055,0.8,0.08510638,166.46631,-211.27719,-0.013760895,0.017157346,-0.013344765,0.0,0.0,0.0
940.33777,326.35266,77585071,0.7875,0.08510638,137.41998,-215.28323,-0.013760895,0.017157346,-0.013344765,0.0,0.0,0.0
944.0233,321.68884,77585088,0.8,0.08510638,163.57037,-253.79344,-0.013760895,0.017157346,-0.013344765,0.0,0.0,0.0
946.1581,319.74805,77585105,0.8,0.08510638,156.8227,-219.82909,-0.013760895,0.017157346,-0.013344765,0.0,0.0,0.0
949.2673,317.90222,77585122,0.7375,0.08510638,152.93944,-127.70289,-0.013760895,0.017157346,-0.013344765,0.0,0.0,0.0
954.0506,315.02258,77585138,0.55,0.09574468,215.35127,-87.89585,-0.013760895,0.017157346,-0.013344765,0.0,0.0,0.0
955.16693,314.4065,77585146,0.32500002,0.09574468,226.31903,-73.92662,-0.013760895,0.017157346,-0.013344765,0.0,0.0,0.0
955.16693,314.4065,77585153,0.32500002,0.09574468,226.31903,-73.92662,-0.013760895,0.017157346,-0.013344765,0.0,0.0,0.0
1025.6439,368.60522,77586079,0.6375,0.09574468,0.0,0.0,0.0039930344,-0.03861928,-0.034140587,0.0,0.0,0.0
1025.6439,368.60522,77586107,0.6625,0.09574468,-0.013795519,-0.0044331294,0.0039930344,-0.03861928,-0.034140587,0.0,0.0,0.0
1025.6439,368.60522,77586123,0.7,0.09574468,-0.009389251,-7.2808773E-4,0.0039930344,-0.03861928,-0.034140587,0.0,0.0,0.0
1025.6439,368.60522,77586141,0.71250004,0.09574468,0.058960307,0.020425256,0.0039930344,-0.03861928,-0.034140587,0.0,0.0,0.0
1025.6439,368.60522,77586158,0.725,0.11702127,-0.05773521,-0.019655516,0.0039930344,-0.03861928,-0.034140587,0.0,0.0,0.0
1025.6439,368.60522,77586174,0.75,0.11702127,0.07009033,0.024391774,0.0039930344,-0.03861928,-0.034140587,0.0,0.0,0.0
1025.6439,368.60522,77586191,0.75,0.12765957,-0.037785996,-0.011790248,0.0039930344,-0.03861928,-0.034140587,0.0,0.0,0.0
1025.6439,368.60522,77586208,0.77500004,0.12765957,-0.050250728,-0.017941218,0.0039930344,-0.03861928,-0.034140587,0.0,0.0,0.0
1025.6439,368.60522,77586224,0.77500004,0.12765957,0.025672369,0.0076537426,0.0039930344,-0.03861928,-0.034140587,0.0,0.0,0.0
1025.6439,368.60522,77586241,0.7875,0.12765957,-0.018990466,-0.007373406,0.0039930344,-0.03861928,-0.034140587,0.0,0.0,0.0
1025.6439,368.60522,77586258,0.7875,0.10638297,0.03395202,0.011234542,0.0039930344,-0.03861928,-0.034140587,0.0,0.0,0.0
1025.6439,368.60522,77586275,0.8,0.10638297,0.01745308,0.006203492,0.0039930344,-0.03861928,-0.034140587,0.0,0.0,0.0
1002.3176,358.42432,77586291,0.825,0.12765957,-767.70294,-346.57697,0.0039930344,-0.03861928,-0.034140587,0.0,0.0,0.0
994.7633,358.4231,77586308,0.825,0.10638297,-1045.169,-362.18094,0.0039930344,-0.03861928,-0.034140587,0.0,0.0,0.0
988.2759,360.83398,77586325,0.8125,0.09574468,-848.82855,-88.03739,0.0039930344,-0.03861928,-0.034140587,0.0,0.0,0.0
982.4391,365.99548,77586341,0.8125,0.09574468,-320.84537,369.57782,0.0039930344,-0.03861928,-0.034140587,0.0,0.0,0.0
975.51013,378.4298,77586358,0.825,0.09574468,-55.86726,791.1103,0.0039930344,-0.03861928,-0.034140587,3.355443E-6,0.0,0.0
970.0371,390.77332,77586375,0.8125,0.12765957,-305.43576,938.82324,0.0039930344,-0.03861928,-0.034140587,3.355443E-6,0.0,0.0
965.35,403.64856,77586392,0.8125,0.11702127,-305.0299,1035.5172,0.0039930344,-0.03861928,-0.034140587,3.355443E-6,0.0,0.0
962.1278,418.6565,77586408,0.825,0.08510638,-224.60408,1014.79486,0.0039930344,-0.03861928,-0.034140587,0.0,0.0,0.0
960.53687,434.26392,77586425,0.825,0.10638297,-96.43732,1011.09344,0.0039930344,-0.03861928,-0.034140587,0.0,0.0,0.0
960.1653,445.1272,77586442,0.8125,0.12765957,13.814511,877.40985,0.0039930344,-0.03861928,-0.034140587,0.0,0.0,0.0
961.81177,455.2074,77586458,0.7875,0.12765957,117.490616,719.17285,0.0039930344,-0.03861928,-0.034140587,0.0,0.0,0.0
963.55334,461.15833,77586475,0.7875,0.11702127,187.75935,426.54385,0.0031944513,-0.014895424,-0.011312485,0.0,0.0,0.0
965.7666,465.27808,77586492,0.7625,0.09574468,208.75774,159.83481,0.0031944513,-0.014895424,-0.011312485,0.0,0.0,0.0
971.0939,469.85437,77586508,0.77500004,0.09574468,279.68253,100.81642,0.0031944513,-0.014895424,-0.011312485,0.0,0.0,0.0
978.146,473.06445,77586525,0.77500004,0.08510638,415.40854,92.60047,0.0031944513,-0.014895424,-0.011312485,0.0,0.0,0.0
985.9524,474.9198,77586542,0.7625,0.08510638,563.003,89.6831,0.0031944513,-0.014895424,-0.011312485,0.0,0.0,0.0
993.7207,474.5741,77586559,0.75,0.08510638,602.2168,10.497947,0.0031944513,-0.014895424,-0.011312485,0.0,0.0,0.0
1000.09595,472.72485,77586575,0.75,0.08510638,512.58655,-144.74794,0.0031944513,-0.014895424,-0.011312485,0.0,0.0,0.0
1006.3164,469.20386,77586592,0.7375,0.10638297,398.8268,-270.63992,0.0031944513,-0.014895424,-0.011312485,0.0,0.0,0.0
1012.0773,464.6267,77586609,0.725,0.12765957,321.18134,-348.0536,0.0031944513,-0.014895424,-0.011312485,0.0,0.0,0.0
1016.23535,459.07556,77586625,0.7375,0.11702127,262.9878,-405.9262,0.0031944513,-0.014895424,-0.011312485,0.0,0.0,0.0
1018.78625,453.5282,77586642,0.7375,0.09574468,173.87492,-415.867,0.0031944513,-0.014895424,-0.011312485,0.0,0.0,0.0
1020.88196,447.94043,77586659,0.7375,0.09574468,83.441315,-403.68146,0.0031944513,-0.014895424,-0.011312485,0.0,0.0,0.0
1023.6417,441.17297,77586676,0.7375,0.09574468,48.86908,-394.85037,0.0031944513,-0.014895424,-0.011312485,0.0,0.0,0.0
1025.3285,432.15527,77586692,0.75,0.09574468,66.31086,-478.33197,0.0031944513,-0.014895424,-0.011312485,0.0,0.0,0.0
1025.6439,426.05005,77586709,0.75,0.09574468,65.50335,-518.2239,0.0031944513,-0.014895424,-0.011312485,0.0,0.0,0.0
1025.3776,421.8567,77586726,0.75,0.11702127,-14.082164,-397.3156,0.0031944513,-0.014895424,-0.011312485,0.0,0.0,0.0
1024.8398,418.16797,77586742,0.7625,0.11702127,-89.10854,-206.18033,0.0031944513,-0.014895424,-0.011312485,0.0,0.0,0.0
1023.806,415.38098,77586759,0.75,0.12765957,-112.25969,-63.92196,0.0031944513,-0.014895424,-0.011312485,0.0,0.0,0.0
1022.76294,413.2401,77586776,0.75,0.12765957,-94.44948,-57.245026,0.0031944513,-0.014895424,-0.011312485,0.0,0.0,0.0
1021.72485,411.39478,77586793,0.7375,0.12765957,-85.654,-68.75862,0.0031944513,-0.014895424,-0.011312485,0.0,0.0,0.0
1020.6814,409.5398,77586809,0.75,0.12765957,-76.9308,-68.06612,0.0031944513,-0.014895424,-0.011312485,0.0,0.0,0.0
1019.6476,407.7024,77586826,0.7625,0.12765957,-68.08014,-75.48761,0.0031944513,-0.014895424,-0.011312485,0.0,0.0,0.0
1018.89624,406.36646,77586839,0.75,0.12765957,-61.545094,-91.149864,0.0031944513,-0.014895424,-0.011312485,0.0,0.0,0.0
1019.1461,406.8108,77586859,0.7625,0.12765957,-17.99883,-31.925539,0.0031944513,-0.014895424,-0.011312485,0.0,0.0,0.0
1019.1461,406.8108,77586874,0.77500004,0.12765957,10.704635,19.029594,0.0031944513,-0.014895424,-0.011312485,0.0,0.0,0.0
1019.1461,406.8108,77586893,0.77500004,0.11702127,30.598873,54.369453,0.0031944513,-0.014895424,-0.011312485,0.0,0.0,0.0
1019.1461,408.1057,77586910,0.7875,0.11702127,25.253489,74.86951,0.0031944513,-0.014895424,-0.011312485,0.0,0.0,0.0
1019.3876,409.8756,77586926,0.7875,0.11702127,3.5473576,91.07063,0.0031944513,-0.014895424,-0.011312485,0.0,0.0,0.0
1020.4125,413.0901,77586943,0.7875,0.09574468,39.753365,197.59651,0.0031944513,-0.014895424,-0.011312485,0.0,0.0,0.0
1022.3899,417.01965,77586960,0.77500004,0.09574468,97.40665,262.54495,0.0031944513,-0.014895424,-0.011312485,0.0,0.0,0.0
1026.0127,424.95593,77586976,0.77500004,0.09574468,204.97142,411.15317,0.0031944513,-0.014895424,-0.011312485,0.0,0.0,0.0
1029.3534,433.66882,77586993,0.7625,0.09574468,271.57788,579.32513,0.0031944513,-0.014895424,-0.011312485,0.0,0.0,0.0
1032.0061,439.3235,77587010,0.7625,0.11702127,256.7479,582.8798,0.018555582,-0.043916345,-0.009050369,0.0,0.0,0.0
1034.4238,446.02124,77587026,0.75,0.12765957,200.99194,499.83997,0.018555582,-0.043916345,-0.009050369,0.0,0.0,0.0
1037.728,453.22168,77587043,0.7625,0.12765957,149.00401,379.6589,0.018555582,-0.043916345,-0.009050369,0.0,0.0,0.0
1040.3076,460.52014,77587060,0.75,0.10638297,149.23088,386.35992,0.018555582,-0.043916345,-0.009050369,0.0,0.0,0.0
1042.338,466.87256,77587077,0.7375,0.08510638,148.55772,432.30527,0.018555582,-0.043916345,-0.009050369,0.0,0.0,0.0
1044.9106,474.41858,77587093,0.7375,0.06382979,146.2119,448.02103,0.018555582,-0.043916345,-0.009050369,0.0,0.0,0.0
1046.9897,480.92175,77587110,0.725,0.08510638,124.51483,407.89273,0.018555582,-0.043916345,-0.009050369,0.0,0.0,0.0
1049.5743,487.44482,77587127,0.725,0.08510638,126.326004,377.1011,0.018555582,-0.043916345,-0.009050369,0.0,0.0,0.0
1051.143,494.79858,77587143,0.71250004,0.09574468,118.557465,415.91705,0.018555582,-0.043916345,-0.009050369,0.0,0.0,0.0
1053.2144,500.75964,77587160,0.725,0.10638297,103.887886,411.75473,0.018555582,-0.043916345,-0.009050369,0.0,0.0,0.0
1053.6349,505.31885,77587177,0.71250004,0.10638297,67.75714,333.1454,0.018555582,-0.043916345,-0.009050369,0.0,0.0,0.0
1054.4735,509.3048,77587194,0.71250004,0.10638297,17.246431,224.32922,0.018555582,-0.043916345,-0.009050369,0.0,0.0,0.0
1055.0255,513.93274,77587210,0.7,0.09574468,3.0846438,171.5821,0.018555582,-0.043916345,-0.009050369,0.0,0.0,0.0
1055.6342,518.4237,77587227,0.7,0.08510638,8.852477,198.68129,0.018555582,-0.043916345,-0.009050369,0.0,0.0,0.0
1056.1306,523.1864,77587244,0.7,0.08510638,18.442646,251.04408,0.018555582,-0.043916345,-0.009050369,0.0,0.0,0.0
1057.201,527.8871,77587260,0.7,0.06382979,46.22912,293.57956,0.018555582,-0.043916345,-0.009050369,0.0,0.0,0.0
1057.1337,532.359,77587277,0.7,0.06382979,29.967157,305.60226,0.018555582,-0.043916345,-0.009050369,0.0,0.0,0.0
1057.6335,536.452,77587294,0.7,0.06382979,25.789381,261.95636,0.018555582,-0.043916345,-0.009050369,0.0,0.0,0.0
1057.6335,538.94604,77587311,0.6875,0.06382979,7.6107135,191.46127,0.018555582,-0.043916345,-0.009050369,0.0,0.0,0.0
1058.1334,542.5425,77587327,0.675,0.08510638,4.371843,163.78139,0.018555582,-0.043916345,-0.009050369,0.0,0.0,0.0
1058.8625,547.1212,77587344,0.675,0.09574468,28.049294,217.07898,0.018555582,-0.043916345,-0.009050369,0.0,0.0,0.0
1059.9036,551.3031,77587361,0.675,0.10638297,55.085064,273.469,0.018555582,-0.043916345,-0.009050369,0.0,0.0,0.0
1060.9264,555.34705,77587377,0.6625,0.10638297,80.54756,284.44342,0.018555582,-0.043916345,-0.009050369,0.0,0.0,0.0
1061.6322,560.1487,77587394,0.675,0.10638297,73.62699,258.74734,0.018555582,-0.043916345,-0.009050369,0.0,0.0,0.0
1062.4857,566.84985,77587411,0.6625,0.10638297,54.916496,331.90222,0.018555582,-0.043916345,-0.009050369,0.0,0.0,0.0
1063.53,573.3076,77587428,0.6625,0.08510638,45.603024,412.84036,0.018555582,-0.043916345,-0.009050369,0.0,0.0,0.0
1064.602,578.1366,77587444,0.6375,0.08510638,58.474117,411.72305,0.018555582,-0.043916345,-0.009050369,0.0,0.0,0.0
1064.6312,583.6968,77587461,0.65000004,0.06382979,40.682365,354.54062,0.018555582,-0.043916345,-0.009050369,0.0,0.0,0.0
1065.1311,588.3562,77587478,0.6375,0.06382979,22.645245,277.446,0.018555582,-0.043916345,-0.009050369,0.0,0.0,0.0
1064.6312,591.95776,77587494,0.6375,0.06382979,-23.369556,230.68309,0.018555582,-0.043916345,-0.009050369,0.0,0.0,0.0
1064.6312,595.67664,77587511,0.6375,0.08510638,-34.674274,201.21408,0.018555582,-0.043916345,-0.009050369,0.0,0.0,0.0
1064.6312,597.28015,77587528,0.6375,0.08510638,-22.81986,129.33044,0.018555582,-0.043916345,-0.009050369,0.0,0.0,0.0
1064.4282,598.72754,77587545,0.625,0.08510638,-9.691091,60.712395,-0.03315553,-0.0031330734,0.008759499,0.0,0.0,0.0
1063.384,599.6161,77587561,0.625,0.08510638,-27.662941,10.670463,-0.03315553,-0.0031330734,0.008759499,0.0,0.0,0.0
1062.8431,600.5045,77587578,0.625,0.08510638,-59.08055,-1.1086992,-0.03315553,-0.0031330734,0.008759499,0.0,0.0,0.0
1061.8073,601.39307,77587595,0.625,0.09574468,-72.05643,20.435022,-0.03315553,-0.0031330734,0.008759499,0.0,0.0,0.0
1060.0913,602.01,77587611,0.6375,0.09574468,-84.71436,21.221437,-0.03315553,-0.0031330734,0.008759499,0.0,0.0,0.0
1055.627,603.17004,77587628,0.65000004,0.09574468,-177.86716,51.480263,-0.03315553,-0.0031330734,0.008759499,0.0,0.0,0.0
1049.076,603.17004,77587645,0.65000004,0.08510638,-351.93054,33.667953,-0.03315553,-0.0031330734,0.008759499,0.0,0.0,0.0
1041.2635,603.17004,77587661,0.6625,0.09574468,-519.8884,1.980844,-0.03315553,-0.0031330734,0.008759499,0.0,0.0,0.0
1032.3041,601.3264,77587678,0.675,0.08510638,-623.4812,-70.8947,-0.03315553,-0.0031330734,0.008759499,0.0,0.0,0.0
1023.53,597.5963,77587695,0.7,0.07446808,-648.96295,-196.29097,-0.03315553,-0.0031330734,0.008759499,0.0,0.0,0.0
1015.8711,591.9171,77587712,0.7,0.08510638,-591.1618,-337.59518,-0.03315553,-0.0031330734,0.008759499,0.0,0.0,0.0
1008.49524,586.298,77587728,0.71250004,0.08510638,-495.49872,-433.72543,-0.03315553,-0.0031330734,0.008759499,0.0,0.0,0.0
1001.99084,580.5812,77587745,0.725,0.10638297,-388.66083,-448.86356,-0.03315553,-0.0031330734,0.008759499,0.0,0.0,0.0
995.765,574.442,77587762,0.725,0.12765957,-343.69266,-411.5642,-0.03315553,-0.0031330734,0.008759499,0.0,0.0,0.0
991.37085,568.0133,77587778,0.71250004,0.10638297,-304.35062,-404.81833,-0.03315553,-0.0031330734,0.008759499,0.0,0.0,0.0
988.41956,563.20337,77587795,0.7375,0.11702127,-195.49208,-362.99203,-0.03315553,-0.0031330734,0.008759499,0.0,0.0,0.0
985.5122,556.45325,77587812,0.75,0.09574468,-101.01705,-339.23822,-0.03315553,-0.0031330734,0.008759499,0.0,0.0,0.0
984.1575,550.5277,77587829,0.7375,0.08510638,-27.79707,-348.46744,-0.03315553,-0.0031330734,0.008759499,0.0,0.0,0.0
984.1575,545.0094,77587845,0.75,0.07446808,13.527531,-353.69955,-0.03315553,-0.0031330734,0.008759499,0.0,0.0,0.0
985.1107,541.9458,77587862,0.7375,0.08510638,86.624565,-287.31665,-0.03315553,-0.0031330734,0.008759499,0.0,0.0,0.0
986.65015,538.3209,77587879,0.7375,0.08510638,154.20795,-178.80508,-0.03315553,-0.0031330734,0.008759499,0.0,0.0,0.0
989.27966,534.60864,77587895,0.7375,0.08510638,193.08589,-136.78438,-0.03315553,-0.0031330734,0.008759499,0.0,0.0,0.0
993.4789,532.8341,77587912,0.7375,0.08510638,254.75133,-119.082405,-0.03315553,-0.0031330734,0.008759499,0.0,0.0,0.0
998.15283,532.08984,77587929,0.7375,0.08510638,306.13354,-64.69724,-0.03315553,-0.0031330734,0.008759499,0.0,0.0,0.0
1001.3905,532.08984,77587946,0.75,0.08510638,308.66437,11.023726,-0.03315553,-0.0031330734,0.008759499,0.0,0.0,0.0
1004.9269,532.4347,77587962,0.75,0.08510638,274.00504,81.75597,-0.03315553,-0.0031330734,0.008759499,0.0,0.0,0.0
1007.84534,534.2788,77587979,0.75,0.07446808,198.62894,122.57206,-0.03315553,-0.0031330734,0.008759499,0.0,0.0,0.0
1010.4404,535.2241,77587996,0.7375,0.07446808,152.88878,130.09032,-0.03315553,-0.0031330734,0.008759499,0.0,0.0,0.0
1014.3707,536.18726,77588012,0.7375,0.08510638,156.69144,100.32954,-0.03315553,-0.0031330734,0.008759499,0.0,0.0,0.0
1018.06323,537.16174,77588029,0.6875,0.08510638,199.03017,70.447525,-0.03315553,-0.0031330734,0.008759499,0.0,0.0,0.0
1020.14575,537.4208,77588043,0.32500002,0.09574468,211.17596,50.150288,-0.03315553,-0.0031330734,0.008759499,0.0,0.0,0.0
1020.14575,537.4208,77588047,0.32500002,0.09574468,211.17596,50.150288,-0.03315553,-0.0031330734,0.008759499,0.0,0.0,0.0
1086.1243,419.24988,77589007,0.5375,0.09574468,0.0,0.0,-0.014819533,0.004394844,0.015206337,0.0,0.0,0.0
1086.1243,419.24988,77589032,0.5375,0.08510638,-0.063971646,-0.022964248,-0.014819533,0.004394844,0.015206337,0.0,0.0,0.0
1086.1243,419.24988,77589048,0.5,0.07446808,0.056068797,0.020924732,-0.014819533,0.004394844,0.015206337,0.0,0.0,0.0
1086.1243,419.24988,77589065,0.4625,0.07446808,0.027849467,0.011620836,-0.014819533,0.004394844,0.015206337,0.0,0.0,0.0
1086.1243,419.24988,77589082,0.5,0.06382979,0.055101465,0.024007384,-0.014819533,0.004394844,0.015206337,0.0,0.0,0.0
1086.1243,419.24988,77589099,0.5625,0.06382979,0.035607394,0.014851965,-0.014819533,0.004394844,0.015206337,0.0,0.0,0.0
1086.1243,419.24988,77589115,0.65000004,0.06382979,0.039906465,0.016026193,-0.014819533,0.004394844,0.015206337,0.0,0.0,0.0
1086.1243,419.24988,77589132,0.6875,0.06382979,0.04545365,0.01840159,-0.014819533,0.004394844,0.015206337,0.0,0.0,0.0
1086.1243,419.24988,77589147,0.71250004,0.08510638,0.06249259,0.024017662,0.0041443706,-0.05248414,-0.019834518,0.0,0.0,0.0
1086.1243,419.24988,77589165,0.725,0.08510638,0.0072849942,0.002168963,0.0041443706,-0.05248414,-0.019834518,0.0,0.0,0.0
1086.1243,419.24988,77589196,0.725,0.12765957,-0.041011043,-0.016430438,0.0041443706,-0.05248414,-0.019834518,0.0,0.0,0.0
1080.1509,393.64404,77589216,0.725,0.09574468,-185.37361,-755.145,0.0041443706,-0.05248414,-0.019834518,0.0,0.0,0.0
1081.1929,373.34045,77589232,0.75,0.11702127,-163.88458,-1477.3654,0.0041443706,-0.05248414,-0.019834518,0.0,0.0,0.0
1086.0005,353.8069,77589249,0.7375,0.11702127,128.70302,-1701.6155,0.0041443706,-0.05248414,-0.019834518,0.0,0.0,0.0
1091.223,328.97534,77589266,0.7375,0.09574468,479.90067,-1488.9214,0.0041443706,-0.05248414,-0.019834518,0.0,0.0,0.0
1095.8625,308.84216,77589282,0.7625,0.12765957,508.167,-1483.9694,0.0041443706,-0.05248414,-0.019834518,0.0,0.0,0.0
1098.497,289.1814,77589299,0.7625,0.08510638,339.14413,-1325.4504,0.0041443706,-0.05248414,-0.019834518,0.0,0.0,0.0
1100.3467,270.79187,77589316,0.7625,0.08510638,144.71568,-1181.4679,0.0041443706,-0.05248414,-0.019834518,0.0,0.0,0.0
1100.3495,253.14954,77589332,0.7625,0.12765957,-0.16059558,-978.7209,0.0041443706,-0.05248414,-0.019834518,0.0,0.0,0.0
1098.5024,235.72046,77589349,0.7625,0.08510638,-133.5507,-944.7646,0.0041443706,-0.05248414,-0.019834518,0.0,0.0,0.0
1095.08,220.34973,77589366,0.7875,0.09574468,-257.15042,-929.2753,0.0041443706,-0.05248414,-0.019834518,0.0,0.0,0.0
1090.6868,209.67676,77589383,0.7875,0.09574468,-343.66116,-761.53723,0.0041443706,-0.05248414,-0.019834518,0.0,0.0,0.0
1086.8462,204.49512,77589399,0.77500004,0.11702127,-363.71112,-410.2964,0.0041443706,-0.05248414,-0.019834518,0.0,0.0,0.0
1081.3063,199.0614,77589416,0.7875,0.12765957,-349.9184,-98.98279,0.0041443706,-0.05248414,-0.019834518,0.0,0.0,0.0
1076.0956,195.32434,77589433,0.825,0.12765957,-352.15695,-11.198031,0.0041443706,-0.05248414,-0.019834518,0.0,0.0,0.0
1070.3436,192.59692,77589449,0.8125,0.12765957,-360.71835,-21.592236,0.0041443706,-0.05248414,-0.019834518,0.0,0.0,0.0
1065.6857,190.74634,77589466,0.8125,0.12765957,-341.0153,-49.392994,0.0041443706,-0.05248414,-0.019834518,0.0,0.0,0.0
1061.7622,190.90454,77589483,0.825,0.12765957,-288.70782,7.596385,0.0041443706,-0.05248414,-0.019834518,0.0,0.0,0.0
1058.0691,190.90454,77589500,0.83750004,0.12765957,-212.61731,80.23017,0.0041443706,-0.05248414,-0.019834518,0.0,0.0,0.0
1054.7312,191.26294,77589516,0.85,0.10638297,-177.44748,88.4953,0.0041443706,-0.05248414,-0.019834518,0.0,0.0,0.0
1052.4003,193.55237,77589533,0.83750004,0.10638297,-129.82184,115.3779,0.0041443706,-0.05248414,-0.019834518,0.0,0.0,0.0
1049.5648,198.64697,77589550,0.825,0.08510638,-123.28247,242.23132,0.0041443706,-0.05248414,-0.019834518,0.0,0.0,0.0
1048.6365,208.58899,77589566,0.8125,0.08510638,-90.661156,507.53046,0.0041443706,-0.05248414,-0.019834518,0.0,0.0,0.0
1049.3611,220.93494,77589583,0.8125,0.09574468,5.4989424,805.5854,0.0041443706,-0.05248414,-0.019834518,0.0,0.0,0.0
1052.3456,237.88489,77589600,0.8125,0.10638297,155.74017,1077.6183,0.0041443706,-0.05248414,-0.019834518,0.0,0.0,0.0
1058.2244,263.09326,77589617,0.7875,0.08510638,347.72208,1443.2156,0.0041443706,-0.05248414,-0.019834518,0.0,0.0,0.0
1063.0641,284.75525,77589633,0.7875,0.12765957,463.49512,1692.2527,0.0041443706,-0.05248414,-0.019834518,0.0,0.0,0.0
1068.7483,303.23425,77589650,0.7875,0.08510638,455.44638,1547.4601,0.0041443706,-0.05248414,-0.019834518,0.0,0.0,0.0
1073.4543,321.90015,77589667,0.7625,0.09574468,381.03442,1259.5349,0.0041443706,-0.05248414,-0.019834518,0.0,0.0,0.0
1076.9236,334.11853,77589683,0.7625,0.12765957,269.95764,856.9162,0.051315486,0.006012693,0.016132355,0.0,0.0,0.0
1081.9722,347.61047,77589700,0.7625,0.11702127,222.04298,615.2756,0.051315486,0.006012693,0.016132355,0.0,0.0,0.0
1086.9661,355.88562,77589717,0.77500004,0.08510638,261.9645,489.13782,0.051315486,0.006012693,0.016132355,0.0,0.0,0.0
1094.9502,374.91418,77589734,0.75,0.08510638,408.48392,704.5709,0.051315486,0.006012693,0.016132355,0.0,0.0,0.0
1099.8828,384.62463,77589750,0.77500004,0.09574468,429.99643,768.82605,0.051315486,0.006012693,0.016132355,0.0,0.0,0.0
1105.3147,396.4983,77589767,0.75,0.10638297,382.8469,764.83057,0.051315486,0.006012693,0.016132355,0.0,0.0,0.0
1109.1345,404.7799,77589784,0.75,0.09574468,261.8516,566.4382,0.051315486,0.006012693,0.016132355,0.0,0.0,0.0
1112.2452,412.1527,77589800,0.75,0.08510638,155.94427,338.70776,0.051315486,0.006012693,0.016132355,0.0,0.0,0.0
1114.0292,417.16736,77589817,0.75,0.08510638,102.20266,287.21576,0.051315486,0.006012693,0.016132355,0.0,0.0,0.0
1115.5709,420.06067,77589834,0.7375,0.08510638,39.7479,144.07555,0.051315486,0.006012693,0.016132355,0.0,0.0,0.0
1116.1145,421.91602,77589851,0.7375,0.08510638,4.4399505,32.204308,0.051315486,0.006012693,0.016132355,0.0,0.0,0.0
1116.1145,421.9154,77589883,0.725,0.08510638,-48.7664,-113.17304,0.051315486,0.006012693,0.016132355,0.0,0.0,0.0
1116.7516,421.9154,77589901,0.7375,0.08510638,-32.612682,-101.2929,0.051315486,0.006012693,0.016132355,0.0,0.0,0.0
1116.6144,421.9154,77589913,0.725,0.08510638,-24.658579,-81.8511,0.051315486,0.006012693,0.016132355,0.0,0.0,0.0
1117.3176,419.77673,77589934,0.7375,0.08510638,21.984756,-88.90395,0.051315486,0.006012693,0.016132355,0.0,0.0,0.0
1118.3375,417.56604,77589951,0.7375,0.10638297,59.042873,-160.01361,0.051315486,0.006012693,0.016132355,0.0,0.0,0.0
1120.1644,411.4701,77589967,0.725,0.12765957,101.17226,-299.93948,0.051315486,0.006012693,0.016132355,0.0,0.0,0.0
1122.2433,403.68054,77589984,0.7375,0.10638297,145.52773,-496.82968,0.051315486,0.006012693,0.016132355,0.0,0.0,0.0
1123.454,396.99207,77590001,0.7375,0.08510638,142.15839,-584.81177,0.051315486,0.006012693,0.016132355,0.0,0.0,0.0
1124.4991,391.41785,77590018,0.7375,0.08510638,91.78041,-517.7613,0.051315486,0.006012693,0.016132355,0.0,0.0,0.0
1125.5214,386.6953,77590034,0.7375,0.08510638,45.921867,-335.4256,0.051315486,0.006012693,0.016132355,0.0,0.0,0.0
1126.5841,382.91724,77590051,0.7375,0.09574468,33.269905,-199.63315,0.051315486,0.006012693,0.016132355,0.0,0.0,0.0
1128.1395,379.21582,77590068,0.7375,0.09574468,64.3775,-166.4877,0.051315486,0.006012693,0.016132355,0.0,0.0,0.0
1130.2275,375.5044,77590084,0.725,0.09574468,111.466354,-170.2891,0.051315486,0.006012693,0.016132355,0.0,0.0,0.0
1132.91,371.8026,77590101,0.7375,0.09574468,155.10007,-187.75424,0.051315486,0.006012693,0.016132355,0.0,0.0,0.0
1136.1989,369.2312,77590118,0.7375,0.09574468,199.73067,-184.22003,0.051315486,0.006012693,0.016132355,0.0,0.0,0.0
1139.8422,367.39,77590135,0.75,0.09574468,239.85739,-131.67258,0.051315486,0.006012693,0.016132355,0.0,0.0,0.0
1143.004,367.71667,77590151,0.75,0.08510638,252.9452,-23.417345,0.051315486,0.006012693,0.016132355,0.0,0.0,0.0
1145.8438,369.04285,77590168,0.725,0.08510638,215.3189,103.57903,0.051315486,0.006012693,0.016132355,0.0,0.0,0.0
1149.1846,370.89832,77590185,0.725,0.07446808,188.18143,181.28615,0.051315486,0.006012693,0.016132355,0.0,0.0,0.0
1152.0784,374.20337,77590201,0.71250004,0.06382979,162.84895,231.4153,0.051315486,0.006012693,0.016132355,0.0,0.0,0.0
1155.2081,377.91248,77590218,0.725,0.08510638,171.58046,275.0223,-0.0069476366,0.028810143,0.0129060745,0.0,0.0,0.0
1157.3387,381.46655,77590235,0.725,0.08510638,157.84888,277.79077,-0.0069476366,0.028810143,0.0129060745,0.0,0.0,0.0
1161.3616,386.9463,77590252,0.71250004,0.09574468,165.65193,308.7488,-0.0069476366,0.028810143,0.0129060745,0.0,0.0,0.0
1165.063,392.53174,77590268,0.6875,0.10638297,217.42508,357.48016,-0.0069476366,0.028810143,0.0129060745,0.0,0.0,0.0
1167.6831,397.1891,77590285,0.675,0.09574468,213.12758,353.51538,-0.0069476366,0.028810143,0.0129060745,0.0,0.0,0.0
1171.3182,402.76233,77590302,0.6625,0.10638297,214.9892,354.65973,-0.0069476366,0.028810143,0.0129060745,0.0,0.0,0.0
1175.6755,409.61926,77590318,0.6375,0.08510638,220.51619,359.78378,-0.0069476366,0.028810143,0.0129060745,0.0,0.0,0.0
1177.4154,411.53857,77590335,0.6375,0.08510638,181.44643,285.5851,-0.0069476366,0.028810143,0.0129060745,0.0,0.0,0.0
1178.9802,413.37354,77590352,0.6375,0.08510638,127.128624,160.73804,-0.0069476366,0.028810143,0.0129060745,0.0,0.0,0.0
1181.758,416.08972,77590369,0.625,0.09574468,87.19489,54.730618,-0.0069476366,0.028810143,0.0129060745,0.0,0.0,0.0
1185.6355,417.93652,77590385,0.625,0.09574468,150.29701,34.716248,-0.0069476366,0.028810143,0.0129060745,0.0,0.0,0.0
1190.1118,419.79065,77590402,0.575,0.09574468,260.49875,74.19791,-0.0069476366,0.028810143,0.0129060745,0.0,0.0,0.0
1194.4504,420.13843,77590419,0.575,0.09574468,325.4261,65.665565,-0.0069476366,0.028810143,0.0129060745,0.0,0.0,0.0
1197.6752,420.13843,77590435,0.6,0.08510638,279.63516,-14.781699,-0.0069476366,0.028810143,0.0129060745,0.0,0.0,0.0
1200.336,418.51,77590452,0.5625,0.08510638,192.11028,-85.02787,-0.0069476366,0.028810143,0.0129060745,0.0,0.0,0.0
1203.4529,415.85376,77590469,0.6,0.10638297,136.25471,-172.85281,-0.0069476366,0.028810143,0.0129060745,0.0,0.0,0.0
1205.5703,413.93225,77590486,0.58750004,0.09574468,116.06013,-215.05951,-0.0069476366,0.028810143,0.0129060745,0.0,0.0,0.0
1207.1263,412.0681,77590502,0.6,0.10638297,100.02722,-180.2761,-0.0069476366,0.028810143,0.0129060745,0.0,0.0,0.0
1208.1694,411.25342,77590519,0.52500004,0.09574468,60.599106,-113.50104,-0.0069476366,0.028810143,0.0129060745,0.0,0.0,0.0
1208.5844,411.25342,77590526,0.275,0.10638297,41.549007,-71.82979,-0.0069476366,0.028810143,0.0129060745,0.0,0.0,0.0
1208.5844,411.25342,77590533,0.275,0.10638297,41.549007,-71.82979,-0.0069476366,0.028810143,0.0129060745,0.0,0.0,0.0
