x,y,timestamp,pressure,fingerarea,velocityx,velocityy,accelx,accely,accelz,gyrox,gyroy,gyroz
420.84085,156.25293,15441833,1.1875,0.09574468,0.0,0.0,0.03586578,-0.030568749,0.24109936,0.0,0.0,0.0
420.84085,156.25293,15441854,1.2125,0.09574468,-0.02524346,-0.008093209,0.03586578,-0.030568749,0.24109936,2.5165823E-6,0.0,0.0
424.27603,196.67114,15441871,1.0625,0.12765957,261.0269,3316.6597,0.03586578,-0.030568749,0.24109936,2.5165823E-6,0.0,0.0
438.1068,261.81848,15441887,0.975,0.12765957,863.04083,5000.6226,0.03586578,-0.030568749,0.24109936,2.5165823E-6,0.0,0.0
460.1046,331.8352,15441904,0.9125,0.10638297,1462.5901,5734.323,0.03586578,-0.030568749,0.24109936,2.5165823E-6,0.0,0.0
483.72614,405.63513,15441921,0.8875,0.08510638,1847.0063,6072.2207,0.03586578,-0.030568749,0.24109936,3.355443E-6,0.0,0.0
505.48138,468.29944,15441938,0.83750004,0.08510638,1837.4559,4909.8325,0.03586578,-0.030568749,0.24109936,3.355443E-6,0.0,0.0
518.1721,510.02307,15441954,0.85,0.10638297,1386.3331,3523.5579,0.03586578,-0.030568749,0.24109936,3.355443E-6,0.0,0.0
526.05804,540.09155,15441971,0.85,0.08510638,671.2784,1976.5753,0.03586578,-0.030568749,0.24109936,3.355443E-6,0.0,0.0
530.3802,558.37854,15441988,0.8625,0.12765957,105.43277,695.038,0.03586578,-0.030568749,0.24109936,2.5165823E-6,0.0,0.0
533.74084,570.9591,15442004,0.875,0.09574468,-139.05933,-14.282906,0.03586578,-0.030568749,0.24109936,2.5165823E-6,0.0,0.0
536.24194,577.6842,15442021,0.8625,0.08510638,-84.34975,-170.69899,0.03586578,-0.030568749,0.24109936,2.5165823E-6,0.0,0.0
537.3029,580.069,15442038,0.8125,0.08510638,-32.673515,-260.2769,0.03586578,-0.030568749,0.24109936,2.5165823E-6,0.0,0.0
537.3029,580.069,15442050,0.4375,0.09574468,-49.92813,-358.27924,-0.027307373,-0.024454981,0.12887955,-1.342177E-5,0.0,0.0
537.3029,580.069,15442057,0.4375,0.09574468,-49.92813,-358.27924,-0.027307373,-0.024454981,0.12887955,-1.342177E-5,0.0,0.0
263.39212,222.0022,15442267,0.8,0.08510638,0.0,0.0,-0.027307373,-0.024454981,0.12887955,3.355443E-6,0.0,0.0
286.99432,193.60474,15442288,1.0500001,0.10638297,2464.7688,-1806.1244,-0.027307373,-0.024454981,0.12887955,3.355443E-6,0.0,0.0
337.5208,159.28943,15442305,1.025,0.08510638,4044.926,-2545.6638,-0.027307373,-0.024454981,0.12887955,3.355443E-6,0.0,0.0
400.29626,135.54749,15442322,0.9875,0.12765957,4743.269,-1958.0034,-0.027307373,-0.024454981,0.12887955,0.0,0.0,0.0
464.06464,127.12903,15442339,0.975,0.10638297,5011.1606,-1003.3386,-0.027307373,-0.024454981,0.12887955,0.0,0.0,0.0
524.2004,128.44092,15442355,0.95,0.10638297,4835.18,-72.06476,-0.027307373,-0.024454981,0.12887955,0.0,0.0,0.0
582.585,141.74353,15442372,0.925,0.11702127,4147.1846,1019.56714,-0.027307373,-0.024454981,0.12887955,0.0,0.0,0.0
614.0765,161.86462,15442389,0.90000004,0.08510638,2796.107,1733.9038,-0.027307373,-0.024454981,0.12887955,0.0,0.0,0.0
626.7682,177.97278,15442405,0.90000004,0.12765957,1155.8904,1806.9384,-0.027307373,-0.024454981,0.12887955,0.0,0.0,0.0
633.7962,204.71826,15442422,0.96250004,0.09574468,-141.18484,1831.9861,-0.027307373,-0.024454981,0.12887955,0.0,0.0,0.0
624.0522,223.68091,15442439,0.95,0.10638297,-1175.8497,1653.4495,-0.027307373,-0.024454981,0.12887955,0.0,0.0,0.0
600.30273,252.32886,15442456,0.9375,0.09574468,-1892.0404,1594.3181,-0.027307373,-0.024454981,0.12887955,1.342177E-5,0.0,0.0
568.70557,283.63416,15442472,0.90000004,0.10638297,-2467.608,1866.3422,-0.027307373,-0.024454981,0.12887955,1.342177E-5,0.0,0.0
547.84174,307.30298,15442489,0.90000004,0.09574468,-2543.5823,1854.9977,-0.027307373,-0.024454981,0.12887955,1.342177E-5,0.0,0.0
535.5166,327.10168,15442506,0.90000004,0.09574468,-1646.4657,1527.4934,-0.027307373,-0.024454981,0.12887955,1.342177E-5,0.0,0.0
532.30457,341.6996,15442522,0.8625,0.12765957,-476.87234,970.9204,-0.027307373,-0.024454981,0.12887955,2.5165823E-6,0.0,0.0
549.47406,358.09265,15442539,0.8625,0.08510638,754.4152,536.24084,-0.027307373,-0.024454981,0.12887955,2.5165823E-6,0.0,0.0
600.15326,375.4431,15442556,0.9375,0.08510638,2493.144,717.1657,-0.027307373,-0.024454981,0.12887955,2.5165823E-6,0.0,0.0
650.4104,384.72546,15442573,0.875,0.08510638,3993.3179,719.61664,-0.027307373,-0.024454981,0.12887955,2.5165823E-6,0.0,0.0
693.34595,393.11157,15442589,0.8625,0.11702127,4291.093,517.74835,0.0101541,-0.019564003,0.2631035,-3.355443E-6,0.0,0.0
721.2498,404.45605,15442606,0.83750004,0.10638297,3188.2139,432.2748,0.0101541,-0.019564003,0.2631035,-3.355443E-6,0.0,0.0
732.40594,415.30078,15442623,0.8625,0.07446808,1300.286,433.41504,0.0101541,-0.019564003,0.2631035,-3.355443E-6,0.0,0.0
738.629,437.48608,15442639,0.875,0.10638297,-70.54751,944.27704,0.0101541,-0.019564003,0.2631035,-3.355443E-6,0.0,0.0
724.8472,461.77332,15442656,0.875,0.10638297,-1013.0675,1436.3815,0.0101541,-0.019564003,0.2631035,2.5165823E-6,0.0,0.0
685.13007,500.45032,15442673,0.875,0.10638297,-2206.3704,2121.5754,0.0101541,-0.019564003,0.2631035,2.5165823E-6,0.0,0.0
629.974,539.07874,15442690,0.8875,0.07446808,-3744.216,2740.3364,0.0101541,-0.019564003,0.2631035,2.5165823E-6,0.0,0.0
581.87256,562.7826,15442706,0.875,0.12765957,-4515.369,2509.1545,0.0101541,-0.019564003,0.2631035,2.5165823E-6,0.0,0.0
549.2912,573.745,15442723,0.90000004,0.10638297,-3692.3787,1423.1136,0.0101541,-0.019564003,0.2631035,3.355443E-6,0.0,0.0
525.3135,579.7294,15442740,0.9125,0.08510638,-2062.172,142.85545,0.0101541,-0.019564003,0.2631035,3.355443E-6,0.0,0.0
507.33337,580.069,15442756,0.90000004,0.08510638,-676.7564,-614.22687,0.0101541,-0.019564003,0.2631035,3.355443E-6,0.0,0.0
497.9024,574.8303,15442773,0.8,0.10638297,-131.64789,-749.31036,0.0101541,-0.019564003,0.2631035,3.355443E-6,0.0,0.0
493.26044,562.0969,15442790,0.2875,0.09574468,72.40786,-921.946,0.0101541,-0.019564003,0.2631035,0.0,0.0,0.0
493.26044,562.0969,15442797,0.2875,0.09574468,72.40786,-921.946,0.0101541,-0.019564003,0.2631035,0.0,0.0,0.0
841.20404,416.58435,15443023,0.85,0.08510638,0.0,0.0,0.0101541,-0.019564003,0.2631035,0.0,0.0,0.0
841.20404,416.58435,15443040,0.9375,0.10638297,-0.32233196,-0.16148625,0.0101541,-0.019564003,0.2631035,0.0,0.0,0.0
841.20404,416.58435,15443057,0.9375,0.12765957,-0.012681514,-0.008178919,0.0101541,-0.019564003,0.2631035,0.0,0.0,0.0
841.20404,416.58435,15443074,0.9375,0.12765957,-0.0032718217,-0.0010108687,0.0101541,-0.019564003,0.2631035,0.0,0.0,0.0
819.79004,408.67773,15443091,0.90000004,0.12765957,-923.5789,-346.29184,0.0101541,-0.019564003,0.2631035,0.0,0.0,0.0
801.8842,410.4723,15443107,0.8875,0.10638297,-1419.4983,-291.9273,0.0101541,-0.019564003,0.2631035,0.0,0.0,0.0
782.5296,419.84167,15443124,0.90000004,0.08510638,-1751.7261,184.53642,0.0081232805,0.024348795,0.17848301,-3.355443E-6,0.0,0.0
769.1248,430.30945,15443141,0.9125,0.09574468,-1509.9985,702.9924,0.0081232805,0.024348795,0.17848301,-3.355443E-6,0.0,0.0
762.4065,437.18677,15443157,0.925,0.11702127,-735.1647,958.8592,0.0081232805,0.024348795,0.17848301,-3.355443E-6,0.0,0.0
758.39276,447.10693,15443174,0.90000004,0.12765957,-81.96036,822.9266,0.0081232805,0.024348795,0.17848301,-3.355443E-6,0.0,0.0
758.6902,452.79614,15443191,0.8875,0.12765957,233.13342,475.41855,0.0081232805,0.024348795,0.17848301,3.0198984E-5,0.0,0.0
762.224,454.78833,15443208,0.90000004,0.12765957,409.0063,220.4057,0.0081232805,0.024348795,0.17848301,3.0198984E-5,0.0,0.0
784.5432,455.6056,15443224,0.90000004,0.12765957,988.44574,17.319126,0.0081232805,0.024348795,0.17848301,3.0198984E-5,0.0,0.0
801.3738,446.94788,15443241,0.8875,0.09574468,1464.8479,-376.9779,0.0081232805,0.024348795,0.17848301,3.0198984E-5,0.0,0.0
811.8973,434.65906,15443258,0.90000004,0.07446808,1412.169,-816.99866,0.0081232805,0.024348795,0.17848301,-1.0066329E-5,0.0,0.0
817.7906,426.8567,15443274,0.90000004,0.08510638,865.1004,-933.2343,0.0081232805,0.024348795,0.17848301,-1.0066329E-5,0.0,0.0
820.8044,422.989,15443291,0.9375,0.10638297,188.26569,-722.5071,0.0081232805,0.024348795,0.17848301,-1.0066329E-5,0.0,0.0
822.2102,421.02686,15443308,0.975,0.08510638,-168.76936,-173.49144,0.0081232805,0.024348795,0.17848301,-1.0066329E-5,0.0,0.0
822.5951,422.39526,15443325,0.9875,0.08510638,-168.19806,172.04344,0.0081232805,0.024348795,0.17848301,3.355443E-6,0.0,0.0
823.52075,429.12085,15443341,0.8875,0.07446808,-110.943504,416.52136,0.0081232805,0.024348795,0.17848301,3.355443E-6,0.0,0.0
826.10333,438.07117,15443358,0.85,0.08510638,-6.202339,659.18524,0.0081232805,0.024348795,0.17848301,3.355443E-6,0.0,0.0
831.3802,445.74377,15443375,0.825,0.10638297,200.0435,758.6347,0.0081232805,0.024348795,0.17848301,1.0066329E-5,0.0,0.0
844.1788,456.7555,15443391,0.8125,0.10638297,569.8463,774.5469,0.0081232805,0.024348795,0.17848301,1.0066329E-5,0.0,0.0
857.73315,460.94592,15443408,0.825,0.11702127,938.95654,591.0411,0.0081232805,0.024348795,0.17848301,1.0066329E-5,0.0,0.0
870.21356,456.55786,15443425,0.85,0.09574468,1059.6923,36.578503,0.0081232805,0.024348795,0.17848301,1.0066329E-5,0.0,0.0
877.9865,446.27014,15443441,0.825,0.06382979,841.72046,-560.7173,0.0081232805,0.024348795,0.17848301,-3.355443E-6,0.0,0.0
888.93274,410.09143,15443458,0.85,0.12765957,607.2979,-1697.1812,0.0081232805,0.024348795,0.17848301,-3.355443E-6,0.0,0.0
889.9375,364.59277,15443475,0.8125,0.08510638,260.77847,-2906.8337,0.0081232805,0.024348795,0.17848301,-3.355443E-6,0.0,0.0
879.8917,299.97888,15443492,0.8,0.10638297,-308.9182,-4098.983,0.0081232805,0.024348795,0.17848301,-3.355443E-6,0.0,0.0
869.129,250.54785,15443508,0.825,0.12765957,-877.7957,-4633.978,0.0081232805,0.024348795,0.17848301,-1.342177E-5,0.0,0.0
859.27045,226.14502,15443525,0.83750004,0.08510638,-1158.3505,-3046.617,0.0081232805,0.024348795,0.17848301,-1.342177E-5,0.0,0.0
853.30963,216.47144,15443542,0.90000004,0.07446808,-817.5609,-943.6132,0.0081232805,0.024348795,0.17848301,-1.342177E-5,0.0,0.0
848.12036,210.54248,15443558,0.9375,0.08510638,-342.4451,677.5281,0.0081232805,0.024348795,0.17848301,-1.342177E-5,0.0,0.0
843.29443,207.16016,15443575,0.95,0.08510638,-149.1701,954.66504,0.0081232805,0.024348795,0.17848301,3.355443E-6,0.0,0.0
839.74384,209.08386,15443592,0.975,0.08510638,-133.26544,461.74484,0.0081232805,0.024348795,0.17848301,3.355443E-6,0.0,0.0
835.40924,219.50256,15443609,0.96250004,0.08510638,-178.8089,601.8083,0.0081232805,0.024348795,0.17848301,3.355443E-6,0.0,0.0
834.2337,232.27429,15443625,0.875,0.12765957,-140.5943,924.70544,0.0081232805,0.024348795,0.17848301,3.355443E-6,0.0,0.0
837.26105,259.71545,15443642,0.825,0.07446808,73.00518,1556.9932,0.014498624,0.08347905,0.094786644,1.0066329E-5,0.0,0.0
844.79266,291.24353,15443659,0.8125,0.10638297,374.71573,2121.5903,0.014498624,0.08347905,0.094786644,1.0066329E-5,0.0,0.0
856.27734,326.42676,15443675,0.8,0.09574468,754.57886,2520.3267,0.014498624,0.08347905,0.094786644,1.0066329E-5,0.0,0.0
871.7568,363.96326,15443692,0.7875,0.07446808,1065.243,2670.877,0.014498624,0.08347905,0.094786644,1.0066329E-5,0.0,0.0
884.26904,383.4856,15443709,0.7875,0.12765957,1095.2461,2072.5896,0.014498624,0.08347905,0.094786644,3.355443E-6,0.0,0.0
903.18726,412.46008,15443726,0.7625,0.08510638,1176.0065,1623.1173,0.014498624,0.08347905,0.094786644,3.355443E-6,0.0,0.0
920.13245,430.75977,15443742,0.7875,0.08510638,1175.2496,1176.5665,0.014498624,0.08347905,0.094786644,3.355443E-6,0.0,0.0
937.6236,440.32642,15443759,0.8,0.09574468,1177.9515,729.28033,0.014498624,0.08347905,0.094786644,3.355443E-6,0.0,0.0
951.8248,440.41333,15443776,0.83750004,0.08510638,1077.3105,85.681725,0.014498624,0.08347905,0.094786644,-2.5165823E-6,0.0,0.0
960.6428,433.61548,15443792,0.8625,0.08510638,657.8964,-779.8312,0.014498624,0.08347905,0.094786644,-2.5165823E-6,0.0,0.0
964.45496,426.91492,15443809,0.8875,0.09574468,267.99265,-1040.426,0.014498624,0.08347905,0.094786644,-2.5165823E-6,0.0,0.0
965.59705,423.81055,15443826,0.9125,0.09574468,-94.36232,-823.2642,0.014498624,0.08347905,0.094786644,-2.5165823E-6,0.0,0.0
965.66345,421.94604,15443843,0.95,0.09574468,-294.3696,-406.78522,0.014498624,0.08347905,0.094786644,1.342177E-5,0.0,0.0
965.66345,421.02686,15443859,1.0,0.09574468,-224.6532,-35.251377,0.014498624,0.08347905,0.094786644,1.342177E-5,0.0,0.0
966.2185,421.02686,15443876,0.95,0.08510638,-124.35015,106.23495,0.014498624,0.08347905,0.094786644,1.342177E-5,0.0,0.0
967.8723,422.9901,15443893,0.875,0.08510638,13.803923,148.78369,0.014498624,0.08347905,0.094786644,1.342177E-5,0.0,0.0
974.709,426.89026,15443909,0.83750004,0.07446808,238.18924,231.91684,0.014498624,0.08347905,0.094786644,2.5165823E-6,0.0,0.0
983.10144,427.24646,15443926,0.83750004,0.06382979,499.93976,228.81107,0.014498624,0.08347905,0.094786644,2.5165823E-6,0.0,0.0
989.8795,425.63293,15443943,0.825,0.08510638,631.0254,83.11929,0.014498624,0.08347905,0.094786644,2.5165823E-6,0.0,0.0
996.8738,418.40637,15443959,0.8125,0.09574468,578.45557,-288.68286,0.014498624,0.08347905,0.094786644,2.5165823E-6,0.0,0.0
1007.96545,397.77026,15443976,0.8125,0.08510638,547.38025,-914.331,0.014498624,0.08347905,0.094786644,0.0,0.0,0.0
1013.95935,374.61926,15443993,0.8125,0.08510638,549.7697,-1647.7863,0.014498624,0.08347905,0.094786644,0.0,0.0,0.0
1012.682,359.60315,15444010,0.825,0.12765957,263.87433,-1751.657,0.014498624,0.08347905,0.094786644,0.0,0.0,0.0
1007.2544,349.77417,15444026,0.8625,0.10638297,-256.16428,-1183.6199,0.014498624,0.08347905,0.094786644,0.0,0.0,0.0
995.4136,343.31836,15444043,0.8625,0.10638297,-775.94794,-404.9665,0.014498624,0.08347905,0.094786644,1.0066329E-5,0.0,0.0
976.9137,341.06165,15444060,0.8625,0.11702127,-1257.8641,106.107086,0.014498624,0.08347905,0.094786644,1.0066329E-5,0.0,0.0
954.5854,345.65186,15444076,0.8875,0.10638297,-1564.945,328.3038,0.014498624,0.08347905,0.094786644,1.0066329E-5,0.0,0.0
943.4925,352.2057,15444093,0.85,0.10638297,-1422.0869,579.44415,0.014498624,0.08347905,0.094786644,1.0066329E-5,0.0,0.0
937.5431,359.76392,15444110,0.825,0.07446808,-842.15704,727.69495,0.014498624,0.08347905,0.094786644,2.5165823E-6,0.0,0.0
927.4712,394.12512,15444127,0.77500004,0.12765957,-345.18414,1436.3763,0.014498624,0.08347905,0.094786644,2.5165823E-6,0.0,0.0
927.67584,406.8108,15444134,0.3375,0.09574468,-117.68277,1773.2126,0.014498624,0.08347905,0.094786644,2.5165823E-6,0.0,0.0
927.67584,406.8108,15444140,0.3375,0.09574468,-117.68277,1773.2126,0.014498624,0.08347905,0.094786644,2.5165823E-6,0.0,0.0
1101.1194,354.38916,15444382,0.8625,0.12765957,0.0,0.0,0.0035988986,0.018783212,-0.14017105,0.0,0.0,0.0
1101.1194,354.38916,15444406,0.90000004,0.12765957,-0.06603212,-0.019338874,0.0035988986,0.018783212,-0.14017105,0.0,0.0,0.0
1101.1194,354.38916,15444427,0.875,0.12765957,-0.039063957,-0.010620653,0.0035988986,0.018783212,-0.14017105,0.0,0.0,0.0
1079.4117,355.07007,15444444,0.875,0.12765957,-1187.63,27.456795,0.0035988986,0.018783212,-0.14017105,4.0265313E-5,0.0,0.0
1069.9943,358.31946,15444461,0.8625,0.09574468,-1208.4459,132.9719,0.0035988986,0.018783212,-0.14017105,4.0265313E-5,0.0,0.0
1061.9017,366.42908,15444478,0.85,0.06382979,-1030.104,347.38986,0.0035988986,0.018783212,-0.14017105,4.0265313E-5,0.0,0.0
1054.6115,381.9901,15444494,0.85,0.10638297,-675.9062,815.02313,0.0035988986,0.018783212,-0.14017105,4.0265313E-5,0.0,0.0
1053.0906,393.06934,15444511,0.85,0.12765957,-17.5156,1050.1616,0.0035988986,0.018783212,-0.14017105,3.0198984E-5,0.0,0.0
1055.9756,402.08667,15444528,0.83750004,0.10638297,235.51657,935.01984,0.0035988986,0.018783212,-0.14017105,3.0198984E-5,0.0,0.0
1062.1803,407.7422,15444544,0.825,0.08510638,443.77896,554.4599,0.0035988986,0.018783212,-0.14017105,3.0198984E-5,0.0,0.0
1075.2688,413.14758,15444561,0.8125,0.09574468,811.0547,227.43878,0.0035988986,0.018783212,-0.14017105,3.0198984E-5,0.0,0.0
1087.3623,412.0006,15444578,0.825,0.10638297,1052.4977,-15.504484,0.0035988986,0.018783212,-0.14017105,0.0,0.0,0.0
1094.7936,406.4496,15444595,0.83750004,0.10638297,915.6021,-314.85217,0.0035988986,0.018783212,-0.14017105,0.0,0.0,0.0
1098.9337,400.9225,15444611,0.83750004,0.08510638,503.96014,-547.7412,0.0035988986,0.018783212,-0.14017105,0.0,0.0,0.0
1102.251,393.0144,15444628,0.83750004,0.07446808,87.796776,-695.3191,0.0035988986,0.018783212,-0.14017105,0.0,0.0,0.0
1103.1188,387.80725,15444645,0.83750004,0.07446808,-117.0556,-586.6895,0.0035988986,0.018783212,-0.14017105,0.0,0.0,0.0
1102.7336,385.69092,15444661,0.85,0.07446808,-137.06827,-309.7878,0.0035988986,0.018783212,-0.14017105,0.0,0.0,0.0
1102.6189,386.16296,15444678,0.9375,0.08510638,-135.65157,-42.06949,0.0035988986,0.018783212,-0.14017105,0.0,0.0,0.0
1102.1521,391.4712,15444695,0.9125,0.10638297,-119.332535,281.41083,0.0035988986,0.018783212,-0.14017105,0.0,0.0,0.0
1103.6582,409.78162,15444711,0.8,0.08510638,-24.716774,859.9724,0.0028791185,-0.016973376,0.039863586,1.0066329E-5,0.0,0.0
1110.9114,440.19543,15444728,0.8125,0.09574468,250.91452,1703.5524,0.0028791185,-0.016973376,0.039863586,1.0066329E-5,0.0,0.0
1118.2933,474.06042,15444745,0.8,0.07446808,500.60004,2432.5894,0.0028791185,-0.016973376,0.039863586,1.0066329E-5,0.0,0.0
1122.1699,498.2395,15444762,0.825,0.12765957,531.069,2451.0938,0.0028791185,-0.016973376,0.039863586,1.0066329E-5,0.0,0.0
1121.4218,521.94604,15444778,0.825,0.07446808,278.8394,1954.9692,0.0028791185,-0.016973376,0.039863586,5.3687072E-5,0.0,0.0
1114.8074,539.7445,15444795,0.85,0.07446808,-205.82942,1276.7476,0.0028791185,-0.016973376,0.039863586,5.3687072E-5,0.0,0.0
1105.2325,554.1571,15444812,0.83750004,0.12765957,-696.4642,749.58185,0.0028791185,-0.016973376,0.039863586,5.3687072E-5,0.0,0.0
1083.085,577.68555,15444828,0.825,0.08510638,-1196.4852,846.9913,0.0028791185,-0.016973376,0.039863586,5.3687072E-5,0.0,0.0
1053.4928,596.7915,15444845,0.825,0.06382979,-1886.1324,1119.5609,0.0028791185,-0.016973376,0.039863586,0.0,0.0,0.0
1033.5397,602.0309,15444862,0.85,0.09574468,-2050.1934,892.3004,0.0028791185,-0.016973376,0.039863586,0.0,0.0,0.0
1021.57996,599.9851,15444879,0.875,0.08510638,-1513.0745,142.40161,0.0028791185,-0.016973376,0.039863586,0.0,0.0,0.0
1016.00073,593.1366,15444895,0.875,0.07446808,-561.2063,-688.25903,0.0028791185,-0.016973376,0.039863586,0.0,0.0,0.0
1012.2239,577.85095,15444912,0.85,0.10638297,176.80478,-1268.9817,0.0028791185,-0.016973376,0.039863586,0.0,0.0,0.0
1016.7284,545.8999,15444929,0.825,0.08510638,454.42987,-1853.4952,0.0028791185,-0.016973376,0.039863586,0.0,0.0,0.0
1026.3438,515.9043,15444945,0.7875,0.11702127,698.54767,-2280.1475,0.0028791185,-0.016973376,0.039863586,0.0,0.0,0.0
1037.4152,493.3954,15444962,0.725,0.07446808,950.89935,-2282.1113,0.0028791185,-0.016973376,0.039863586,0.0,0.0,0.0
1056.3729,459.42615,15444979,0.65000004,0.08510638,1229.451,-2065.3513,0.0028791185,-0.016973376,0.039863586,0.0,0.0,0.0
1079.7811,429.5692,15444996,0.3375,0.11702127,1535.7601,-1885.8458,0.0028791185,-0.016973376,0.039863586,0.0,0.0,0.0
1096.6208,401.47986,15445009,0.2,0.06382979,1621.7551,-1895.1632,0.0028791185,-0.016973376,0.039863586,0.0,0.0,0.0
1096.6208,401.47986,15445016,0.2,0.06382979,1621.7551,-1895.1632,0.0028791185,-0.016973376,0.039863586,0.0,0.0,0.0
1106.1178,124.266846,15445122,0.9375,0.11702127,0.0,0.0,0.0028791185,-0.016973376,0.039863586,0.0,0.0,0.0
1106.1178,124.266846,15445146,1.025,0.11702127,-0.005070316,-0.0014000413,0.0028791185,-0.016973376,0.039863586,0.0,0.0,0.0
1106.1178,124.266846,15445179,0.8875,0.12765957,-0.036639944,-0.004081273,0.0028791185,-0.016973376,0.039863586,0.0,0.0,0.0
1109.4109,179.35522,15445196,0.8125,0.12765957,147.45947,2486.372,0.0028791185,-0.016973376,0.039863586,0.0,0.0,0.0
1114.0302,226.57703,15445213,0.8125,0.10638297,267.68497,3530.638,0.0028791185,-0.016973376,0.039863586,0.0,0.0,0.0
1116.9161,271.59875,15445229,0.8,0.07446808,309.70544,4088.8618,0.0028791185,-0.016973376,0.039863586,0.0,0.0,0.0
1121.6295,311.86072,15445246,0.77500004,0.07446808,287.02255,2717.3167,-0.013696704,0.06642127,-0.008109093,2.5165823E-6,0.0,0.0
1127.087,339.68176,15445263,0.8,0.12765957,330.5638,2119.3044,-0.013696704,0.06642127,-0.008109093,2.5165823E-6,0.0,0.0
1132.1462,362.72083,15445280,0.8125,0.08510638,355.01282,1379.3684,-0.013696704,0.06642127,-0.008109093,2.5165823E-6,0.0,0.0
1137.0872,379.4253,15445296,0.825,0.08510638,352.13123,696.82837,-0.013696704,0.06642127,-0.008109093,2.5165823E-6,0.0,0.0
1140.823,389.97827,15445313,0.83750004,0.12765957,277.4701,327.06094,-0.013696704,0.06642127,-0.008109093,3.355443E-6,0.0,0.0
1143.0404,395.14417,15445330,0.83750004,0.12765957,174.1873,78.403046,-0.013696704,0.06642127,-0.008109093,3.355443E-6,0.0,0.0
1145.5632,397.0127,15445346,0.8625,0.12765957,86.81099,-183.50494,-0.013696704,0.06642127,-0.008109093,3.355443E-6,0.0,0.0
1151.3104,395.15503,15445363,0.8625,0.10638297,166.09149,-331.94824,-0.013696704,0.06642127,-0.008109093,3.355443E-6,0.0,0.0
1157.4332,388.64734,15445380,0.85,0.07446808,327.1672,-517.6932,-0.013696704,0.06642127,-0.008109093,-1.0066329E-5,0.0,0.0
1162.6296,379.21326,15445397,0.825,0.08510638,423.34836,-717.7316,-0.013696704,0.06642127,-0.008109093,-1.0066329E-5,0.0,0.0
1169.8231,368.41846,15445413,0.825,0.11702127,470.1506,-862.2843,-0.013696704,0.06642127,-0.008109093,-1.0066329E-5,0.0,0.0
1177.1636,358.61707,15445430,0.8,0.12765957,457.2423,-855.3286,-0.013696704,0.06642127,-0.008109093,-1.0066329E-5,0.0,0.0
1180.5399,354.8811,15445447,0.8125,0.12765957,350.72128,-519.42676,-0.013696704,0.06642127,-0.008109093,3.355443E-6,0.0,0.0
1183.3779,353.5006,15445463,0.85,0.12765957,218.44162,-152.01901,-0.013696704,0.06642127,-0.008109093,3.355443E-6,0.0,0.0
1185.3889,354.91675,15445480,0.90000004,0.11702127,71.32778,170.75868,-0.013696704,0.06642127,-0.008109093,3.355443E-6,0.0,0.0
1186.9307,364.5421,15445497,0.8875,0.09574468,-2.1755235,503.51965,-0.013696704,0.06642127,-0.008109093,3.355443E-6,0.0,0.0
1187.0914,379.31958,15445514,0.825,0.08510638,-21.580898,949.3315,-0.013696704,0.06642127,-0.008109093,5.3687072E-5,0.0,0.0
1187.507,400.12317,15445530,0.7875,0.12765957,-39.652405,1355.6517,-0.013696704,0.06642127,-0.008109093,5.3687072E-5,0.0,0.0
1191.8304,431.19495,15445547,0.7625,0.08510638,49.51936,1896.3939,-0.013696704,0.06642127,-0.008109093,5.3687072E-5,0.0,0.0
1200.0822,468.98047,15445564,0.725,0.11702127,337.93225,2456.6191,-0.013696704,0.06642127,-0.008109093,5.3687072E-5,0.0,0.0
1200.0872,469.0061,15445564,0.425,0.07446808,366.40555,2462.2312,-0.013696704,0.06642127,-0.008109093,5.3687072E-5,0.0,0.0
1200.0872,469.0061,15445571,0.425,0.07446808,366.40555,2462.2312,-0.013696704,0.06642127,-0.008109093,5.3687072E-5,0.0,0.0
