x,y,timestamp,pressure,fingerarea,velocityx,velocityy,accelx,accely,accelz,gyrox,gyroy,gyroz
238.40024,292.19397,98568279,1.3125,0.12765957,0.0,0.0,0.07196814,-0.011401892,-0.022462845,-1.5005995E-5,0.0,0.0
238.40024,292.19397,98568305,1.3000001,0.12765957,0.022444613,0.027565582,0.07196814,-0.011401892,-0.022462845,-1.5005995E-5,0.0,0.0
238.40024,292.19397,98568322,1.025,0.10638297,0.0060130977,0.0074040755,0.07196814,-0.011401892,-0.022462845,-1.5005995E-5,0.0,0.0
240.14871,323.26733,98568339,0.90000004,0.08510638,89.753494,1557.474,0.07196814,-0.011401892,-0.022462845,-1.5005995E-5,0.0,0.0
242.74872,354.95068,98568355,0.9125,0.12765957,163.22232,2449.0066,0.07196814,-0.011401892,-0.022462845,-1.5005995E-5,0.0,0.0
244.69495,385.20508,98568372,0.8875,0.08510638,193.83142,2690.4895,0.07196814,-0.011401892,-0.022462845,0.0,0.0,0.0
247.32892,418.76367,98568389,0.8875,0.08510638,195.06616,2752.5867,0.07196814,-0.011401892,-0.022462845,0.0,0.0,0.0
251.04068,447.8672,98568406,0.8875,0.10638297,207.97765,2117.7314,0.07196814,-0.011401892,-0.022462845,0.0,0.0,0.0
255.11392,473.72827,98568422,0.90000004,0.09574468,236.17497,1597.2686,0.07196814,-0.011401892,-0.022462845,0.0,0.0,0.0
259.3494,496.33447,98568439,0.8875,0.11702127,283.12466,1387.4431,0.07196814,-0.011401892,-0.022462845,0.0,0.0,0.0
263.98874,514.7068,98568456,0.825,0.11702127,316.0409,1079.5223,0.07196814,-0.011401892,-0.022462845,0.0,0.0,0.0
267.6091,528.55273,98568472,0.77500004,0.08510638,276.6461,792.0191,0.07196814,-0.011401892,-0.022462845,0.0,0.0,0.0
271.57767,539.69946,98568489,0.58750004,0.10638297,247.2836,529.3865,0.025574505,0.022878647,-0.09797001,-3.355443E-6,0.0,0.0
272.3892,541.8633,98568496,0.1875,0.08510638,220.43224,397.62378,0.025574505,0.022878647,-0.09797001,-3.355443E-6,0.0,0.0
272.3892,541.8633,98568503,0.1875,0.08510638,220.43224,397.62378,0.025574505,0.022878647,-0.09797001,-3.355443E-6,0.0,0.0
180.91896,383.70972,98568688,0.8625,0.07446808,0.0,0.0,0.025574505,0.022878647,-0.09797001,0.0,0.0,0.0
180.91896,383.70972,98568706,1.0625,0.09574468,0.0034187303,0.0062221824,0.025574505,0.022878647,-0.09797001,-3.0198984E-5,0.0,0.0
180.91896,383.70972,98568723,1.25,0.10638297,0.0020299784,0.0017657423,0.025574505,0.022878647,-0.09797001,-3.0198984E-5,0.0,0.0
187.6603,360.84802,98568740,1.1375,0.11702127,396.88892,-1368.159,0.025574505,0.022878647,-0.09797001,-3.0198984E-5,0.0,0.0
203.63754,340.64185,98568756,1.025,0.12765957,883.9474,-1782.7552,0.025574505,0.022878647,-0.09797001,0.0,0.0,0.0
232.07507,313.5509,98568773,1.0625,0.10638297,1707.3224,-2138.4995,0.025574505,0.022878647,-0.09797001,1.5827565E-4,0.0,0.0
264.34808,292.21985,98568790,1.0500001,0.12765957,2404.6636,-2010.379,0.025574505,0.022878647,-0.09797001,1.5827565E-4,0.0,0.0
294.1487,273.82678,98568807,1.0625,0.11702127,2543.435,-1465.7915,0.025574505,0.022878647,-0.09797001,1.5827565E-4,0.0,0.0
318.53098,260.98767,98568823,1.075,0.12765957,2102.1226,-846.28467,0.025574505,0.022878647,-0.09797001,0.0,0.0,0.0
334.73486,255.9386,98568840,1.1,0.11702127,1343.9564,-352.91473,0.025574505,0.022878647,-0.09797001,0.0,0.0,0.0
343.30228,256.63757,98568857,1.0875,0.11702127,601.2706,125.35528,0.025574505,0.022878647,-0.09797001,0.0,0.0,0.0
346.96436,260.32556,98568873,1.075,0.11702127,-35.74166,508.30267,0.025574505,0.022878647,-0.09797001,0.0,0.0,0.0
350.5004,271.5984,98568890,1.0500001,0.10638297,-250.26642,841.20404,0.025574505,0.022878647,-0.09797001,5.5339362E-5,0.0,0.0
349.14282,282.71204,98568907,0.9875,0.10638297,-321.14148,982.8815,0.025574505,0.022878647,-0.09797001,5.5339362E-5,0.0,0.0
344.5715,302.6891,98568924,0.8875,0.09574468,-383.91702,1197.291,0.025574505,0.022878647,-0.09797001,5.5339362E-5,0.0,0.0
333.1529,325.11438,98568940,0.90000004,0.08510638,-636.0976,1499.7042,0.025574505,0.022878647,-0.09797001,5.5339362E-5,0.0,0.0
320.0951,345.2223,98568957,0.9125,0.11702127,-972.2532,1584.3031,0.025574505,0.022878647,-0.09797001,-3.372172E-5,0.0,0.0
305.0519,367.72852,98568974,0.9125,0.08510638,-1146.3967,1580.3107,0.025574505,0.022878647,-0.09797001,-3.372172E-5,0.0,0.0
293.57596,382.5918,98568990,0.925,0.10638297,-1071.1266,1256.0051,0.025574505,0.022878647,-0.09797001,-3.372172E-5,0.0,0.0
286.67877,389.97095,98569007,0.95,0.12765957,-690.4993,653.0503,0.025574505,0.022878647,-0.09797001,-3.372172E-5,0.0,0.0
282.2443,395.72437,98569024,0.975,0.12765957,-273.7359,166.15364,0.052459598,-0.045697212,-0.03037548,0.0,0.0,0.0
280.8864,397.79346,98569041,1.1,0.12765957,38.220734,-172.16609,0.052459598,-0.045697212,-0.03037548,0.0,0.0,0.0
282.29437,397.92578,98569057,1.2125,0.11702127,216.95293,-255.2585,0.052459598,-0.045697212,-0.03037548,0.0,0.0,0.0
289.98135,396.1101,98569074,1.0500001,0.10638297,443.49457,-233.7479,0.052459598,-0.045697212,-0.03037548,0.0,0.0,0.0
310.2089,384.8241,98569091,0.96250004,0.12765957,980.4515,-523.0076,0.052459598,-0.045697212,-0.03037548,-4.2707805E-5,0.0,0.0
338.9599,372.07776,98569107,1.0375,0.11702127,1771.7175,-888.7853,0.052459598,-0.045697212,-0.03037548,-4.2707805E-5,0.0,0.0
362.7805,361.8927,98569124,1.0500001,0.14893617,2110.416,-1005.32526,0.052459598,-0.045697212,-0.03037548,-4.2707805E-5,0.0,0.0
385.32196,355.99658,98569141,1.0375,0.09574468,1985.1799,-795.0631,0.052459598,-0.045697212,-0.03037548,-4.2707805E-5,0.0,0.0
399.95496,354.92126,98569158,1.0125,0.11702127,1399.7024,-313.126,0.052459598,-0.045697212,-0.03037548,0.0,0.0,0.0
411.5544,354.82568,98569174,1.0375,0.14893617,638.4784,155.22795,0.052459598,-0.045697212,-0.03037548,0.0,0.0,0.0
419.09714,357.20605,98569191,1.0125,0.14893617,348.59045,299.94968,0.052459598,-0.045697212,-0.03037548,0.0,0.0,0.0
423.29324,360.84937,98569208,1.025,0.14893617,48.4389,370.6732,0.052459598,-0.045697212,-0.03037548,0.0,0.0,0.0
427.42523,370.04602,98569224,1.0125,0.12765957,-26.916359,501.24384,0.052459598,-0.045697212,-0.03037548,3.0198984E-5,0.0,0.0
430.15427,379.3402,98569241,0.9875,0.12765957,-28.358828,683.1999,0.052459598,-0.045697212,-0.03037548,3.0198984E-5,0.0,0.0
431.73715,388.5067,98569258,0.9375,0.12765957,1.9002417,741.8741,0.052459598,-0.045697212,-0.03037548,3.0198984E-5,0.0,0.0
432.33713,400.52808,98569274,0.9125,0.12765957,2.6660929,780.7046,0.052459598,-0.045697212,-0.03037548,3.0198984E-5,0.0,0.0
432.30212,415.3053,98569291,0.875,0.09574468,-39.89969,864.8132,0.052459598,-0.045697212,-0.03037548,0.0,0.0,0.0
430.11716,430.0692,98569308,0.825,0.09574468,-127.93359,960.88495,0.052459598,-0.045697212,-0.03037548,0.0,0.0,0.0
423.93558,446.19397,98569325,0.85,0.12765957,-290.86127,1054.9875,0.052459598,-0.045697212,-0.03037548,0.0,0.0,0.0
414.0697,463.8457,98569341,0.90000004,0.08510638,-555.2721,1106.5619,0.052459598,-0.045697212,-0.03037548,0.0,0.0,0.0
405.80432,474.49316,98569358,0.9125,0.08510638,-712.51465,929.56805,0.052459598,-0.045697212,-0.03037548,0.0,0.0,0.0
388.71027,490.49536,98569375,0.95,0.10638297,-948.9504,844.4583,0.052459598,-0.045697212,-0.03037548,0.0,0.0,0.0
371.12814,503.03796,98569391,0.9875,0.12765957,-1170.8514,790.35944,0.052459598,-0.045697212,-0.03037548,0.0,0.0,0.0
349.78998,514.1035,98569408,1.0500001,0.10638297,-1388.8348,687.1545,0.052459598,-0.045697212,-0.03037548,0.0,0.0,0.0
331.33374,524.3251,98569425,1.075,0.12765957,-1448.6353,614.347,0.052459598,-0.045697212,-0.03037548,2.7346303E-4,-3.0384783E-5,0.0
315.09616,533.1023,98569442,1.0625,0.11702127,-1201.4181,453.2993,0.052459598,-0.045697212,-0.03037548,2.7346303E-4,-3.0384783E-5,0.0
302.13724,539.7191,98569458,1.075,0.10638297,-882.839,369.4118,0.052459598,-0.045697212,-0.03037548,2.7346303E-4,-3.0384783E-5,0.0
293.58936,543.54834,98569475,1.0500001,0.10638297,-548.23975,246.46083,0.052459598,-0.045697212,-0.03037548,2.7346303E-4,-3.0384783E-5,0.0
289.33395,545.4468,98569492,0.90000004,0.09574468,-210.08647,63.492115,0.052459598,-0.045697212,-0.03037548,0.0,0.0,0.0
286.75693,545.41736,98569508,0.4375,0.12765957,8.76576,-84.236015,0.052459598,-0.045697212,-0.03037548,0.0,0.0,0.0
286.38464,544.5288,98569516,0.175,0.07446808,100.30054,-146.68051,0.052459598,-0.045697212,-0.03037548,0.0,0.0,0.0
286.38464,544.5288,98569523,0.175,0.07446808,100.30054,-146.68051,0.052459598,-0.045697212,-0.03037548,0.0,0.0,0.0
603.7813,410.36487,98569991,0.95,0.10638297,0.0,0.0,0.009967685,-0.09255767,0.06369877,0.0,0.0,0.0
603.7813,410.36487,98570010,1.2,0.12765957,0.12693225,0.07503842,0.009967685,-0.09255767,0.06369877,0.0,0.0,0.0
603.7813,410.36487,98570026,1.3375,0.14893617,-0.034920722,-0.022962885,0.009967685,-0.09255767,0.06369877,-3.355443E-6,0.0,0.0
603.7813,410.36487,98570043,1.275,0.14893617,0.04884282,0.03341597,0.009967685,-0.09255767,0.06369877,-3.355443E-6,0.0,0.0
603.7813,410.36487,98570060,1.2,0.12765957,-0.0010629214,-0.0015655468,0.009967685,-0.09255767,0.06369877,-3.355443E-6,0.0,0.0
583.4118,392.43518,98570077,1.0875,0.12765957,-636.5252,-568.21313,0.009967685,-0.09255767,0.06369877,-3.355443E-6,0.0,0.0
569.23096,384.69385,98570093,1.0375,0.10638297,-1224.2252,-945.3678,-0.11202586,0.04595399,-0.021040916,3.629458E-4,-3.6294583E-5,0.0
554.7034,379.53564,98570110,1.0500001,0.12765957,-1391.5006,-850.52203,-0.11202586,0.04595399,-0.021040916,3.629458E-4,-3.6294583E-5,0.0
538.8447,376.65833,98570127,1.0625,0.12765957,-1250.5585,-413.54938,-0.11202586,0.04595399,-0.021040916,3.629458E-4,-3.6294583E-5,0.0
523.72833,377.49902,98570143,1.0875,0.10638297,-963.59985,102.59247,-0.11202586,0.04595399,-0.021040916,3.629458E-4,-3.6294583E-5,0.0
509.70355,384.04236,98570160,1.075,0.10638297,-831.24927,464.43964,-0.11202586,0.04595399,-0.021040916,1.710946E-5,0.0,0.0
498.4718,391.41748,98570177,1.0500001,0.12765957,-788.73486,606.95087,-0.11202586,0.04595399,-0.021040916,1.710946E-5,0.0,0.0
488.49634,398.761,98570193,1.0375,0.12765957,-611.5765,704.52454,-0.11202586,0.04595399,-0.021040916,1.710946E-5,0.0,0.0
481.19006,409.40063,98570210,1.0,0.11702127,-408.9718,711.0363,-0.11202586,0.04595399,-0.021040916,1.710946E-5,0.0,0.0
474.70526,427.50964,98570227,0.95,0.09574468,-303.87592,937.29974,-0.11202586,0.04595399,-0.021040916,0.0,0.0,0.0
473.3238,442.28723,98570244,0.90000004,0.11702127,-126.103004,1124.7229,-0.11202586,0.04595399,-0.021040916,0.0,0.0,0.0
474.68024,462.0238,98570260,0.8875,0.11702127,114.75145,1298.46,-0.11202586,0.04595399,-0.021040916,0.0,0.0,0.0
480.1046,480.1328,98570277,0.8625,0.09574468,383.86972,1276.1241,-0.11202586,0.04595399,-0.021040916,0.0,0.0,0.0
487.6374,494.4497,98570294,0.8625,0.10638297,632.3549,1085.2941,-0.11202586,0.04595399,-0.021040916,0.0,0.0,0.0
499.20416,507.55725,98570310,0.90000004,0.10638297,749.5892,869.104,-0.11202586,0.04595399,-0.021040916,0.0,0.0,0.0
514.8098,518.20667,98570327,0.925,0.09574468,985.6729,610.3938,-0.11202586,0.04595399,-0.021040916,0.0,0.0,0.0
532.5157,523.1477,98570344,0.95,0.12765957,1203.746,343.03867,-0.11202586,0.04595399,-0.021040916,0.0,0.0,0.0
550.2581,521.3257,98570361,0.9875,0.10638297,1299.0923,-40.308094,-0.11202586,0.04595399,-0.021040916,-9.034802E-5,0.0,0.0
563.58276,514.7412,98570377,1.0,0.11702127,1147.7904,-464.7828,-0.11202586,0.04595399,-0.021040916,-9.034802E-5,0.0,0.0
575.238,506.27637,98570394,1.0625,0.12765957,824.30536,-816.94855,-0.11202586,0.04595399,-0.021040916,-9.034802E-5,0.0,0.0
583.352,496.9762,98570411,1.0875,0.12765957,514.1937,-890.0866,-0.11202586,0.04595399,-0.021040916,-9.034802E-5,0.0,0.0
589.1645,475.08105,98570427,1.1,0.14893617,268.72638,-1136.629,-0.11202586,0.04595399,-0.021040916,-6.0023962E-5,0.0,0.0
589.5627,459.9143,98570444,1.0875,0.12765957,23.606693,-1298.4468,-0.11202586,0.04595399,-0.021040916,-6.0023962E-5,0.0,0.0
588.24615,451.9817,98570461,1.1,0.11702127,-219.83965,-1030.3398,-0.11202586,0.04595399,-0.021040916,-6.0023962E-5,0.0,0.0
586.97614,446.02588,98570478,1.1125001,0.11702127,-326.5323,-503.44547,-0.11202586,0.04595399,-0.021040916,-6.0023962E-5,0.0,0.0
585.94,443.5111,98570494,1.1625,0.11702127,-271.89377,30.766111,-0.11202586,0.04595399,-0.021040916,0.0,0.0,0.0
585.28735,443.2395,98570511,1.225,0.12765957,-128.59319,222.02846,-0.11202586,0.04595399,-0.021040916,0.0,0.0,0.0
584.7875,443.98352,98570528,1.3625001,0.12765957,-35.47642,203.19408,-0.11202586,0.04595399,-0.021040916,0.0,0.0,0.0
584.7875,448.38074,98570544,1.3875,0.14893617,3.6080012,302.60458,-0.11202586,0.04595399,-0.021040916,0.0,0.0,0.0
584.28766,457.53333,98570561,1.025,0.12765957,1.2094439,518.8698,-0.11202586,0.04595399,-0.021040916,3.6294656E-5,0.0,0.0
589.1073,473.45703,98570578,0.90000004,0.09574468,129.70496,875.609,-0.11202586,0.04595399,-0.021040916,3.6294656E-5,0.0,0.0
597.816,490.3883,98570594,0.90000004,0.10638297,426.16116,1259.6721,-0.11202586,0.04595399,-0.021040916,3.6294656E-5,0.0,0.0
614.4809,509.604,98570611,0.9125,0.10638297,864.3698,1413.5808,-0.11202586,0.04595399,-0.021040916,3.6294656E-5,0.0,0.0
635.29846,525.7119,98570628,0.925,0.11702127,1346.3278,1324.809,0.030379325,0.03676319,-0.016832352,1.8981249E-5,0.0,0.0
663.9744,534.6188,98570645,0.95,0.10638297,1809.2267,938.69135,0.030379325,0.03676319,-0.016832352,1.8981249E-5,0.0,0.0
692.83344,532.9591,98570661,0.96250004,0.12765957,2077.599,166.89227,0.030379325,0.03676319,-0.016832352,1.8981249E-5,0.0,0.0
721.0098,522.25464,98570678,0.9875,0.09574468,2109.2766,-624.2212,0.030379325,0.03676319,-0.016832352,1.8981249E-5,0.0,0.0
747.3082,509.32935,98570695,1.025,0.14893617,1851.6085,-1266.8726,0.030379325,0.03676319,-0.016832352,0.0,0.0,0.0
768.252,492.2202,98570711,1.025,0.10638297,1474.3125,-1456.4751,0.030379325,0.03676319,-0.016832352,0.0,0.0,0.0
784.4331,465.9663,98570728,1.0375,0.11702127,1034.4764,-1649.5409,0.030379325,0.03676319,-0.016832352,0.0,0.0,0.0
802.0895,418.9994,98570745,1.0375,0.12765957,797.4059,-2338.909,0.030379325,0.03676319,-0.016832352,0.0,0.0,0.0
806.6349,389.84998,98570762,1.0375,0.11702127,462.0367,-2816.9573,0.030379325,0.03676319,-0.016832352,1.0610839E-5,0.0,0.0
806.68585,351.62085,98570778,1.0625,0.12765957,-44.391865,-2736.3452,0.030379325,0.03676319,-0.016832352,1.0610839E-5,0.0,0.0
802.3529,325.2295,98570795,1.075,0.12765957,-462.6603,-2147.7146,0.030379325,0.03676319,-0.016832352,1.0610839E-5,0.0,0.0
794.52673,295.5912,98570812,1.0500001,0.12765957,-800.968,-1660.9042,0.030379325,0.03676319,-0.016832352,1.0610839E-5,0.0,0.0
786.22534,279.761,98570828,1.075,0.09574468,-869.14856,-1141.401,0.030379325,0.03676319,-0.016832352,-6.0023962E-5,0.0,0.0
772.4161,257.43408,98570845,1.0500001,0.12765957,-880.0358,-943.15015,0.030379325,0.03676319,-0.016832352,-6.0023962E-5,0.0,0.0
754.8811,240.47766,98570862,1.1,0.12765957,-1071.9674,-788.2626,0.030379325,0.03676319,-0.016832352,-6.0023962E-5,0.0,0.0
737.6687,232.10657,98570879,1.075,0.10638297,-1247.4575,-606.2411,0.030379325,0.03676319,-0.016832352,-6.0023962E-5,0.0,0.0
725.03766,229.11023,98570895,1.1,0.10638297,-1169.268,-289.3694,0.030379325,0.03676319,-0.016832352,-1.342177E-5,0.0,0.0
716.49066,230.57092,98570912,1.0875,0.12765957,-747.1429,290.09253,0.030379325,0.03676319,-0.016832352,-1.342177E-5,0.0,0.0
710.00433,233.90271,98570929,1.0500001,0.14893617,-300.5939,586.54004,0.030379325,0.03676319,-0.016832352,-1.342177E-5,0.0,0.0
704.17303,238.50671,98570945,1.025,0.12765957,-115.67017,561.3715,0.030379325,0.03676319,-0.016832352,-1.342177E-5,0.0,0.0
697.9659,250.86377,98570962,0.9875,0.11702127,-156.69731,682.38605,0.030379325,0.03676319,-0.016832352,1.2079586E-4,0.0,0.0
693.1978,268.44592,98570979,0.8875,0.09574468,-241.88538,1029.6531,0.030379325,0.03676319,-0.016832352,1.2079586E-4,0.0,0.0
690.1547,294.5697,98570995,0.875,0.11702127,-211.45964,1530.8468,0.030379325,0.03676319,-0.016832352,1.2079586E-4,0.0,0.0
688.2538,322.9369,98571012,0.85,0.08510638,-121.5049,1994.9572,0.030379325,0.03676319,-0.016832352,1.2079586E-4,0.0,0.0
690.5418,357.48596,98571029,0.85,0.09574468,83.838,2286.3481,0.030379325,0.03676319,-0.016832352,0.0,0.0,0.0
697.67487,390.21692,98571046,0.8,0.11702127,363.58295,2351.4973,0.030379325,0.03676319,-0.016832352,0.0,0.0,0.0
704.7404,424.0426,98571062,0.825,0.09574468,587.13983,2327.3474,0.030379325,0.03676319,-0.016832352,0.0,0.0,0.0
714.53375,454.00793,98571079,0.825,0.10638297,738.03143,2079.403,0.030379325,0.03676319,-0.016832352,0.0,0.0,0.0
725.0828,476.2002,98571096,0.85,0.08510638,772.25903,1677.3876,0.030379325,0.03676319,-0.016832352,-3.355443E-6,0.0,0.0
738.89923,493.583,98571112,0.85,0.10638297,816.4164,1032.0984,0.030379325,0.03676319,-0.016832352,-3.355443E-6,0.0,0.0
758.9084,509.01025,98571129,0.85,0.12765957,1077.7238,606.83905,0.030379325,0.03676319,-0.016832352,-3.355443E-6,0.0,0.0
784.0454,519.6583,98571146,0.875,0.10638297,1462.2335,400.35196,0.030379325,0.03676319,-0.016832352,-3.355443E-6,0.0,0.0
827.4085,522.4032,98571163,0.8625,0.10638297,2216.8442,191.16766,-0.007696539,0.0294106,-0.045466423,0.0,0.0,0.0
848.7016,516.9852,98571171,0.38750002,0.14893617,2658.4658,-66.68069,-0.007696539,0.0294106,-0.045466423,0.0,0.0,0.0
848.7016,516.9852,98571179,0.38750002,0.14893617,2658.4658,-66.68069,-0.007696539,0.0294106,-0.045466423,0.0,0.0,0.0
992.65466,434.3545,98571412,0.7625,0.08510638,0.0,0.0,-0.007696539,0.0294106,-0.045466423,-3.355443E-6,0.0,0.0
992.65466,434.3545,98571430,0.95,0.09574468,0.43405488,0.1806892,-0.007696539,0.0294106,-0.045466423,-1.342177E-5,0.0,0.0
992.65466,434.3545,98571447,1.125,0.12765957,-0.0071162204,-0.0037689516,-0.007696539,0.0294106,-0.045466423,-1.342177E-5,0.0,0.0
992.65466,434.3545,98571464,1.225,0.12765957,0.0016747507,0.0014061135,-0.007696539,0.0294106,-0.045466423,-1.342177E-5,0.0,0.0
992.65466,434.3545,98571480,1.2375001,0.12765957,-0.029271893,-0.01254437,-0.007696539,0.0294106,-0.045466423,-1.342177E-5,0.0,0.0
992.65466,434.3545,98571497,1.1750001,0.12765957,0.03536847,0.012947306,-0.007696539,0.0294106,-0.045466423,3.0198984E-5,0.0,0.0
980.2594,428.84595,98571514,1.0875,0.12765957,-248.80078,-110.5681,-0.007696539,0.0294106,-0.045466423,3.0198984E-5,0.0,0.0
963.62756,423.69238,98571530,1.0125,0.10638297,-975.6011,-388.30936,-0.007696539,0.0294106,-0.045466423,3.0198984E-5,0.0,0.0
952.75037,425.0846,98571547,1.0375,0.10638297,-1257.3999,-321.65067,-0.007696539,0.0294106,-0.045466423,3.0198984E-5,0.0,0.0
945.2586,429.46387,98571564,1.025,0.10638297,-920.7953,101.51618,-0.007696539,0.0294106,-0.045466423,0.0,-0.0,0.0
941.2795,433.3379,98571581,1.0125,0.10638297,-417.23288,400.69168,-0.007696539,0.0294106,-0.045466423,0.0,-0.0,0.0
935.62384,443.34937,98571597,0.95,0.12765957,-26.28026,686.01526,-0.007696539,0.0294106,-0.045466423,0.0,-0.0,0.0
931.4551,453.6958,98571614,0.8875,0.12765957,-129.87772,719.2014,-0.007696539,0.0294106,-0.045466423,0.0,-0.0,0.0
925.6654,471.55957,98571631,0.8875,0.09574468,-208.98305,984.2236,-0.007696539,0.0294106,-0.045466423,4.7453127E-6,0.0,0.0
922.6775,490.30774,98571647,0.85,0.11702127,-250.96751,1293.6213,-0.007696539,0.0294106,-0.045466423,4.7453127E-6,0.0,0.0
922.6775,505.2025,98571664,0.825,0.12765957,-115.99614,1295.4564,-0.007696539,0.0294106,-0.045466423,4.7453127E-6,0.0,0.0
925.824,519.2864,98571681,0.83750004,0.08510638,128.07108,1107.94,-0.007696539,0.0294106,-0.045466423,4.7453127E-6,0.0,0.0
929.44116,528.11975,98571698,0.825,0.08510638,364.57864,635.3832,-0.014157236,-0.040471554,-0.052372932,-7.5029975E-6,0.0,0.0
934.7552,535.6205,98571714,0.83750004,0.08510638,434.92627,318.29047,-0.014157236,-0.040471554,-0.052372932,-7.5029975E-6,0.0,0.0
946.4054,543.6002,98571731,0.83750004,0.09574468,587.603,279.7252,-0.014157236,-0.040471554,-0.052372932,-7.5029975E-6,0.0,0.0
963.58826,546.96545,98571748,0.8625,0.11702127,938.0655,181.73216,-0.014157236,-0.040471554,-0.052372932,-7.5029975E-6,0.0,0.0
984.45886,544.09314,98571764,0.875,0.09574468,1371.2175,-14.472875,-0.014157236,-0.040471554,-0.052372932,-6.4552564E-4,4.9655817E-5,0.0
999.6107,536.9026,98571781,0.925,0.10638297,1474.1411,-409.86816,-0.014157236,-0.040471554,-0.052372932,-6.4552564E-4,4.9655817E-5,0.0
1011.14636,524.9844,98571798,0.95,0.12765957,1125.3804,-859.7983,-0.014157236,-0.040471554,-0.052372932,-6.4552564E-4,4.9655817E-5,0.0
1018.36914,513.9237,98571815,1.0,0.12765957,552.0065,-1016.76965,-0.014157236,-0.040471554,-0.052372932,-6.4552564E-4,4.9655817E-5,0.0
1022.855,499.23206,98571831,0.9875,0.11702127,136.00179,-1059.9254,-0.014157236,-0.040471554,-0.052372932,-1.38348405E-5,0.0,0.0
1020.197,479.94116,98571848,1.0125,0.12765957,-188.11916,-1136.5585,-0.014157236,-0.040471554,-0.052372932,-1.38348405E-5,0.0,0.0
1013.1371,461.36536,98571865,1.0375,0.12765957,-509.9304,-1267.1605,-0.014157236,-0.040471554,-0.052372932,-1.38348405E-5,0.0,0.0
1005.6427,452.2926,98571881,1.0625,0.12765957,-732.7101,-1042.3573,-0.014157236,-0.040471554,-0.052372932,-1.38348405E-5,0.0,0.0
994.5499,440.27368,98571898,1.0500001,0.10638297,-864.56055,-695.2663,-0.014157236,-0.040471554,-0.052372932,8.55473E-5,0.0,0.0
984.37036,431.48486,98571915,1.0625,0.12765957,-826.59155,-429.1594,-0.014157236,-0.040471554,-0.052372932,8.55473E-5,0.0,0.0
976.0885,426.99255,98571932,1.0625,0.12765957,-697.3365,-231.82399,-0.014157236,-0.040471554,-0.052372932,8.55473E-5,0.0,0.0
969.8506,425.46936,98571948,1.075,0.12765957,-508.76874,-104.41859,-0.014157236,-0.040471554,-0.052372932,8.55473E-5,0.0,0.0
966.8572,427.0741,98571965,1.1,0.12765957,-219.48676,207.21735,-0.014157236,-0.040471554,-0.052372932,2.800534E-4,-3.1117048E-5,0.0
963.7838,432.25842,98571982,1.1125001,0.12765957,-54.321682,418.80597,-0.014157236,-0.040471554,-0.052372932,2.800534E-4,-3.1117048E-5,0.0
963.1643,437.81775,98571998,1.15,0.12765957,41.549183,535.58527,-0.014157236,-0.040471554,-0.052372932,2.800534E-4,-3.1117048E-5,0.0
964.21045,442.4336,98572015,1.1125001,0.12765957,111.743935,498.30356,-0.014157236,-0.040471554,-0.052372932,2.800534E-4,-3.1117048E-5,0.0
966.2704,444.22302,98572032,1.0625,0.12765957,186.18146,318.0567,-0.014157236,-0.040471554,-0.052372932,0.0,0.0,0.0
971.74475,447.13892,98572049,0.96250004,0.12765957,318.867,146.7539,-0.014157236,-0.040471554,-0.052372932,0.0,0.0,0.0
982.65796,451.23608,98572065,0.9125,0.10638297,543.34436,104.22899,-0.014157236,-0.040471554,-0.052372932,0.0,0.0,0.0
995.58044,454.6444,98572082,0.9375,0.11702127,823.1704,168.15408,-0.014157236,-0.040471554,-0.052372932,0.0,0.0,0.0
1011.17163,455.67847,98572099,0.95,0.12765957,1123.074,200.28775,-0.014157236,-0.040471554,-0.052372932,0.0,0.0,0.0
1026.3497,455.20374,98572115,0.975,0.14893617,1204.7736,41.56207,-0.014157236,-0.040471554,-0.052372932,0.0,0.0,0.0
1036.0327,453.37024,98572132,0.9875,0.10638297,947.17206,-146.86798,-0.014157236,-0.040471554,-0.052372932,0.0,0.0,0.0
1042.3397,451.5199,98572149,1.025,0.10638297,472.32822,-240.37976,-0.014157236,-0.040471554,-0.052372932,0.0,0.0,0.0
1045.913,449.65833,98572166,1.0500001,0.10638297,116.91962,-213.98541,-0.014157236,-0.040471554,-0.052372932,-1.0610839E-5,0.0,0.0
1047.0618,447.8158,98572182,1.0375,0.10638297,-107.81027,-150.57433,-0.014157236,-0.040471554,-0.052372932,-1.0610839E-5,0.0,0.0
1046.6663,445.06848,98572199,0.9875,0.10638297,-188.32257,-146.87195,-0.014157236,-0.040471554,-0.052372932,-1.0610839E-5,0.0,0.0
1046.1373,444.12793,98572208,0.5625,0.12765957,-206.49599,-144.71135,-0.014157236,-0.040471554,-0.052372932,-1.0610839E-5,0.0,0.0
1046.1373,444.12793,98572215,0.5625,0.12765957,-206.49599,-144.71135,-0.014157236,-0.040471554,-0.052372932,-1.0610839E-5,0.0,0.0
1172.5961,417.4729,98572432,0.96250004,0.10638297,0.0,0.0,0.012674183,0.04762292,-0.05789852,-3.355443E-6,0.0,0.0
1172.5961,417.4729,98572450,1.1,0.12765957,1.4323988,0.5081796,0.012674183,0.04762292,-0.05789852,-3.355443E-6,0.0,0.0
1172.5961,417.4729,98572466,1.2125,0.12765957,-0.102952436,-0.03830061,0.012674183,0.04762292,-0.05789852,-3.355443E-6,0.0,0.0
1172.5961,417.4729,98572483,1.25,0.12765957,-0.053001605,-0.02013904,0.012674183,0.04762292,-0.05789852,-3.355443E-6,0.0,0.0
1172.5961,417.4729,98572500,1.2125,0.12765957,-0.030253025,-0.0117728235,0.012674183,0.04762292,-0.05789852,1.2079586E-4,0.0,0.0
1172.5961,417.4729,98572517,1.125,0.10638297,0.03825069,0.011735036,0.012674183,0.04762292,-0.05789852,1.2079586E-4,0.0,0.0
1154.1892,412.0371,98572533,0.9875,0.12765957,-546.84283,-163.71596,0.012674183,0.04762292,-0.05789852,1.2079586E-4,0.0,0.0
1139.622,411.82263,98572550,0.96250004,0.14893617,-1102.8008,-227.26999,0.012674183,0.04762292,-0.05789852,1.2079586E-4,0.0,0.0
1126.2793,415.2019,98572567,0.975,0.10638297,-1347.0409,-48.82442,0.012674183,0.04762292,-0.05789852,0.0,0.0,0.0
1116.4058,421.21228,98572583,0.9875,0.10638297,-1100.5896,280.79944,0.012674183,0.04762292,-0.05789852,0.0,0.0,0.0
1109.4695,429.38953,98572600,0.975,0.10638297,-531.0393,612.69525,0.012674183,0.04762292,-0.05789852,0.0,0.0,0.0
1101.2273,444.79736,98572617,0.90000004,0.12765957,-226.10878,914.0941,0.012674183,0.04762292,-0.05789852,0.0,0.0,0.0
1096.0255,464.14148,98572634,0.875,0.08510638,-241.5624,1204.0673,0.012674183,0.04762292,-0.05789852,0.0,0.0,0.0
1094.6215,484.0702,98572650,0.83750004,0.08510638,-121.290474,1444.1556,0.012674183,0.04762292,-0.05789852,0.0,0.0,0.0
1095.7938,502.52612,98572667,0.8,0.12765957,55.088257,1481.358,0.012674183,0.04762292,-0.05789852,0.0,0.0,0.0
1100.076,517.7185,98572683,0.8125,0.08510638,307.70502,1261.3079,0.012674183,0.04762292,-0.05789852,0.0,0.0,0.0
1105.177,523.6603,98572700,0.8125,0.08510638,481.92505,709.1717,0.012674183,0.04762292,-0.05789852,3.2665124E-4,0.0,0.0
1114.3405,531.39124,98572717,0.85,0.08510638,605.9243,305.02466,0.012674183,0.04762292,-0.05789852,3.2665124E-4,0.0,0.0
1126.5168,534.7554,98572733,0.83750004,0.11702127,762.2715,45.17273,0.012674183,0.04762292,-0.05789852,3.2665124E-4,0.0,0.0
1145.1927,530.4669,98572750,0.8625,0.12765957,1075.1925,-198.95389,0.012674183,0.04762292,-0.05789852,3.2665124E-4,0.0,0.0
1161.1829,519.4042,98572767,0.8875,0.09574468,1274.1948,-613.42487,0.058139324,0.038098097,-0.062318802,-4.2707805E-5,0.0,0.0
1172.8645,507.13672,98572784,0.975,0.12765957,1123.4735,-1073.2977,0.058139324,0.038098097,-0.062318802,-4.2707805E-5,0.0,0.0
1181.1248,489.3578,98572800,0.9375,0.11702127,703.629,-1261.7511,0.058139324,0.038098097,-0.062318802,-4.2707805E-5,0.0,0.0
1185.0312,467.42078,98572817,0.96250004,0.14893617,246.76053,-1479.2208,0.058139324,0.038098097,-0.062318802,-4.2707805E-5,0.0,0.0
1182.6514,455.85168,98572834,0.9875,0.12765957,-176.54582,-1341.7947,0.058139324,0.038098097,-0.062318802,3.5192107E-4,-3.5192108E-5,0.0
1179.0249,449.37708,98572850,1.0500001,0.10638297,-432.89117,-771.2229,0.058139324,0.038098097,-0.062318802,3.5192107E-4,-3.5192108E-5,0.0
1174.2775,445.67883,98572867,1.0875,0.12765957,-540.90283,-189.2079,0.058139324,0.038098097,-0.062318802,3.5192107E-4,-3.5192108E-5,0.0
1169.6866,445.01648,98572884,1.1750001,0.12765957,-526.69385,251.72217,0.058139324,0.038098097,-0.062318802,3.5192107E-4,-3.5192108E-5,0.0
1166.8086,447.05054,98572901,1.1875,0.12765957,-351.35953,356.2294,0.058139324,0.038098097,-0.062318802,0.0,0.0,0.0
1164.2202,452.24536,98572917,1.0375,0.10638297,-200.35526,407.26227,0.058139324,0.038098097,-0.062318802,0.0,0.0,0.0
1165.0985,467.906,98572934,0.8,0.08510638,-28.450718,714.81995,0.058139324,0.038098097,-0.062318802,0.0,0.0,0.0
1164.0989,503.4895,98572951,0.7625,0.10638297,77.01523,1680.8824,0.058139324,0.038098097,-0.062318802,0.0,0.0,0.0
1164.9037,541.5033,98572967,0.7375,0.06382979,86.57387,2717.521,0.058139324,0.038098097,-0.062318802,1.7273163E-4,0.0,0.0
1166.6384,582.0049,98572984,0.7375,0.08510638,105.24333,3238.5579,0.058139324,0.038098097,-0.062318802,1.7273163E-4,0.0,0.0
1168.8698,616.69275,98573001,0.7375,0.10638297,147.88298,2937.8096,0.058139324,0.038098097,-0.062318802,1.7273163E-4,0.0,0.0
1168.9999,647.66345,98573018,0.75,0.06382979,137.32384,2186.947,0.058139324,0.038098097,-0.062318802,1.7273163E-4,0.0,0.0
1165.2399,676.9877,98573034,0.7625,0.10638297,-30.426682,1716.1625,0.058139324,0.038098097,-0.062318802,5.5339362E-5,0.0,0.0
1160.4673,697.93225,98573051,0.7625,0.06382979,-278.38116,1300.5614,0.058139324,0.038098097,-0.062318802,5.5339362E-5,0.0,0.0
1154.8715,709.209,98573068,0.8,0.12765957,-463.0709,786.722,0.058139324,0.038098097,-0.062318802,5.5339362E-5,0.0,0.0
1120.3826,708.4923,98573135,1.025,0.10638297,-357.84232,-703.16187,0.058139324,0.038098097,-0.062318802,5.8696245E-5,0.0,0.0
1112.8873,688.5746,98573151,0.96250004,0.10638297,-480.13196,-1599.6592,0.058139324,0.038098097,-0.062318802,5.8696245E-5,0.0,0.0
1112.6284,663.04736,98573168,1.0,0.09574468,31.330017,-1819.1418,0.058139324,0.038098097,-0.062318802,-8.55473E-5,0.0,0.0
1121.2017,630.0139,98573185,0.9875,0.12765957,614.5177,-2285.8743,0.058139324,0.038098097,-0.062318802,-8.55473E-5,0.0,0.0
1135.4176,608.29395,98573201,0.975,0.09574468,1050.2794,-1978.2719,0.058139324,0.038098097,-0.062318802,-8.55473E-5,0.0,0.0
1155.245,582.37866,98573218,0.96250004,0.11702127,1459.7247,-1791.7389,0.058139324,0.038098097,-0.062318802,-8.55473E-5,0.0,0.0
1178.773,562.3707,98573235,0.9375,0.12765957,1769.2201,-1335.6014,0.058139324,0.038098097,-0.062318802,-8.55473E-5,0.0,0.0
1200.3724,551.72656,98573252,0.95,0.12765957,1783.2335,-845.50574,0.058139324,0.038098097,-0.062318802,-8.55473E-5,0.0,0.0
1218.0714,545.254,98573268,0.8875,0.10638297,1451.2222,-348.65814,0.058139324,0.038098097,-0.062318802,-8.55473E-5,0.0,0.0
1239.4966,538.8533,98573285,0.7875,0.11702127,1220.5986,-27.745888,0.058139324,0.038098097,-0.062318802,-8.55473E-5,0.0,0.0
1263.5665,527.64734,98573300,0.275,0.10638297,1284.9796,-4.4573035,0.04651147,-0.16952157,-0.01785469,-3.6294656E-5,0.0,0.0
1263.5665,527.64734,98573308,0.275,0.10638297,1284.9796,-4.4573035,0.04651147,-0.16952157,-0.01785469,-3.6294656E-5,0.0,0.0
1251.5704,382.8213,98573951,0.8625,0.11702127,0.0,0.0,-0.010790825,-0.015617371,0.017716408,-3.355443E-6,0.0,0.0
1251.5704,382.8213,98573970,0.975,0.11702127,0.16219427,0.04687115,-0.010790825,-0.015617371,0.017716408,-3.0198984E-5,0.0,0.0
1251.5704,382.8213,98573987,1.0125,0.12765957,-0.055978086,-0.017796934,-0.010790825,-0.015617371,0.017716408,-3.0198984E-5,0.0,0.0
1268.5103,363.02173,98574003,0.96250004,0.11702127,1018.1584,-1181.6069,-0.010790825,-0.015617371,0.017716408,-3.0198984E-5,0.0,0.0
1276.8398,351.2301,98574020,0.95,0.12765957,1069.1107,-1327.0837,-0.010790825,-0.015617371,0.017716408,-3.0198984E-5,0.0,0.0
1285.1183,333.797,98574037,0.9125,0.08510638,906.1189,-1370.8505,-0.010790825,-0.015617371,0.017716408,5.8696245E-5,0.0,0.0
1289.2101,309.5028,98574054,0.925,0.14893617,505.13425,-1482.3188,-0.010790825,-0.015617371,0.017716408,5.8696245E-5,0.0,0.0
1289.636,287.49646,98574070,0.9125,0.10638297,57.582027,-1540.0286,-0.010790825,-0.015617371,0.017716408,5.8696245E-5,0.0,0.0
1285.744,262.2129,98574087,0.96250004,0.12765957,-327.79318,-1565.4487,-0.010790825,-0.015617371,0.017716408,5.8696245E-5,0.0,0.0
1279.5295,242.3363,98574104,0.95,0.10638297,-511.51065,-1559.8046,-0.010790825,-0.015617371,0.017716408,-3.613921E-5,0.0,0.0
1274.872,228.51685,98574120,0.975,0.10638297,-582.2565,-1105.593,-0.010790825,-0.015617371,0.017716408,-3.613921E-5,0.0,0.0
1270.5883,218.27942,98574137,0.96250004,0.12765957,-457.0799,-625.38696,-0.010790825,-0.015617371,0.017716408,-3.613921E-5,0.0,0.0
1267.1422,210.33765,98574154,1.0,0.12765957,-293.70667,-298.82867,-0.010790825,-0.015617371,0.017716408,-3.613921E-5,0.0,0.0
1265.3594,207.41895,98574171,1.0125,0.12765957,-136.90248,-20.50963,-0.010790825,-0.015617371,0.017716408,4.2707805E-5,0.0,0.0
1264.1454,206.89758,98574187,1.0375,0.12765957,-43.804745,92.65561,-0.010790825,-0.015617371,0.017716408,4.2707805E-5,0.0,0.0
1261.8156,209.56677,98574204,1.075,0.12765957,-33.168015,258.74655,-0.010790825,-0.015617371,0.017716408,4.2707805E-5,0.0,0.0
1259.2797,219.74524,98574221,1.1125001,0.12765957,-93.38456,595.9723,-0.010790825,-0.015617371,0.017716408,4.2707805E-5,0.0,0.0
1259.068,229.3009,98574237,0.96250004,0.12765957,-99.52365,827.52423,-0.010790825,-0.015617371,0.017716408,0.0,0.0,0.0
1260.4307,249.85205,98574254,0.7625,0.10638297,9.299891,1112.3236,-0.010790825,-0.015617371,0.017716408,0.0,0.0,0.0
1259.977,287.0359,98574271,0.7375,0.10638297,92.01508,1898.3336,-0.010790825,-0.015617371,0.017716408,0.0,0.0,0.0
1259.1665,327.40857,98574288,0.7375,0.08510638,71.21384,2691.9214,-0.010790825,-0.015617371,0.017716408,0.0,0.0,0.0
1260.5619,371.922,98574304,0.75,0.10638297,21.80675,3299.1243,-0.010790825,-0.015617371,0.017716408,0.0,0.0,0.0
1261.6315,411.73682,98574321,0.75,0.08510638,36.806183,3147.0464,-0.010790825,-0.015617371,0.017716408,0.0,0.0,0.0
1262.6891,445.19446,98574338,0.75,0.12765957,81.885,2523.4812,-0.010790825,-0.015617371,0.017716408,0.0,0.0,0.0
1266.4965,475.24036,98574354,0.7625,0.06382979,181.6593,1950.3739,-0.010790825,-0.015617371,0.017716408,0.0,0.0,0.0
1271.5972,499.85803,98574371,0.7625,0.10638297,289.3706,1416.1952,0.0073673427,-0.012493849,0.06217289,3.183252E-5,0.0,0.0
1277.5348,525.57666,98574388,0.7,0.08510638,401.86237,1198.9774,0.0073673427,-0.012493849,0.06217289,3.183252E-5,0.0,0.0
1283.0602,544.5288,98574401,0.575,0.09574468,478.08603,1154.4342,0.0073673427,-0.012493849,0.06217289,3.183252E-5,0.0,0.0
1283.0602,544.5288,98574408,0.575,0.09574468,478.08603,1154.4342,0.0073673427,-0.012493849,0.06217289,3.183252E-5,0.0,0.0
1287.0588,552.5254,98574876,0.96250004,0.10638297,0.0,0.0,0.0073673427,-0.012493849,0.06217289,0.0,0.0,0.0
1287.0588,552.5254,98574906,1.15,0.12765957,1.0216135E-5,-0.0012341723,-0.02610612,-0.08199501,0.033738136,-1.342177E-5,0.0,0.0
1280.8522,527.25037,98574923,1.0,0.10638297,-452.98187,-1829.8612,-0.02610612,-0.08199501,0.033738136,-1.342177E-5,0.0,0.0
1279.1327,511.9049,98574939,0.975,0.10638297,-321.60046,-1661.4991,-0.02610612,-0.08199501,0.033738136,-1.342177E-5,0.0,0.0
1280.0306,493.29395,98574956,0.96250004,0.09574468,-132.43657,-1588.6261,-0.02610612,-0.08199501,0.033738136,-1.342177E-5,0.0,0.0
1285.1791,467.56543,98574973,0.975,0.12765957,157.67528,-1685.0487,-0.02610612,-0.08199501,0.033738136,1.6441657E-4,0.0,0.0
1292.6036,451.03174,98574989,0.95,0.11702127,502.0825,-1392.944,-0.02610612,-0.08199501,0.033738136,1.6441657E-4,0.0,0.0
1299.4473,441.16174,98575006,0.96250004,0.11702127,650.9262,-923.64813,-0.02610612,-0.08199501,0.033738136,1.6441657E-4,0.0,0.0
1307.1659,433.22388,98575023,0.9875,0.12765957,627.2509,-508.4259,-0.02610612,-0.08199501,0.033738136,-6.0023962E-5,0.0,0.0
1312.9722,430.8004,98575039,1.0,0.10638297,518.43054,-26.369713,-0.02610612,-0.08199501,0.033738136,-6.0023962E-5,0.0,0.0
1315.9995,431.20032,98575056,1.0375,0.10638297,298.2536,202.23456,-0.02610612,-0.08199501,0.033738136,-6.0023962E-5,0.0,0.0
1318.0796,436.2411,98575073,1.0375,0.10638297,100.25371,395.56778,-0.02610612,-0.08199501,0.033738136,-6.0023962E-5,0.0,0.0
1319.3545,443.63794,98575090,0.96250004,0.10638297,-33.717415,633.9099,-0.02610612,-0.08199501,0.033738136,0.0,0.0,0.0
1320.9816,455.32556,98575106,0.8875,0.10638297,-40.363155,787.1801,-0.02610612,-0.08199501,0.033738136,8.55473E-5,0.0,0.0
1325.0916,477.2428,98575123,0.85,0.08510638,95.01543,1187.8031,-0.02610612,-0.08199501,0.033738136,8.55473E-5,0.0,0.0
1328.8167,498.6145,98575140,0.83750004,0.09574468,237.55344,1565.0779,-0.02610612,-0.08199501,0.033738136,8.55473E-5,0.0,0.0
1332.9097,521.6,98575156,0.825,0.09574468,301.95303,1733.6725,-0.02610612,-0.08199501,0.033738136,1.186327E-4,0.0,0.0
1335.5549,542.8567,98575173,0.7625,0.09574468,263.01013,1619.423,-0.02610612,-0.08199501,0.033738136,1.186327E-4,0.0,0.0
1338.6941,563.28955,98575190,0.725,0.10638297,185.73602,1345.7386,-0.02610612,-0.08199501,0.033738136,1.186327E-4,0.0,0.0
1341.7267,583.495,98575207,0.6875,0.07446808,158.31125,1202.4015,-0.02610612,-0.08199501,0.033738136,1.186327E-4,0.0,0.0
1348.4069,603.33215,98575223,0.5125,0.12765957,255.93796,1127.8031,-0.02610612,-0.08199501,0.033738136,-8.55473E-5,0.0,0.0
1348.4069,603.33215,98575230,0.5125,0.12765957,255.93796,1127.8031,-0.02610612,-0.08199501,0.033738136,-8.55473E-5,0.0,0.0
