x,y,timestamp,pressure,fingerarea,velocityx,velocityy,accelx,accely,accelz,gyrox,gyroy,gyroz
238.90009,227.33313,77431482,0.6375,0.08510638,0.0,0.0,-0.006781727,-0.004003361,-0.011049271,0.0,0.0,0.0
238.90009,227.33313,77431505,0.7,0.08510638,-0.013082891,-0.013767117,-0.006781727,-0.004003361,-0.011049271,0.0,0.0,0.0
238.90009,227.33313,77431538,0.7875,0.10638297,0.009586975,0.009560465,-0.006781727,-0.004003361,-0.011049271,0.0,0.0,0.0
241.99588,252.84204,77431555,0.8,0.08510638,130.11937,1094.6406,-0.006781727,-0.004003361,-0.011049271,0.0,0.0,0.0
245.6239,273.85156,77431571,0.8,0.10638297,233.89001,1628.0208,-0.006781727,-0.004003361,-0.011049271,0.0,0.0,0.0
251.3389,294.5548,77431588,0.8,0.10638297,375.1962,1884.4993,-0.006781727,-0.004003361,-0.011049271,0.0,-3.355443E-6,0.0
256.75375,318.85864,77431605,0.8,0.09574468,425.3163,1844.0273,-0.006781727,-0.004003361,-0.011049271,0.0,-3.355443E-6,0.0
262.3433,340.56458,77431621,0.77500004,0.12765957,417.24384,1524.5355,-0.006781727,-0.004003361,-0.011049271,0.0,-3.355443E-6,0.0
270.2155,370.16785,77431638,0.825,0.08510638,442.74136,1585.4963,-0.006781727,-0.004003361,-0.011049271,0.0,0.0,0.0
278.92993,398.0592,77431655,0.8,0.10638297,527.115,1831.5284,-0.006781727,-0.004003361,-0.011049271,0.0,0.0,0.0
287.33347,423.6565,77431671,0.77500004,0.08510638,592.9836,1805.7617,-0.006781727,-0.004003361,-0.011049271,0.0,0.0,0.0
292.77094,440.17725,77431688,0.8,0.09574468,508.37527,1420.529,-0.006781727,-0.004003361,-0.011049271,0.0,0.0,0.0
297.38922,451.92053,77431705,0.7875,0.12765957,314.94882,765.50665,0.026574612,0.036797315,0.007160187,0.0,0.0,0.0
300.21838,457.91284,77431722,0.77500004,0.10638297,146.08595,196.50763,0.026574612,0.036797315,0.007160187,0.0,0.0,0.0
300.84473,459.17004,77431738,0.75,0.10638297,-2.7273922,-174.15218,0.026574612,0.036797315,0.007160187,0.0,0.0,0.0
300.8799,460.1211,77431755,0.4375,0.14893617,-79.5154,-286.20187,0.026574612,0.036797315,0.007160187,0.0,0.0,0.0
299.3804,459.23254,77431763,0.26250002,0.10638297,-126.84827,-327.08325,0.026574612,0.036797315,0.007160187,0.0,0.0,0.0
299.3804,459.23254,77431770,0.26250002,0.10638297,-126.84827,-327.08325,0.026574612,0.036797315,0.007160187,0.0,0.0,0.0
120.93849,308.187,77431972,0.725,0.08510638,0.0,0.0,0.026574612,0.036797315,0.007160187,0.0,0.0,0.0
120.93849,308.187,77431989,0.77500004,0.09574468,-0.08890955,-0.22387321,0.026574612,0.036797315,0.007160187,0.0,0.0,0.0
120.93849,308.187,77432006,0.8,0.12765957,0.0012561571,0.0026895637,0.026574612,0.036797315,0.007160187,0.0,0.0,0.0
119.61258,288.1532,77432022,0.8,0.08510638,-76.03745,-1148.8585,0.026574612,0.036797315,0.007160187,0.0,0.0,0.0
129.22165,264.81152,77432039,0.825,0.08510638,342.56015,-1860.4335,0.026574612,0.036797315,0.007160187,0.0,0.0,0.0
142.47284,247.45068,77432056,0.825,0.12765957,744.30524,-1837.6703,0.026574612,0.036797315,0.007160187,0.0,0.0,0.0
167.45164,221.0885,77432072,0.8125,0.08510638,1472.2034,-1886.3505,0.026574612,0.036797315,0.007160187,0.0,0.0,0.0
192.08234,200.73706,77432089,0.8125,0.10638297,1978.0403,-1645.9423,0.026574612,0.036797315,0.007160187,0.0,0.0,0.0
216.85172,187.22168,77432106,0.83750004,0.12765957,2015.781,-1088.2408,0.026574612,0.036797315,0.007160187,0.0,0.0,0.0
240.35202,182.22168,77432123,0.825,0.12765957,1768.0238,-540.2182,0.026574612,0.036797315,0.007160187,0.0,0.0,0.0
259.17673,182.01953,77432139,0.8125,0.12765957,1315.6434,221.14392,0.026574612,0.036797315,0.007160187,0.0,0.0,0.0
276.89145,187.16162,77432156,0.8125,0.10638297,1032.2325,620.59125,0.026574612,0.036797315,0.007160187,0.0,0.0,0.0
286.92633,195.39355,77432173,0.825,0.08510638,702.15686,785.94763,0.026574612,0.036797315,0.007160187,0.0,0.0,0.0
295.9221,217.26709,77432189,0.825,0.10638297,358.94125,1175.406,0.026574612,0.036797315,0.007160187,0.0,0.0,0.0
294.70056,239.20142,77432206,0.825,0.09574468,-8.20406,1594.9585,0.026574612,0.036797315,0.007160187,0.0,0.0,0.0
288.25894,262.8181,77432223,0.8125,0.08510638,-453.34894,1844.2201,0.026574612,0.036797315,0.007160187,0.0,0.0,0.0
281.0543,278.90613,77432240,0.83750004,0.12765957,-763.88275,1650.4811,-0.01074031,-0.02656214,-0.02627182,0.0,0.0,0.0
275.8595,291.7218,77432256,0.83750004,0.12765957,-789.167,1127.4946,-0.01074031,-0.02656214,-0.02627182,0.0,0.0,0.0
272.3959,298.83984,77432273,0.825,0.10638297,-496.53635,413.93234,-0.01074031,-0.02656214,-0.02627182,0.0,0.0,0.0
271.6739,303.86694,77432290,0.825,0.08510638,-132.91698,79.16316,-0.01074031,-0.02656214,-0.02627182,0.0,0.0,0.0
273.9579,306.63684,77432306,0.8125,0.08510638,149.4618,-94.4335,-0.01074031,-0.02656214,-0.02627182,0.0,0.0,0.0
286.1045,308.187,77432323,0.825,0.08510638,535.8875,-109.52884,-0.01074031,-0.02656214,-0.02627182,0.0,3.355443E-6,0.0
304.32648,304.4248,77432340,0.7875,0.11702127,1083.1931,-204.9002,-0.01074031,-0.02656214,-0.02627182,0.0,3.355443E-6,0.0
326.7124,298.7224,77432357,0.7875,0.12765957,1604.5721,-393.09622,-0.01074031,-0.02656214,-0.02627182,0.0,3.355443E-6,0.0
352.06195,294.01746,77432373,0.8,0.12765957,1910.5427,-531.66003,-0.01074031,-0.02656214,-0.02627182,0.0,0.0,0.0
371.30832,293.97095,77432390,0.77500004,0.12765957,1699.0808,-338.66736,-0.01074031,-0.02656214,-0.02627182,0.0,0.0,0.0
390.39224,298.59387,77432407,0.7625,0.10638297,1352.2815,74.67762,-0.01074031,-0.02656214,-0.02627182,0.0,0.0,0.0
404.5155,305.38855,77432423,0.7625,0.08510638,977.3703,477.85757,-0.01074031,-0.02656214,-0.02627182,0.0,0.0,0.0
414.1855,314.94922,77432440,0.77500004,0.09574468,582.1008,725.2688,-0.01074031,-0.02656214,-0.02627182,0.0,0.0,0.0
420.41266,326.08447,77432457,0.75,0.11702127,266.8288,850.4318,-0.01074031,-0.02656214,-0.02627182,0.0,0.0,0.0
427.72662,347.2776,77432473,0.7625,0.11702127,147.28183,1153.468,-0.01074031,-0.02656214,-0.02627182,0.0,0.0,0.0
429.83792,367.43774,77432490,0.7875,0.09574468,96.17452,1403.2023,-0.01074031,-0.02656214,-0.02627182,0.0,0.0,0.0
428.25366,383.42407,77432507,0.75,0.09574468,-77.29905,1394.2493,-0.01074031,-0.02656214,-0.02627182,0.0,0.0,0.0
425.02377,398.15942,77432524,0.75,0.12765957,-311.26477,1102.5504,-0.01074031,-0.02656214,-0.02627182,0.0,0.0,0.0
419.93436,414.00928,77432540,0.77500004,0.09574468,-485.16275,842.1372,-0.01074031,-0.02656214,-0.02627182,0.0,0.0,0.0
413.34763,429.9043,77432557,0.77500004,0.08510638,-524.30334,848.062,-0.01074031,-0.02656214,-0.02627182,0.0,0.0,0.0
408.08325,436.73767,77432574,0.77500004,0.09574468,-486.33838,670.9873,-0.01074031,-0.02656214,-0.02627182,0.0,0.0,0.0
397.81268,444.151,77432590,0.75,0.12765957,-543.82996,408.59344,-0.01074031,-0.02656214,-0.02627182,0.0,0.0,0.0
385.32532,450.58167,77432607,0.75,0.12765957,-716.23315,199.67612,-0.01074031,-0.02656214,-0.02627182,0.0,0.0,0.0
372.40668,454.16113,77432624,0.75,0.12765957,-874.36945,89.35146,-0.01074031,-0.02656214,-0.02627182,0.0,0.0,0.0
359.09396,454.79004,77432641,0.7625,0.10638297,-962.39496,28.435448,-0.01074031,-0.02656214,-0.02627182,0.0,0.0,0.0
344.91714,451.3523,77432657,0.77500004,0.09574468,-951.40216,-156.10808,-0.01074031,-0.02656214,-0.02627182,0.0,0.0,0.0
335.47556,441.65247,77432674,0.75,0.08510638,-776.99536,-517.7384,-0.01074031,-0.02656214,-0.02627182,0.0,0.0,0.0
331.37,434.3545,77432687,0.425,0.12765957,-577.09937,-766.3734,-0.01074031,-0.02656214,-0.02627182,0.0,0.0,0.0
331.37,434.3545,77432694,0.425,0.12765957,-577.09937,-766.3734,-0.01074031,-0.02656214,-0.02627182,0.0,0.0,0.0
548.2994,333.06506,77433950,0.4875,0.08510638,0.0,0.0,9.009838E-4,-0.020639822,0.03806877,0.0,0.0,0.0
548.2994,333.06506,77433978,0.6125,0.08510638,-0.03277751,-0.018401543,9.009838E-4,-0.020639822,0.03806877,0.0,0.0,0.0
548.2994,333.06506,77433993,0.6625,0.08510638,0.042561773,0.023965538,9.009838E-4,-0.020639822,0.03806877,0.0,0.0,0.0
548.2994,333.06506,77434011,0.6875,0.08510638,0.014759632,0.007376371,9.009838E-4,-0.020639822,0.03806877,0.0,0.0,0.0
548.2994,333.06506,77434028,0.6875,0.09574468,0.015466949,0.009007286,9.009838E-4,-0.020639822,0.03806877,0.0,0.0,0.0
548.2994,333.06506,77434044,0.7,0.09574468,-7.1954745E-4,-0.00168605,9.009838E-4,-0.020639822,0.03806877,0.0,0.0,0.0
548.2994,333.06506,77434061,0.71250004,0.08510638,0.017494196,0.010100919,9.009838E-4,-0.020639822,0.03806877,0.0,0.0,0.0
532.0454,333.9972,77434078,0.7375,0.08510638,-456.0832,26.1432,9.009838E-4,-0.020639822,0.03806877,0.0,0.0,0.0
519.7146,336.9431,77434095,0.7625,0.09574468,-963.77594,120.4811,9.009838E-4,-0.020639822,0.03806877,0.0,0.0,0.0
510.4535,341.47754,77434111,0.7375,0.10638297,-1005.70605,247.60477,9.009838E-4,-0.020639822,0.03806877,0.0,0.0,0.0
498.56555,349.94678,77434128,0.7375,0.10638297,-901.75385,446.41507,9.009838E-4,-0.020639822,0.03806877,0.0,0.0,0.0
495.96765,352.47778,77434145,0.77500004,0.09574468,-485.58505,456.37967,9.009838E-4,-0.020639822,0.03806877,0.0,0.0,0.0
482.5111,374.40198,77434161,0.77500004,0.09574468,-470.18604,872.67456,9.009838E-4,-0.020639822,0.03806877,0.0,0.0,0.0
477.44812,391.03613,77434178,0.77500004,0.12765957,-436.32324,1219.6061,9.009838E-4,-0.020639822,0.03806877,0.0,0.0,0.0
475.82294,408.84277,77434195,0.7625,0.11702127,-214.08136,1374.4888,9.009838E-4,-0.020639822,0.03806877,0.0,0.0,0.0
476.54236,429.198,77434212,0.7625,0.09574468,55.560703,1399.5714,9.009838E-4,-0.020639822,0.03806877,0.0,0.0,0.0
479.3736,442.93323,77434228,0.7375,0.11702127,378.99655,1012.6025,9.009838E-4,-0.020639822,0.03806877,0.0,0.0,0.0
483.96198,454.02588,77434245,0.7375,0.12765957,407.61203,786.541,9.009838E-4,-0.020639822,0.03806877,0.0,0.0,0.0
488.73865,460.89563,77434262,0.7625,0.08510638,424.28897,436.09598,9.009838E-4,-0.020639822,0.03806877,0.0,0.0,0.0
499.17163,471.13477,77434278,0.75,0.08510638,562.2073,283.43903,9.009838E-4,-0.020639822,0.03806877,0.0,0.0,0.0
511.57007,478.2588,77434295,0.7375,0.07446808,776.3197,321.56863,9.009838E-4,-0.020639822,0.03806877,0.0,0.0,0.0
522.881,480.7301,77434312,0.7375,0.09574468,884.656,264.10043,9.009838E-4,-0.020639822,0.03806877,0.0,0.0,0.0
536.1337,478.14258,77434329,0.725,0.08510638,909.5677,-20.837671,9.009838E-4,-0.020639822,0.03806877,0.0,0.0,0.0
546.99506,473.36182,77434345,0.725,0.09574468,816.55615,-373.42792,9.009838E-4,-0.020639822,0.03806877,0.0,0.0,0.0
557.31903,467.00928,77434362,0.71250004,0.10638297,674.3526,-616.6416,9.009838E-4,-0.020639822,0.03806877,0.0,0.0,0.0
565.4025,457.73877,77434379,0.71250004,0.09574468,563.5356,-685.1523,0.016720772,0.023488134,0.094454765,0.0,0.0,0.0
571.75616,447.2246,77434395,0.725,0.07446808,370.1114,-734.0242,0.016720772,0.023488134,0.094454765,0.0,0.0,0.0
579.57947,427.1034,77434412,0.725,0.09574468,302.0788,-1026.2749,0.016720772,0.023488134,0.094454765,0.0,0.0,0.0
583.3167,415.38428,77434429,0.725,0.12765957,238.27438,-1141.0526,0.016720772,0.023488134,0.094454765,0.0,0.0,0.0
585.20306,404.00586,77434445,0.725,0.11702127,142.89153,-975.3201,0.016720772,0.023488134,0.094454765,0.0,0.0,0.0
584.82166,394.6754,77434462,0.725,0.09574468,-29.269014,-674.3709,0.016720772,0.023488134,0.094454765,0.0,0.0,0.0
584.28766,384.50952,77434479,0.725,0.08510638,-171.76268,-439.25983,0.016720772,0.023488134,0.094454765,0.0,0.0,0.0
583.28796,376.23035,77434496,0.725,0.09574468,-192.60893,-414.4731,0.016720772,0.023488134,0.094454765,0.0,0.0,0.0
582.2111,369.97058,77434512,0.75,0.08510638,-142.02124,-411.31598,0.016720772,0.023488134,0.094454765,0.0,0.0,0.0
580.4802,366.27966,77434529,0.7375,0.10638297,-109.62463,-252.94055,0.016720772,0.023488134,0.094454765,0.0,0.0,0.0
579.6149,363.54333,77434546,0.7375,0.10638297,-89.5195,-94.31974,0.016720772,0.023488134,0.094454765,0.0,0.0,0.0
578.5823,362.01746,77434562,0.75,0.10638297,-80.41315,12.091073,0.016720772,0.023488134,0.094454765,0.0,0.0,0.0
577.5416,361.4972,77434579,0.7625,0.08510638,-66.31215,22.909018,0.016720772,0.023488134,0.094454765,0.0,0.0,0.0
576.2254,363.0028,77434596,0.7625,0.08510638,-57.608513,71.68664,0.016720772,0.023488134,0.094454765,0.0,0.0,0.0
574.16846,371.92395,77434613,0.7375,0.06382979,-95.1729,355.97107,0.016720772,0.023488134,0.094454765,0.0,0.0,0.0
573.29126,381.5172,77434629,0.75,0.08510638,-108.0123,692.98364,0.016720772,0.023488134,0.094454765,0.0,0.0,0.0
572.8934,389.91162,77434646,0.75,0.10638297,-59.09171,820.652,0.016720772,0.023488134,0.094454765,0.0,0.0,0.0
573.2392,398.3518,77434663,0.7625,0.12765957,3.584466,734.27344,0.016720772,0.023488134,0.094454765,0.0,0.0,0.0
575.27,405.84924,77434679,0.7375,0.10638297,103.286415,535.5548,0.016720772,0.023488134,0.094454765,0.0,0.0,0.0
577.9092,416.12036,77434696,0.75,0.09574468,181.22945,481.38,0.016720772,0.023488134,0.094454765,0.0,0.0,0.0
580.4476,426.3152,77434713,0.725,0.08510638,219.86024,580.928,0.016720772,0.023488134,0.094454765,0.0,0.0,0.0
583.0154,434.2738,77434730,0.725,0.09574468,226.3209,609.75256,0.016720772,0.023488134,0.094454765,0.0,0.0,0.0
585.1407,441.8297,77434746,0.7375,0.11702127,174.17969,539.08685,0.016720772,0.023488134,0.094454765,0.0,0.0,0.0
586.7073,447.91406,77434763,0.725,0.12765957,114.01134,412.11365,0.016720772,0.023488134,0.094454765,0.0,0.0,0.0
588.7201,454.16943,77434780,0.725,0.12765957,85.85985,291.37402,0.016720772,0.023488134,0.094454765,0.0,0.0,0.0
590.8228,459.77612,77434796,0.725,0.11702127,106.30903,283.68427,0.016720772,0.023488134,0.094454765,0.0,0.0,0.0
592.8779,463.84045,77434813,0.725,0.09574468,127.49926,256.16858,0.016720772,0.023488134,0.094454765,0.0,0.0,0.0
595.26416,467.5016,77434830,0.725,0.08510638,136.18683,186.91507,0.016720772,0.023488134,0.094454765,0.0,0.0,0.0
598.76587,471.21216,77434847,0.71250004,0.07446808,167.5108,155.65277,0.016720772,0.023488134,0.094454765,0.0,0.0,0.0
602.905,474.891,77434863,0.71250004,0.06382979,235.1517,165.72993,0.016720772,0.023488134,0.094454765,0.0,0.0,0.0
606.68427,476.7378,77434880,0.7,0.06382979,277.3987,149.35458,0.016720772,0.023488134,0.094454765,0.0,0.0,0.0
611.17944,478.73547,77434897,0.71250004,0.06382979,294.70935,110.896194,0.016720772,0.023488134,0.094454765,0.0,0.0,0.0
615.26807,478.77966,77434913,0.7,0.06382979,266.22568,24.33366,-0.0026233792,-0.0052094758,0.043563843,0.0,0.0,0.0
619.73065,477.91125,77434930,0.7,0.06382979,272.40836,-61.50779,-0.0026233792,-0.0052094758,0.043563843,0.0,0.0,0.0
624.87994,475.68372,77434947,0.7,0.08510638,297.50006,-151.71939,-0.0026233792,-0.0052094758,0.043563843,0.0,0.0,0.0
629.3565,472.04163,77434963,0.71250004,0.11702127,309.8578,-244.63863,-0.0026233792,-0.0052094758,0.043563843,0.0,0.0,0.0
633.19196,468.6327,77434980,0.7,0.11702127,283.41913,-303.05444,-0.0026233792,-0.0052094758,0.043563843,0.0,0.0,0.0
635.9825,466.3678,77434997,0.71250004,0.12765957,198.45737,-254.14554,-0.0026233792,-0.0052094758,0.043563843,0.0,0.0,0.0
640.08215,464.08215,77435014,0.7,0.12765957,171.41823,-160.724,-0.0026233792,-0.0052094758,0.043563843,0.0,0.0,0.0
643.4957,462.3557,77435030,0.7,0.12765957,182.45438,-89.49657,-0.0026233792,-0.0052094758,0.043563843,0.0,0.0,0.0
646.46783,460.3872,77435047,0.6875,0.12765957,198.80856,-74.96872,-0.0026233792,-0.0052094758,0.043563843,0.0,0.0,0.0
648.5251,458.55872,77435064,0.675,0.12765957,157.24243,-90.516914,-0.0026233792,-0.0052094758,0.043563843,0.0,0.0,0.0
649.715,456.65833,77435080,0.55,0.12765957,74.60491,-99.957275,-0.0026233792,-0.0052094758,0.043563843,0.0,0.0,0.0
649.76636,456.56702,77435081,0.275,0.12765957,69.54431,-101.8281,-0.0026233792,-0.0052094758,0.043563843,0.0,0.0,0.0
649.76636,456.56702,77435089,0.275,0.12765957,69.54431,-101.8281,-0.0026233792,-0.0052094758,0.043563843,0.0,0.0,0.0
629.273,482.33362,77435688,0.6375,0.06382979,0.0,0.0,-0.0020986795,0.0038324296,0.0028514862,0.0,0.0,0.0
629.273,482.33362,77435715,0.6875,0.07446808,-0.040743798,-0.031521518,-0.0020986795,0.0038324296,0.0028514862,0.0,0.0,0.0
629.273,482.33362,77435723,0.6875,0.08510638,0.022779424,0.021473378,-0.0020986795,0.0038324296,0.0028514862,0.0,0.0,0.0
629.273,482.33362,77435760,0.6875,0.09574468,-0.00988484,-0.008492421,-0.0020986795,0.0038324296,0.0028514862,0.0,0.0,0.0
629.273,482.33362,77435782,0.7,0.11702127,0.031964585,0.025614658,-0.0020986795,0.0038324296,0.0028514862,0.0,0.0,0.0
637.7106,470.4928,77435799,0.6875,0.12765957,226.449,-317.86282,-0.0020986795,0.0038324296,0.0028514862,0.0,0.0,0.0
645.14636,457.6714,77435816,0.6875,0.11702127,584.3038,-892.2972,-0.0020986795,0.0038324296,0.0028514862,0.0,0.0,0.0
652.90063,437.5078,77435832,0.6875,0.07446808,677.59845,-1435.3291,-0.0020986795,0.0038324296,0.0028514862,0.0,0.0,0.0
656.4695,420.82068,77435849,0.7,0.10638297,489.5662,-1441.5719,-0.0020986795,0.0038324296,0.0028514862,0.0,0.0,0.0
660.104,398.85364,77435866,0.71250004,0.08510638,183.66878,-1354.0634,-0.0020986795,0.0038324296,0.0028514862,0.0,0.0,0.0
661.9246,373.167,77435883,0.725,0.08510638,3.6448681,-1440.4684,-0.0020986795,0.0038324296,0.0028514862,0.0,0.0,0.0
661.5406,344.91895,77435899,0.725,0.08510638,-47.7997,-1732.35,-0.0020986795,0.0038324296,0.0028514862,0.0,0.0,0.0
660.76276,316.45984,77435916,0.725,0.08510638,-128.79315,-1922.3411,-0.0020986795,0.0038324296,0.0028514862,0.0,0.0,0.0
659.02625,291.62744,77435933,0.75,0.10638297,-183.0656,-1848.0094,-0.0020986795,0.0038324296,0.0028514862,0.0,0.0,0.0
655.858,267.62988,77435949,0.75,0.08510638,-229.34152,-1573.5468,-0.0020986795,0.0038324296,0.0028514862,0.0,0.0,0.0
652.73956,246.4159,77435966,0.7375,0.12765957,-249.1356,-1260.5986,-0.0020986795,0.0038324296,0.0028514862,0.0,0.0,0.0
648.87915,227.2799,77435983,0.7375,0.09574468,-263.05576,-1024.7782,-0.017678946,-0.02093406,0.034280777,0.0,0.0,0.0
644.09106,210.56702,77436000,0.75,0.09574468,-300.47488,-932.51764,-0.017678946,-0.02093406,0.034280777,0.0,0.0,0.0
639.9192,201.01062,77436016,0.7625,0.11702127,-303.33264,-683.6646,-0.017678946,-0.02093406,0.034280777,0.0,0.0,0.0
635.7635,196.22766,77436033,0.77500004,0.12765957,-281.5955,-282.75806,-0.017678946,-0.02093406,0.034280777,0.0,0.0,0.0
630.53424,193.49951,77436050,0.77500004,0.10638297,-290.56085,44.3339,-0.017678946,-0.02093406,0.034280777,0.0,0.0,0.0
624.85065,192.68152,77436066,0.7875,0.09574468,-324.7391,217.36292,-0.017678946,-0.02093406,0.034280777,0.0,0.0,0.0
620.0975,195.82935,77436083,0.8,0.08510638,-338.75784,294.13766,-0.017678946,-0.02093406,0.034280777,0.0,0.0,0.0
614.3046,208.23279,77436100,0.7875,0.08510638,-342.00336,568.6715,-0.017678946,-0.02093406,0.034280777,0.0,0.0,0.0
611.2789,230.50916,77436116,0.77500004,0.12765957,-292.161,1174.139,-0.017678946,-0.02093406,0.034280777,0.0,0.0,0.0
611.75964,258.15967,77436133,0.7625,0.08510638,-88.75873,1920.4833,-0.017678946,-0.02093406,0.034280777,0.0,0.0,0.0
614.61707,286.42883,77436150,0.77500004,0.10638297,158.01102,2242.4873,-0.017678946,-0.02093406,0.034280777,0.0,0.0,0.0
618.3979,313.85254,77436167,0.7375,0.08510638,371.66467,2136.0696,-0.017678946,-0.02093406,0.034280777,0.0,0.0,0.0
624.5072,340.39282,77436183,0.75,0.10638297,471.1502,1776.5734,-0.017678946,-0.02093406,0.034280777,0.0,0.0,0.0
632.4293,365.09607,77436200,0.75,0.08510638,530.8941,1540.3849,-0.017678946,-0.02093406,0.034280777,0.0,0.0,0.0
640.275,383.71973,77436217,0.7375,0.09574468,587.7942,1293.1012,-0.017678946,-0.02093406,0.034280777,0.0,0.0,0.0
646.9814,393.9364,77436233,0.71250004,0.12765957,567.13684,819.4165,-0.017678946,-0.02093406,0.034280777,0.0,0.0,0.0
655.45087,407.1006,77436250,0.7,0.08510638,512.8676,466.24768,-0.017678946,-0.02093406,0.034280777,0.0,0.0,0.0
663.69104,418.1266,77436267,0.71250004,0.06382979,495.81238,356.73486,-0.017678946,-0.02093406,0.034280777,0.0,0.0,0.0
670.971,427.2611,77436284,0.71250004,0.08510638,481.77136,403.29755,-0.017678946,-0.02093406,0.034280777,0.0,0.0,0.0
676.45734,433.32336,77436300,0.7,0.08510638,411.263,410.59866,-0.017678946,-0.02093406,0.034280777,0.0,0.0,0.0
680.28906,437.651,77436317,0.7,0.10638297,272.57962,253.75194,-0.017678946,-0.02093406,0.034280777,0.0,0.0,0.0
682.6979,440.07837,77436334,0.6875,0.10638297,119.06169,59.35336,-0.017678946,-0.02093406,0.034280777,0.0,0.0,0.0
684.7775,441.92676,77436350,0.675,0.10638297,38.08481,-19.881132,-0.017678946,-0.02093406,0.034280777,0.0,0.0,0.0
686.5549,443.77344,77436367,0.7,0.10638297,24.506542,-14.290167,-0.017678946,-0.02093406,0.034280777,0.0,0.0,0.0
688.09,445.01648,77436384,0.6875,0.11702127,42.92403,23.883484,-0.017678946,-0.02093406,0.034280777,0.0,0.0,0.0
689.13074,445.01648,77436401,0.6875,0.11702127,48.06808,13.2255,-0.017678946,-0.02093406,0.034280777,0.0,0.0,0.0
690.66626,445.01648,77436417,0.6875,0.12765957,58.35692,-23.641832,-0.017678946,-0.02093406,0.034280777,0.0,0.0,0.0
692.21234,445.01648,77436434,0.6875,0.11702127,72.4776,-52.489754,-0.017678946,-0.02093406,0.034280777,0.0,0.0,0.0
694.25183,445.01648,77436451,0.675,0.11702127,102.064064,-40.809517,-0.017678946,-0.02093406,0.034280777,0.0,0.0,0.0
695.8324,445.01648,77436467,0.675,0.11702127,114.231,-8.784356,-0.017678946,-0.02093406,0.034280777,0.0,0.0,0.0
698.4928,445.01648,77436484,0.675,0.09574468,137.17982,0.0050657913,-0.017678946,-0.02093406,0.034280777,0.0,0.0,0.0
700.48083,445.01648,77436501,0.675,0.08510638,146.69612,-0.034097195,-0.017678946,-0.02093406,0.034280777,0.0,0.0,0.0
702.7108,444.74292,77436518,0.6875,0.08510638,147.18164,-3.7972405,-0.014143139,0.007252753,0.04342556,0.0,0.0,0.0
705.14026,443.2395,77436534,0.6875,0.08510638,150.28064,-52.220634,-0.014143139,0.007252753,0.04342556,0.0,0.0,0.0
707.22034,443.2395,77436551,0.7,0.08510638,132.03969,-63.882744,-0.014143139,0.007252753,0.04342556,0.0,0.0,0.0
709.0266,443.2395,77436568,0.6875,0.08510638,121.392746,-31.493593,-0.014143139,0.007252753,0.04342556,0.0,0.0,0.0
710.06445,442.6748,77436584,0.6875,0.08510638,81.076584,0.29532576,-0.014143139,0.007252753,0.04342556,0.0,0.0,0.0
711.45984,442.35095,77436601,0.6875,0.08510638,46.97657,-1.1926248,-0.014143139,0.007252753,0.04342556,0.0,0.0,0.0
713.14514,442.35095,77436618,0.625,0.10638297,65.91052,-17.748528,-0.014143139,0.007252753,0.04342556,0.0,0.0,0.0
713.24567,442.35095,77436619,0.3,0.10638297,68.82176,-15.302318,-0.014143139,0.007252753,0.04342556,0.0,0.0,0.0
713.24567,442.35095,77436627,0.3,0.10638297,68.82176,-15.302318,-0.014143139,0.007252753,0.04342556,0.0,0.0,0.0
829.20795,321.51453,77437633,0.625,0.06382979,0.0,0.0,0.0069484115,0.0046417564,-0.004207611,0.0,0.0,0.0
829.20795,321.51453,77437654,0.65000004,0.06382979,-0.26382554,-0.10549366,0.0069484115,0.0046417564,-0.004207611,0.0,0.0,0.0
829.20795,321.51453,77437669,0.7,0.07446808,0.02623033,0.011937827,0.0069484115,0.0046417564,-0.004207611,0.0,0.0,0.0
829.20795,321.51453,77437687,0.6875,0.07446808,0.0240065,0.010494153,0.0069484115,0.0046417564,-0.004207611,0.0,0.0,0.0
829.20795,321.51453,77437704,0.7,0.08510638,-0.010178482,-0.0047975043,0.0069484115,0.0046417564,-0.004207611,0.0,0.0,0.0
829.20795,321.51453,77437719,0.71250004,0.08510638,0.028426707,0.009208632,0.0069484115,0.0046417564,-0.004207611,0.0,0.0,0.0
829.20795,321.51453,77437737,0.71250004,0.08510638,0.06321955,0.024955329,0.0069484115,0.0046417564,-0.004207611,0.0,0.0,0.0
805.3646,333.47754,77437754,0.71250004,0.09574468,-704.06683,354.16437,0.0069484115,0.0046417564,-0.004207611,0.0,0.0,0.0
797.26624,339.03064,77437771,0.725,0.10638297,-1106.9497,602.25586,0.0069484115,0.0046417564,-0.004207611,0.0,0.0,0.0
790.1265,346.8003,77437787,0.7375,0.09574468,-945.68866,636.0435,0.0069484115,0.0046417564,-0.004207611,0.0,0.0,0.0
783.6593,361.50146,77437804,0.725,0.08510638,-615.0511,775.5572,0.0069484115,0.0046417564,-0.004207611,0.0,0.0,0.0
780.99567,375.8828,77437821,0.725,0.08510638,10.338956,893.358,0.0069484115,0.0046417564,-0.004207611,0.0,0.0,0.0
780.7237,390.6665,77437838,0.7375,0.10638297,-9.812086,1112.9761,0.0069484115,0.0046417564,-0.004207611,0.0,0.0,0.0
782.10956,404.26636,77437854,0.7375,0.09574468,169.58934,1036.1113,0.0069484115,0.0046417564,-0.004207611,0.0,0.0,0.0
786.01105,415.57788,77437871,0.71250004,0.08510638,332.15704,787.10077,0.0069484115,0.0046417564,-0.004207611,0.0,0.0,0.0
791.03674,427.32275,77437888,0.71250004,0.07446808,402.5307,624.67206,0.0069484115,0.0046417564,-0.004207611,0.0,0.0,0.0
795.1664,433.69983,77437904,0.725,0.08510638,399.46817,466.30054,0.0069484115,0.0046417564,-0.004207611,0.0,0.0,0.0
803.36346,441.18384,77437921,0.71250004,0.11702127,440.09772,316.67972,0.0069484115,0.0046417564,-0.004207611,0.0,0.0,0.0
814.693,448.55786,77437938,0.7,0.12765957,610.0067,309.56296,0.0069484115,0.0046417564,-0.004207611,0.0,0.0,0.0
827.9025,451.3241,77437954,0.7,0.10638297,840.2455,232.65054,0.0069484115,0.0046417564,-0.004207611,0.0,0.0,0.0
839.8242,449.12732,77437971,0.675,0.10638297,941.7913,-0.7277184,0.0069484115,0.0046417564,-0.004207611,0.0,0.0,0.0
849.5472,444.29895,77437988,0.6875,0.09574468,825.46875,-305.3086,0.0069484115,0.0046417564,-0.004207611,0.0,0.0,0.0
861.26355,433.24036,77438005,0.6625,0.08510638,680.8985,-702.60266,0.0069484115,0.0046417564,-0.004207611,0.0,0.0,0.0
868.6189,423.6621,77438021,0.675,0.10638297,537.207,-887.01324,0.0069484115,0.0046417564,-0.004207611,0.0,0.0,0.0
875.39044,412.67932,77438038,0.675,0.10638297,400.96835,-867.3548,0.0069484115,0.0046417564,-0.004207611,0.0,0.0,0.0
883.9641,396.0249,77438055,0.7,0.08510638,382.98553,-962.8996,0.0069484115,0.0046417564,-0.004207611,0.0,0.0,0.0
887.83905,383.21985,77438072,0.675,0.06382979,290.92462,-965.67773,0.0069484115,0.0046417564,-0.004207611,0.0,0.0,0.0
888.68854,373.27576,77438088,0.6875,0.08510638,124.28368,-848.1922,0.0069484115,0.0046417564,-0.004207611,0.0,0.0,0.0
888.2763,364.7854,77438105,0.7,0.09574468,-94.95171,-586.9757,0.06955874,0.0037133992,-0.0033664703,0.0,0.0,0.0
885.8316,358.2799,77438122,0.7,0.10638297,-271.01816,-312.06735,0.06955874,0.0037133992,-0.0033664703,0.0,0.0,0.0
882.70233,353.51465,77438138,0.7,0.12765957,-333.95987,-183.54967,0.06955874,0.0037133992,-0.0033664703,0.0,0.0,0.0
878.7386,348.2196,77438155,0.725,0.11702127,-321.81067,-170.23715,0.06955874,0.0037133992,-0.0033664703,0.0,0.0,0.0
871.5255,342.39307,77438172,0.6875,0.09574468,-403.18695,-233.47691,0.06955874,0.0037133992,-0.0033664703,0.0,0.0,0.0
864.8529,339.95898,77438189,0.71250004,0.10638297,-484.993,-210.20044,0.06955874,0.0037133992,-0.0033664703,0.0,0.0,0.0
858.09845,339.28455,77438205,0.725,0.10638297,-513.235,-99.90144,0.06955874,0.0037133992,-0.0033664703,0.0,0.0,0.0
851.2571,339.28455,77438222,0.725,0.09574468,-500.92203,41.53682,0.06955874,0.0037133992,-0.0033664703,0.0,0.0,0.0
846.5052,340.1731,77438239,0.7375,0.10638297,-367.6109,159.06947,0.06955874,0.0037133992,-0.0033664703,0.0,0.0,0.0
843.6564,340.1731,77438255,0.7375,0.10638297,-218.55666,118.64359,0.06955874,0.0037133992,-0.0033664703,0.0,0.0,0.0
841.8896,340.73145,77438272,0.725,0.10638297,-74.29592,55.64227,0.06955874,0.0037133992,-0.0033664703,0.0,0.0,0.0
840.9541,341.06165,77438289,0.71250004,0.10638297,32.154854,31.265198,0.06955874,0.0037133992,-0.0033664703,0.0,0.0,0.0
841.9952,341.95007,77438306,0.71250004,0.10638297,95.11765,39.436054,0.06955874,0.0037133992,-0.0033664703,0.0,0.0,0.0
847.3199,342.83862,77438322,0.7,0.12765957,236.53397,57.528996,0.06955874,0.0037133992,-0.0033664703,0.0,0.0,0.0
856.91425,341.9961,77438339,0.71250004,0.12765957,511.77582,24.4647,0.06955874,0.0037133992,-0.0033664703,0.0,0.0,0.0
872.4652,336.49854,77438356,0.71250004,0.08510638,928.34076,-186.01186,0.06955874,0.0037133992,-0.0033664703,0.0,0.0,0.0
888.0285,328.0896,77438372,0.6875,0.06382979,1194.3622,-463.56134,0.06955874,0.0037133992,-0.0033664703,0.0,0.0,0.0
903.0056,319.72266,77438389,0.6625,0.08510638,1194.5753,-690.7408,0.06955874,0.0037133992,-0.0033664703,0.0,0.0,0.0
916.7172,312.4038,77438406,0.6875,0.09574468,1053.1625,-688.79315,0.06955874,0.0037133992,-0.0033664703,0.0,0.0,0.0
927.51495,308.34912,77438422,0.675,0.09574468,786.1582,-487.3831,0.06955874,0.0037133992,-0.0033664703,0.0,0.0,0.0
931.67456,306.41003,77438436,0.3,0.12765957,529.22974,-274.7462,0.06955874,0.0037133992,-0.0033664703,0.0,0.0,0.0
931.67456,306.41003,77438443,0.3,0.12765957,529.22974,-274.7462,0.06955874,0.0037133992,-0.0033664703,0.0,0.0,0.0
996.65344,333.06506,77439518,0.6375,0.08510638,0.0,0.0,-0.041882396,-8.2342327E-4,0.004245758,0.0,0.0,0.0
996.65344,333.06506,77439542,0.65000004,0.08510638,0.062613085,0.020636339,-0.041882396,-8.2342327E-4,0.004245758,0.0,0.0,0.0
996.65344,333.06506,77439559,0.6875,0.08510638,3.8636755E-4,-0.0023755257,-0.041882396,-8.2342327E-4,0.004245758,0.0,0.0,0.0
996.65344,333.06506,77439576,0.6875,0.09574468,-0.043203242,-0.014389786,-0.041882396,-8.2342327E-4,0.004245758,0.0,0.0,0.0
978.06616,336.18872,77439609,0.6875,0.11702127,-605.0891,102.66407,-0.041882396,-8.2342327E-4,0.004245758,0.0,0.0,0.0
968.2759,339.45642,77439626,0.7,0.10638297,-844.0923,183.22893,-0.041882396,-8.2342327E-4,0.004245758,0.0,0.0,0.0
958.15393,345.2151,77439642,0.71250004,0.10638297,-806.67816,321.66083,-0.041882396,-8.2342327E-4,0.004245758,0.0,0.0,0.0
947.37787,352.64172,77439659,0.725,0.09574468,-697.08405,478.66867,-0.041882396,-8.2342327E-4,0.004245758,0.0,0.0,0.0
935.6065,363.99585,77439676,0.725,0.08510638,-703.0445,697.3801,-0.041882396,-8.2342327E-4,0.004245758,0.0,0.0,0.0
925.99115,377.00085,77439692,0.7,0.09574468,-687.04865,873.4725,-0.041882396,-8.2342327E-4,0.004245758,0.0,0.0,0.0
914.69806,400.5515,77439709,0.7,0.12765957,-683.9744,1243.1748,-0.0015059114,-6.5873563E-4,-0.01260376,0.0,0.0,0.0
907.9306,420.0697,77439726,0.7,0.07446808,-518.817,1471.8162,-0.0015059114,-6.5873563E-4,-0.01260376,0.0,0.0,0.0
905.01715,433.6101,77439743,0.7,0.10638297,-277.49612,1322.3844,-0.0015059114,-6.5873563E-4,-0.01260376,0.0,0.0,0.0
904.68335,446.39368,77439759,0.7,0.12765957,8.109327,950.3386,-0.0015059114,-6.5873563E-4,-0.01260376,0.0,0.0,0.0
904.68335,457.74316,77439776,0.6875,0.10638297,188.14957,584.8776,-0.0015059114,-6.5873563E-4,-0.01260376,0.0,0.0,0.0
907.7849,465.63428,77439793,0.6875,0.08510638,297.079,371.4376,-0.0015059114,-6.5873563E-4,-0.01260376,0.0,0.0,0.0
911.38794,472.0697,77439809,0.675,0.08510638,304.33224,318.52744,-0.0015059114,-6.5873563E-4,-0.01260376,0.0,0.0,0.0
919.0139,478.01025,77439826,0.6625,0.07446808,419.9843,253.15105,-0.0015059114,-6.5873563E-4,-0.01260376,0.0,0.0,0.0
930.087,480.55664,77439843,0.675,0.06382979,662.84985,151.3136,-0.0015059114,-6.5873563E-4,-0.01260376,0.0,0.0,0.0
939.5204,478.4027,77439860,0.65000004,0.08510638,796.3617,-70.88374,-0.0015059114,-6.5873563E-4,-0.01260376,0.0,0.0,0.0
948.66724,470.78467,77439876,0.6625,0.09574468,751.30334,-411.4201,-0.0015059114,-6.5873563E-4,-0.01260376,0.0,0.0,0.0
955.2883,460.7937,77439893,0.6625,0.12765957,563.32056,-759.7216,-0.0015059114,-6.5873563E-4,-0.01260376,0.0,0.0,0.0
964.20105,444.2118,77439910,0.675,0.09574468,402.87408,-1041.9365,-0.0015059114,-6.5873563E-4,-0.01260376,0.0,0.0,0.0
970.3396,429.81116,77439926,0.675,0.09574468,373.6412,-1203.64,-0.0015059114,-6.5873563E-4,-0.01260376,0.0,0.0,0.0
976.5619,415.56384,77439943,0.675,0.12765957,360.9341,-1128.358,-0.0015059114,-6.5873563E-4,-0.01260376,0.0,0.0,0.0
980.4542,400.07947,77439960,0.6875,0.11702127,284.87585,-1055.163,-0.0015059114,-6.5873563E-4,-0.01260376,0.0,0.0,0.0
981.7849,394.58496,77439977,0.6875,0.09574468,131.82625,-708.014,-0.0015059114,-6.5873563E-4,-0.01260376,0.0,0.0,0.0
982.1581,390.13318,77439993,0.7,0.09574468,-37.215435,-291.5495,-0.0015059114,-6.5873563E-4,-0.01260376,0.0,0.0,0.0
981.4509,388.67224,77440010,0.7,0.09574468,-132.24677,22.600758,-0.0015059114,-6.5873563E-4,-0.01260376,0.0,0.0,0.0
980.4169,388.15222,77440027,0.71250004,0.09574468,-178.04086,222.05078,-0.0015059114,-6.5873563E-4,-0.01260376,0.0,0.0,0.0
979.44006,388.15222,77440043,0.71250004,0.09574468,-124.341995,150.7715,-0.0015059114,-6.5873563E-4,-0.01260376,0.0,0.0,0.0
978.6593,391.6604,77440060,0.7,0.12765957,-95.715164,191.0128,-0.0015059114,-6.5873563E-4,-0.01260376,0.0,0.0,0.0
979.0332,400.13757,77440077,0.7,0.12765957,-30.098253,406.29077,-0.0015059114,-6.5873563E-4,-0.01260376,0.0,0.0,0.0
981.31006,413.26,77440093,0.7,0.09574468,71.39919,753.9418,-0.0015059114,-6.5873563E-4,-0.01260376,0.0,0.0,0.0
985.8722,433.14014,77440110,0.7,0.08510638,235.99435,1197.1777,-0.0015059114,-6.5873563E-4,-0.01260376,0.0,0.0,0.0
993.6395,461.84155,77440127,0.6875,0.10638297,448.25607,1732.205,-0.0015059114,-6.5873563E-4,-0.01260376,0.0,0.0,0.0
999.85,482.14722,77440144,0.6375,0.08510638,554.1312,1854.459,-0.0015059114,-6.5873563E-4,-0.01260376,0.0,0.0,0.0
1005.0325,501.73193,77440160,0.625,0.10638297,493.3498,1590.6012,-0.0015059114,-6.5873563E-4,-0.01260376,0.0,0.0,0.0
1010.2472,519.99963,77440177,0.575,0.08510638,369.2377,1215.3046,-0.0015059114,-6.5873563E-4,-0.01260376,0.0,0.0,0.0
1015.02747,535.6085,77440194,0.5625,0.07446808,262.15308,848.1698,-0.0015059114,-6.5873563E-4,-0.01260376,0.0,0.0,0.0
1022.17786,552.47314,77440210,0.52500004,0.12765957,295.13028,815.0632,-0.0015059114,-6.5873563E-4,-0.01260376,0.0,0.0,0.0
1031.7297,570.78467,77440227,0.4875,0.09574468,496.54355,963.21497,-0.0015059114,-6.5873563E-4,-0.01260376,0.0,0.0,0.0
1040.2977,586.57007,77440244,0.4375,0.08510638,635.7475,1067.0062,-0.049204737,0.0074730217,-0.042082787,0.0,0.0,0.0
1047.5404,598.88086,77440261,0.4375,0.09574468,600.3145,923.74286,-0.049204737,0.0074730217,-0.042082787,0.0,0.0,0.0
1053.9011,613.2623,77440277,0.4,0.10638297,439.07114,673.0331,-0.049204737,0.0074730217,-0.042082787,0.0,0.0,0.0
1060.536,630.2987,77440294,0.375,0.08510638,309.38437,741.7388,-0.049204737,0.0074730217,-0.042082787,0.0,0.0,0.0
1059.8008,639.0021,77440311,0.2875,0.053191487,143.07292,739.57794,-0.049204737,0.0074730217,-0.042082787,0.0,0.0,0.0
1056.7206,643.11426,77440327,0.2875,0.053191487,-126.09458,554.74146,-0.049204737,0.0074730217,-0.042082787,0.0,0.0,0.0
1050.5131,645.8495,77440344,0.3625,0.08510638,-464.64154,74.35921,-0.049204737,0.0074730217,-0.042082787,0.0,0.0,0.0
1039.3959,647.7053,77440361,0.375,0.09574468,-753.79645,-175.98753,-0.049204737,0.0074730217,-0.042082787,0.0,0.0,0.0
1027.9569,649.54785,77440378,0.375,0.07446808,-907.3431,-136.09799,-0.049204737,0.0074730217,-0.042082787,0.0,0.0,0.0
1018.53613,649.3722,77440394,0.38750002,0.06382979,-853.122,-42.097084,-0.049204737,0.0074730217,-0.042082787,0.0,0.0,0.0
997.3104,648.1229,77440411,0.4375,0.07446808,-1081.0934,-68.479614,-0.049204737,0.0074730217,-0.042082787,0.0,0.0,0.0
978.00574,644.6725,77440428,0.4375,0.08510638,-1262.1633,-179.74449,-0.049204737,0.0074730217,-0.042082787,0.0,0.0,0.0
964.3451,639.1211,77440444,0.5125,0.08510638,-1235.8492,-361.45428,-0.049204737,0.0074730217,-0.042082787,0.0,0.0,0.0
952.119,634.46814,77440461,0.55,0.09574468,-928.126,-427.64548,-0.049204737,0.0074730217,-0.042082787,0.0,0.0,0.0
939.72064,626.89954,77440478,0.575,0.12765957,-589.15576,-471.19016,-0.049204737,0.0074730217,-0.042082787,0.0,0.0,0.0
929.3258,618.52185,77440494,0.6,0.12765957,-521.8814,-524.9122,-0.049204737,0.0074730217,-0.042082787,0.0,0.0,0.0
920.01324,609.3253,77440511,0.6125,0.09574468,-506.6356,-590.5441,-0.049204737,0.0074730217,-0.042082787,0.0,0.0,0.0
914.883,600.8651,77440528,0.625,0.07446808,-402.1538,-633.6666,-0.049204737,0.0074730217,-0.042082787,0.0,0.0,0.0
909.7035,587.2351,77440545,0.6125,0.08510638,-214.85417,-716.55774,-0.049204737,0.0074730217,-0.042082787,0.0,0.0,0.0
909.1819,577.9907,77440561,0.6375,0.12765957,-30.360542,-712.00854,-0.049204737,0.0074730217,-0.042082787,0.0,0.0,0.0
910.2807,568.0781,77440578,0.625,0.11702127,135.7802,-673.53186,-0.049204737,0.0074730217,-0.042082787,0.0,0.0,0.0
912.4192,562.552,77440595,0.6375,0.09574468,260.34418,-484.94153,-0.049204737,0.0074730217,-0.042082787,0.0,0.0,0.0
920.4088,555.1074,77440611,0.6375,0.08510638,435.6673,-331.6995,-0.049204737,0.0074730217,-0.042082787,0.0,0.0,0.0
933.04504,550.4159,77440628,0.6375,0.08510638,742.3258,-247.28172,-0.049204737,0.0074730217,-0.042082787,0.0,0.0,0.0
946.4491,551.1599,77440645,0.6125,0.08510638,1000.5294,-69.79308,-0.049204737,0.0074730217,-0.042082787,0.0,0.0,0.0
962.6041,555.7523,77440662,0.5125,0.12765957,1133.2433,234.06284,-0.049204737,0.0074730217,-0.042082787,0.0,0.0,0.0
970.162,557.85645,77440674,0.275,0.12765957,1142.1278,395.04327,-0.049204737,0.0074730217,-0.042082787,0.0,0.0,0.0
970.162,557.85645,77440680,0.275,0.12765957,1142.1278,395.04327,-0.049204737,0.0074730217,-0.042082787,0.0,0.0,0.0
1037.64,503.6577,77441472,0.52500004,0.10638297,0.0,0.0,-0.005891025,-0.014417276,0.056266785,0.0,0.0,0.0
1037.64,503.6577,77441497,0.6,0.11702127,0.05946939,0.030518917,-0.005891025,-0.014417276,0.056266785,0.0,0.0,0.0
1037.64,503.6577,77441509,0.625,0.09574468,-0.015432967,-0.0051434464,-0.005891025,-0.014417276,0.056266785,0.0,0.0,0.0
1037.64,503.6577,77441547,0.625,0.08510638,0.04771812,0.022497702,-0.005891025,-0.014417276,0.056266785,0.0,0.0,0.0
1036.1405,483.15552,77441564,0.625,0.09574468,-48.911358,-619.85944,-0.005891025,-0.014417276,0.056266785,0.0,0.0,0.0
1038.0419,466.32935,77441581,0.6375,0.12765957,-6.2477283,-1375.4502,-0.005891025,-0.014417276,0.056266785,0.0,0.0,0.0
1042.0168,443.88843,77441597,0.6375,0.07446808,152.14088,-1747.0133,-0.005891025,-0.014417276,0.056266785,0.0,0.0,0.0
1045.1453,417.1997,77441614,0.65000004,0.09574468,327.85403,-1700.3171,-0.005891025,-0.014417276,0.056266785,0.0,0.0,0.0
1049.8156,381.83057,77441631,0.6625,0.06382979,364.46255,-2069.7668,-0.005891025,-0.014417276,0.056266785,0.0,0.0,0.0
1053.909,343.42004,77441648,0.6875,0.10638297,328.4936,-2378.0244,-0.005891025,-0.014417276,0.056266785,0.0,0.0,0.0
1057.639,305.44995,77441664,0.7,0.10638297,267.21255,-2656.4902,-0.005891025,-0.014417276,0.056266785,0.0,0.0,0.0
1060.2715,265.6715,77441681,0.6875,0.08510638,207.42455,-2656.5508,-0.005891025,-0.014417276,0.056266785,0.0,0.0,0.0
1061.2213,229.66101,77441698,0.6875,0.08510638,104.03864,-2440.4846,-0.005891025,-0.014417276,0.056266785,0.0,0.0,0.0
1060.0103,208.05688,77441714,0.7,0.09574468,-44.540337,-1839.0037,-0.005891025,-0.014417276,0.056266785,0.0,0.0,0.0
1057.182,187.60815,77441731,0.71250004,0.09574468,-193.23787,-1200.789,-0.005891025,-0.014417276,0.056266785,0.0,0.0,0.0
1053.3788,174.12048,77441748,0.71250004,0.08510638,-298.68314,-626.0956,-0.005891025,-0.014417276,0.056266785,0.0,0.0,0.0
1050.1815,165.70349,77441765,0.71250004,0.06382979,-329.0502,-214.06851,-0.005891025,-0.014417276,0.056266785,0.0,0.0,0.0
1048.122,162.01514,77441781,0.725,0.08510638,-236.14896,-11.373315,-0.005891025,-0.014417276,0.056266785,0.0,0.0,0.0
1045.9968,160.12634,77441798,0.7375,0.08510638,-138.57133,182.17319,-0.005891025,-0.014417276,0.056266785,0.0,0.0,0.0
1043.6068,160.41785,77441815,0.7375,0.08510638,-87.136215,233.692,-0.005891025,-0.014417276,0.056266785,0.0,0.0,0.0
1039.9827,171.30396,77441831,0.7375,0.11702127,-141.63548,471.80588,-0.005891025,-0.014417276,0.056266785,0.0,0.0,0.0
1039.5737,197.15063,77441848,0.725,0.11702127,-152.84589,1197.4872,-0.00471282,0.004466176,0.045013428,0.0,0.0,0.0
1040.618,230.99329,77441865,0.71250004,0.08510638,-20.790966,2141.9084,-0.00471282,0.004466176,0.045013428,0.0,0.0,0.0
1043.178,265.35547,77441882,0.6875,0.08510638,163.54968,2736.2947,-0.00471282,0.004466176,0.045013428,0.0,0.0,0.0
1046.8887,297.76038,77441898,0.7,0.08510638,297.01028,2686.7952,-0.00471282,0.004466176,0.045013428,0.0,0.0,0.0
1051.0344,326.83667,77441915,0.71250004,0.09574468,343.47018,2222.9321,-0.00471282,0.004466176,0.045013428,0.0,0.0,0.0
1056.3177,356.5006,77441932,0.6875,0.08510638,356.80844,1802.1725,-0.00471282,0.004466176,0.045013428,0.0,0.0,0.0
1061.5934,380.302,77441948,0.6625,0.08510638,372.53235,1493.5774,-0.00471282,0.004466176,0.045013428,0.0,0.0,0.0
1066.9432,407.06226,77441965,0.65000004,0.09574468,379.68494,1415.4304,-0.00471282,0.004466176,0.045013428,0.0,0.0,0.0
1070.0703,427.03625,77441982,0.625,0.07446808,285.59497,1265.1748,-0.00471282,0.004466176,0.045013428,0.0,0.0,0.0
1074.3104,442.9989,77441999,0.6,0.12765957,215.3614,979.64197,-0.00471282,0.004466176,0.045013428,0.0,0.0,0.0
1078.1377,453.63098,77442015,0.5375,0.12765957,189.24542,624.5838,-0.00471282,0.004466176,0.045013428,0.0,0.0,0.0
1080.0035,458.12598,77442032,0.5125,0.11702127,146.51878,191.28268,-0.00471282,0.004466176,0.045013428,0.0,0.0,0.0
1081.4471,458.344,77442049,0.52500004,0.12765957,92.14025,-156.08649,-0.00471282,0.004466176,0.045013428,0.0,0.0,0.0
1083.0311,455.84583,77442065,0.55,0.12765957,29.229063,-407.36563,-0.00471282,0.004466176,0.045013428,0.0,0.0,0.0
1087.6167,441.49072,77442082,0.575,0.08510638,100.91551,-775.5436,-0.00471282,0.004466176,0.045013428,0.0,0.0,0.0
1092.82,425.79565,77442099,0.6125,0.10638297,281.44308,-1167.5637,-0.00471282,0.004466176,0.045013428,0.0,0.0,0.0
1098.0261,411.8767,77442115,0.625,0.10638297,390.3334,-1293.0967,-0.00471282,0.004466176,0.045013428,0.0,0.0,0.0
1104.2655,393.1902,77442132,0.6375,0.08510638,433.2712,-1328.9082,-0.00471282,0.004466176,0.045013428,0.0,0.0,0.0
1108.182,384.14844,77442149,0.6375,0.06382979,363.51523,-997.0088,-0.00471282,0.004466176,0.045013428,0.0,0.0,0.0
1112.8776,376.1361,77442166,0.625,0.08510638,277.38885,-574.1627,-0.00471282,0.004466176,0.045013428,0.0,0.0,0.0
1117.2468,370.46558,77442182,0.65000004,0.08510638,234.33237,-264.57495,-0.00471282,0.004466176,0.045013428,0.0,0.0,0.0
1121.7194,367.2251,77442199,0.6625,0.08510638,241.29242,-33.14921,-0.00471282,0.004466176,0.045013428,0.0,0.0,0.0
1124.2408,366.82825,77442216,0.65000004,0.07446808,224.14584,40.111805,-0.00471282,0.004466176,0.045013428,0.0,0.0,0.0
1125.8239,368.9828,77442232,0.6625,0.08510638,115.29431,188.25746,-0.00471282,0.004466176,0.045013428,0.0,0.0,0.0
1129.65,375.78406,77442249,0.65000004,0.08510638,78.89569,429.59216,-0.00471282,0.004466176,0.045013428,0.0,0.0,0.0
1132.3859,384.693,77442266,0.65000004,0.09574468,127.45175,624.6118,-0.00471282,0.004466176,0.045013428,0.0,0.0,0.0
1136.5089,396.7296,77442283,0.65000004,0.12765957,215.44994,836.7622,-0.00471282,0.004466176,0.045013428,0.0,0.0,0.0
1139.6469,409.61853,77442299,0.625,0.09574468,246.7276,946.08344,-0.00471282,0.004466176,0.045013428,0.0,0.0,0.0
1143.2958,420.58875,77442316,0.55,0.07446808,233.2413,917.3868,-0.00471282,0.004466176,0.045013428,0.0,0.0,0.0
1148.7067,427.07202,77442333,0.5625,0.08510638,263.8538,649.35724,-0.00471282,0.004466176,0.045013428,0.0,0.0,0.0
1153.3732,430.45984,77442349,0.5375,0.08510638,307.74188,289.59085,-0.00471282,0.004466176,0.045013428,0.0,0.0,0.0
1156.6238,431.99854,77442366,0.55,0.06382979,290.73798,-7.2278166,-0.00471282,0.004466176,0.045013428,0.0,0.0,0.0
1161.4987,430.0902,77442383,0.5625,0.06382979,267.52954,-208.757,0.012229741,-0.012427062,0.020010948,0.0,0.0,0.0
1166.3538,425.9038,77442400,0.55,0.08510638,274.05637,-315.44202,0.012229741,-0.012427062,0.020010948,0.0,0.0,0.0
1170.2671,418.42737,77442416,0.5625,0.10638297,264.49634,-509.49716,0.012229741,-0.012427062,0.020010948,0.0,0.0,0.0
1176.4122,407.13538,77442433,0.55,0.10638297,303.3691,-729.6216,0.012229741,-0.012427062,0.020010948,0.0,0.0,0.0
1183.0558,394.67578,77442450,0.52500004,0.08510638,383.71753,-917.39044,0.012229741,-0.012427062,0.020010948,0.0,0.0,0.0
1183.5925,393.48328,77442452,0.3,0.09574468,387.71094,-918.9582,0.012229741,-0.012427062,0.020010948,0.0,0.0,0.0
1183.5925,393.48328,77442460,0.3,0.09574468,387.71094,-918.9582,0.012229741,-0.012427062,0.020010948,0.0,0.0,0.0
