x,y,timestamp,pressure,fingerarea,velocityx,velocityy,accelx,accely,accelz,gyrox,gyroy,gyroz
303.87894,190.01599,130247142,1.0500001,0.12765957,0.0,0.0,0.0015797019,0.022456706,0.019936562,0.0,0.0,0.0
303.87894,190.01599,130247174,1.0625,0.10638297,-7.177409E-5,-0.0018402404,0.0015797019,0.022456706,0.019936562,0.0,-0.0,0.0
317.62497,227.60803,130247191,0.875,0.11702127,985.2462,2694.3838,0.0015797019,0.022456706,0.019936562,0.0,-0.0,0.0
334.26663,271.31702,130247207,0.8625,0.08510638,1392.6042,3697.6306,0.0015797019,0.022456706,0.019936562,0.0,-0.0,0.0
351.94516,314.4192,130247224,0.8625,0.06382979,1511.8453,3879.4592,0.0015797019,0.022456706,0.019936562,0.0,-0.0,0.0
364.8358,346.17078,130247241,0.8875,0.12765957,1396.3407,3509.9167,0.0015797019,0.022456706,0.019936562,0.0,0.0,0.0
378.35468,378.823,130247257,0.925,0.08510638,1052.4883,2545.3208,0.0015797019,0.022456706,0.019936562,0.0,0.0,0.0
386.8261,393.43738,130247274,0.9375,0.10638297,601.4301,1235.5359,0.0015797019,0.022456706,0.019936562,0.0,0.0,0.0
400.8061,415.56543,130247291,0.90000004,0.08510638,543.5208,737.8194,0.0015797019,0.022456706,0.019936562,0.0,0.0,0.0
413.8998,434.1255,130247308,0.8625,0.11702127,688.4509,748.80615,0.0015797019,0.022456706,0.019936562,0.0,0.0,0.0
428.70215,448.59558,130247324,0.8125,0.12765957,870.24286,772.9995,0.0015797019,0.022456706,0.019936562,0.0,0.0,0.0
437.92264,456.8474,130247341,0.825,0.09574468,818.29865,601.60596,0.0015797019,0.022456706,0.019936562,0.0,0.0,0.0
444.49408,461.6571,130247358,0.7875,0.08510638,537.03845,225.8423,0.0015797019,0.022456706,0.019936562,0.0,0.0,0.0
448.26447,463.63513,130247374,0.675,0.08510638,193.62202,-123.4683,0.0012637526,-0.02203463,-5.054474E-5,0.0,0.0,0.0
448.3319,463.67505,130247375,0.32500002,0.10638297,181.17902,-112.78736,0.0012637526,-0.02203463,-5.054474E-5,0.0,0.0,0.0
448.3319,463.67505,130247382,0.32500002,0.10638297,181.17902,-112.78736,0.0012637526,-0.02203463,-5.054474E-5,0.0,0.0,0.0
221.40579,176.68848,130247786,1.0625,0.10638297,0.0,0.0,0.0012637526,-0.02203463,-5.054474E-5,0.0,0.0,0.0
232.54541,162.05261,130247826,0.9375,0.08510638,1077.289,-1415.3865,0.0012637526,-0.02203463,-5.054474E-5,0.0,0.0,0.0
254.45493,133.31677,130247842,0.8875,0.09574468,1719.702,-2257.6348,0.0012637526,-0.02203463,-5.054474E-5,0.0,-0.0,0.0
280.49667,106.67151,130247859,0.875,0.08510638,2025.9462,-2341.5334,0.0012637526,-0.02203463,-5.054474E-5,0.0,-0.0,0.0
304.23492,86.82361,130247876,0.875,0.12765957,2062.3335,-2074.0327,0.0012637526,-0.02203463,-5.054474E-5,0.0,-0.0,0.0
331.6568,73.78418,130247892,0.8875,0.09574468,1764.5159,-988.8984,0.0012637526,-0.02203463,-5.054474E-5,0.0,-0.0,0.0
354.52576,69.31482,130247909,0.85,0.10638297,1661.6116,-454.37238,-0.014988989,-0.0096277,-4.005432E-5,0.0,0.0,0.0
381.53738,71.72424,130247926,0.8625,0.10638297,1508.8574,342.44864,-0.014988989,-0.0096277,-4.005432E-5,0.0,0.0,0.0
406.3111,77.249146,130247943,0.8,0.12765957,1571.9314,699.0473,-0.014988989,-0.0096277,-4.005432E-5,0.0,0.0,0.0
426.00952,86.93091,130247959,0.825,0.10638297,1425.0612,895.8869,-0.014988989,-0.0096277,-4.005432E-5,0.0,0.0,0.0
437.24643,97.5061,130247976,0.83750004,0.08510638,968.21454,936.3745,-0.014988989,-0.0096277,-4.005432E-5,0.0,0.0,0.0
445.6031,110.28833,130247993,0.8875,0.08510638,342.3226,910.3807,-0.014988989,-0.0096277,-4.005432E-5,0.0,0.0,0.0
448.3319,126.06799,130248009,0.925,0.10638297,-85.72496,987.5645,-0.014988989,-0.0096277,-4.005432E-5,0.0,0.0,0.0
443.62674,146.3999,130248026,0.925,0.08510638,-377.84723,1170.7008,-0.014988989,-0.0096277,-4.005432E-5,0.0,0.0,0.0
432.80408,171.42126,130248043,0.875,0.12765957,-763.70105,1535.1221,-0.014988989,-0.0096277,-4.005432E-5,0.0,0.0,0.0
420.90067,193.46375,130248060,0.875,0.08510638,-1056.6512,1670.4608,-0.014988989,-0.0096277,-4.005432E-5,0.0,0.0,0.0
412.06784,210.9419,130248076,0.8875,0.08510638,-1031.0586,1437.72,-0.014988989,-0.0096277,-4.005432E-5,0.0,0.0,0.0
406.66913,222.55579,130248093,0.9125,0.09574468,-673.99023,952.6504,-0.014988989,-0.0096277,-4.005432E-5,0.0,0.0,0.0
403.81967,227.06873,130248110,0.95,0.10638297,-258.56348,340.72656,-0.014988989,-0.0096277,-4.005432E-5,0.0,0.0,0.0
402.63745,229.48218,130248126,0.9875,0.10638297,24.066507,-83.4527,-0.014988989,-0.0096277,-4.005432E-5,0.0,0.0,0.0
402.8467,229.99866,130248143,1.0375,0.12765957,130.40892,-247.86172,-0.014988989,-0.0096277,-4.005432E-5,0.0,0.0,0.0
404.58652,229.99866,130248160,1.0375,0.10638297,182.39807,-256.07404,-0.014988989,-0.0096277,-4.005432E-5,0.0,0.0,0.0
409.06326,228.09216,130248176,0.9375,0.08510638,272.99225,-199.5201,-0.014988989,-0.0096277,-4.005432E-5,0.0,0.0,0.0
422.89508,219.22046,130248193,0.83750004,0.08510638,579.16583,-354.32996,-0.014988989,-0.0096277,-4.005432E-5,0.0,0.0,0.0
447.93665,203.28174,130248210,0.825,0.08510638,1279.5962,-824.7274,-0.014988989,-0.0096277,-4.005432E-5,0.0,0.0,0.0
470.81354,189.17297,130248227,0.8125,0.12765957,1853.6238,-1195.1318,-0.014988989,-0.0096277,-4.005432E-5,0.0,0.0,0.0
492.28424,177.80273,130248243,0.825,0.09574468,1900.9908,-1179.4989,-0.014988989,-0.0096277,-4.005432E-5,0.0,0.0,0.0
509.14612,172.16113,130248260,0.8625,0.08510638,1478.0476,-707.3748,-0.014988989,-0.0096277,-4.005432E-5,0.0,0.0,0.0
523.7423,171.35754,130248277,0.85,0.09574468,935.70685,-126.212135,-0.014988989,-0.0096277,-4.005432E-5,0.0,0.0,0.0
537.7236,174.41138,130248293,0.83750004,0.10638297,688.02496,298.3389,-0.014988989,-0.0096277,-4.005432E-5,0.0,0.0,0.0
550.66895,185.58618,130248310,0.825,0.09574468,614.78503,696.76544,-0.014988989,-0.0096277,-4.005432E-5,0.0,0.0,0.0
568.497,220.37878,130248327,0.825,0.08510638,729.58075,1505.2438,-0.014988989,-0.0096277,-4.005432E-5,0.0,0.0,0.0
573.3907,250.78345,130248344,0.825,0.08510638,691.7477,2313.228,-0.014988989,-0.0096277,-4.005432E-5,0.0,0.0,0.0
572.5314,287.42126,130248360,0.85,0.10638297,229.49515,2946.7515,-0.014988989,-0.0096277,-4.005432E-5,0.0,0.0,0.0
567.02765,320.99622,130248377,0.8625,0.06382979,-386.11816,2798.2852,-0.014988989,-0.0096277,-4.005432E-5,0.0,0.0,0.0
559.8641,346.1493,130248394,0.8875,0.10638297,-841.17786,2026.283,-0.014988989,-0.0096277,-4.005432E-5,0.0,0.0,0.0
553.1992,369.52356,130248410,0.875,0.08510638,-841.83655,1310.8298,-0.014988989,-0.0096277,-4.005432E-5,0.0,0.0,0.0
547.71094,386.98267,130248427,0.8625,0.10638297,-600.6193,903.70325,-0.014988989,-0.0096277,-4.005432E-5,0.0,0.0,0.0
542.61456,402.36597,130248444,0.83750004,0.12765957,-360.32544,661.02954,0.0040088,0.040297836,0.031968117,0.0,0.0,0.0
535.7905,417.49902,130248461,0.8625,0.08510638,-318.29974,649.3859,0.0040088,0.040297836,0.031968117,0.0,0.0,0.0
529.922,428.81616,130248477,0.875,0.08510638,-331.16125,573.52423,0.0040088,0.040297836,0.031968117,0.0,0.0,0.0
520.80347,439.9131,130248494,0.8625,0.09574468,-453.62405,543.15137,0.0040088,0.040297836,0.031968117,0.0,0.0,0.0
508.7655,449.56763,130248511,0.875,0.10638297,-624.183,509.59833,0.0040088,0.040297836,0.031968117,0.0,0.0,0.0
499.82867,458.33203,130248527,0.875,0.10638297,-717.75543,443.90976,0.0040088,0.040297836,0.031968117,0.0,0.0,0.0
491.48352,466.19348,130248544,0.8875,0.09574468,-694.97577,445.16,0.0040088,0.040297836,0.031968117,0.0,0.0,0.0
481.84918,475.20056,130248561,0.9125,0.08510638,-576.8868,478.32465,0.0040088,0.040297836,0.031968117,0.0,0.0,0.0
475.3916,481.19434,130248578,0.9125,0.08510638,-477.35968,435.53195,0.0040088,0.040297836,0.031968117,0.0,0.0,0.0
472.17926,484.6836,130248594,0.9125,0.08510638,-252.07652,258.05753,0.0040088,0.040297836,0.031968117,0.0,0.0,0.0
470.9674,485.6338,130248611,0.9125,0.08510638,-32.92287,43.176426,0.0040088,0.040297836,0.031968117,0.0,0.0,0.0
470.32477,486.77612,130248622,0.375,0.08510638,59.826256,-37.654602,0.0040088,0.040297836,0.031968117,0.0,0.0,0.0
470.32477,486.77612,130248628,0.375,0.08510638,59.826256,-37.654602,0.0040088,0.040297836,0.031968117,0.0,0.0,0.0
603.7813,460.1211,130249599,0.9125,0.12765957,0.0,0.0,0.005765617,0.012990624,0.0012598038,0.0,0.0,0.0
603.7813,460.1211,130249630,0.95,0.12765957,-0.00439553,-0.0047410154,0.005765617,0.012990624,0.0012598038,0.0,0.0,0.0
603.7813,460.1211,130249647,0.8875,0.10638297,0.037167683,0.027600778,0.005765617,0.012990624,0.0012598038,0.0,0.0,0.0
613.35284,422.58276,130249664,0.8125,0.10638297,467.29147,-1864.2516,0.005765617,0.012990624,0.0012598038,0.0,0.0,0.0
628.97955,387.5923,130249680,0.77500004,0.07446808,932.1569,-2681.7825,0.005765617,0.012990624,0.0012598038,0.0,0.0,0.0
643.54504,357.85388,130249697,0.8125,0.12765957,1152.2224,-2799.7705,0.005765617,0.012990624,0.0012598038,0.0,0.0,0.0
653.9807,341.89917,130249714,0.8125,0.06382979,1124.8417,-2206.8052,0.005765617,0.012990624,0.0012598038,0.0,0.0,0.0
677.51697,313.8026,130249731,0.8,0.10638297,1187.3107,-1452.1798,0.005765617,0.012990624,0.0012598038,0.0,0.0,0.0
699.22925,292.65686,130249747,0.8,0.10638297,1315.7548,-1033.3562,0.005765617,0.012990624,0.0012598038,0.0,0.0,0.0
720.2067,277.99963,130249764,0.7875,0.06382979,1571.5818,-1114.7268,0.005765617,0.012990624,0.0012598038,0.0,0.0,0.0
736.46893,269.71838,130249781,0.7875,0.08510638,1408.621,-711.2795,0.005765617,0.012990624,0.0012598038,0.0,0.0,0.0
747.6618,265.84937,130249797,0.825,0.08510638,836.5016,-63.319576,0.005765617,0.012990624,0.0012598038,0.0,0.0,0.0
752.8296,265.53882,130249814,0.85,0.08510638,303.88834,308.39,0.005765617,0.012990624,0.0012598038,0.0,0.0,0.0
754.2323,265.53882,130249831,0.8625,0.08510638,-114.2802,376.30902,0.005765617,0.012990624,0.0012598038,0.0,0.0,0.0
753.7586,265.53882,130249848,0.8875,0.09574468,-320.70816,268.29385,0.005765617,0.012990624,0.0012598038,0.0,0.0,0.0
746.83466,265.53882,130249864,0.825,0.07446808,-492.50778,142.83884,0.005765617,0.012990624,0.0012598038,0.0,0.0,0.0
725.01624,268.3075,130249881,0.83750004,0.08510638,-1042.5265,107.8509,0.005765617,0.012990624,0.0012598038,0.0,0.0,0.0
697.77734,277.84082,130249898,0.85,0.08510638,-1754.2041,364.37286,0.005765617,0.012990624,0.0012598038,0.0,0.0,0.0
672.03235,291.78662,130249914,0.85,0.10638297,-2171.103,776.7426,0.005765617,0.012990624,0.0012598038,0.0,0.0,0.0
646.1195,318.34705,130249931,0.875,0.09574468,-2073.5596,1358.8219,0.005765617,0.012990624,0.0012598038,0.0,0.0,0.0
625.47974,343.58826,130249948,0.8875,0.09574468,-1720.3822,1905.3162,0.005765617,0.012990624,0.0012598038,0.0,0.0,0.0
609.30597,376.27405,130249964,0.875,0.08510638,-1134.8237,2289.3057,0.005765617,0.012990624,0.0012598038,0.0,0.0,0.0
606.0523,392.28577,130249981,0.8875,0.12765957,-481.20023,1885.1942,0.005765617,0.012990624,0.0012598038,0.0,0.0,0.0
607.68774,406.4829,130249998,0.875,0.09574468,239.11967,1110.8616,0.005765617,0.012990624,0.0012598038,0.0,0.0,0.0
611.9579,414.01953,130250015,0.8625,0.08510638,755.4395,268.19028,0.005765617,0.012990624,0.0012598038,0.0,0.0,0.0
621.33276,423.29895,130250031,0.85,0.06382979,898.6526,15.993437,0.005765617,0.012990624,0.0012598038,0.0,0.0,0.0
633.5223,430.2881,130250048,0.8625,0.09574468,944.0366,112.25845,0.0046124905,-0.021607488,-0.046992302,0.0,0.0,0.0
647.8481,432.5774,130250065,0.85,0.08510638,1041.7792,171.58833,0.0046124905,-0.021607488,-0.046992302,0.0,0.0,0.0
662.46326,428.0525,130250081,0.83750004,0.08510638,1085.1116,-133.56026,0.0046124905,-0.021607488,-0.046992302,0.0,0.0,0.0
676.51587,420.6123,130250098,0.825,0.10638297,1028.5673,-531.23706,0.0046124905,-0.021607488,-0.046992302,0.0,0.0,0.0
687.7258,410.3114,130250115,0.825,0.12765957,861.0251,-849.2411,0.0046124905,-0.021607488,-0.046992302,0.0,0.0,0.0
703.5112,393.6361,130250132,0.8,0.07446808,802.97363,-1080.3013,0.0046124905,-0.021607488,-0.046992302,0.0,0.0,0.0
719.27844,373.7827,130250148,0.7875,0.08510638,871.7731,-1305.0613,0.0046124905,-0.021607488,-0.046992302,0.0,0.0,0.0
732.8421,352.0558,130250165,0.77500004,0.08510638,935.39813,-1518.1105,0.0046124905,-0.021607488,-0.046992302,0.0,0.0,0.0
748.10614,322.97742,130250182,0.7625,0.08510638,952.1355,-1789.6919,0.0046124905,-0.021607488,-0.046992302,0.0,0.0,0.0
756.95544,299.52698,130250198,0.7875,0.12765957,751.41943,-1846.2817,0.0046124905,-0.021607488,-0.046992302,0.0,0.0,0.0
761.19836,283.73633,130250215,0.77500004,0.07446808,356.93774,-1438.312,0.0046124905,-0.021607488,-0.046992302,0.0,0.0,0.0
762.22974,273.86926,130250232,0.825,0.07446808,-26.841923,-761.91473,0.0046124905,-0.021607488,-0.046992302,0.0,0.0,0.0
762.22974,267.84705,130250249,0.83750004,0.07446808,-268.5127,-139.49402,0.0046124905,-0.021607488,-0.046992302,0.0,0.0,0.0
761.28436,265.63538,130250265,0.85,0.08510638,-312.29184,197.22064,0.0046124905,-0.021607488,-0.046992302,0.0,0.0,0.0
760.24054,263.7799,130250282,0.8875,0.09574468,-210.09598,212.4934,0.0046124905,-0.021607488,-0.046992302,0.0,0.0,0.0
759.19977,263.76184,130250299,0.925,0.09574468,-136.10764,177.56194,0.0046124905,-0.021607488,-0.046992302,0.0,0.0,0.0
757.5864,266.6848,130250315,0.925,0.09574468,-107.54112,216.6438,0.0046124905,-0.021607488,-0.046992302,0.0,0.0,0.0
756.61273,272.39172,130250332,0.90000004,0.11702127,-93.030785,347.21826,0.0046124905,-0.021607488,-0.046992302,0.0,0.0,0.0
754.4324,279.93213,130250349,0.9125,0.11702127,-104.87874,515.7286,0.0046124905,-0.021607488,-0.046992302,0.0,0.0,0.0
752.2329,286.86304,130250365,0.925,0.12765957,-129.03195,586.5362,0.0046124905,-0.021607488,-0.046992302,0.0,0.0,0.0
750.5179,294.11035,130250382,0.925,0.11702127,-142.09404,550.4606,0.0046124905,-0.021607488,-0.046992302,0.0,0.0,0.0
749.73376,302.58423,130250399,0.95,0.09574468,-103.68968,530.58813,0.0046124905,-0.021607488,-0.046992302,0.0,0.0,0.0
748.92236,312.39917,130250416,0.9375,0.09574468,-38.794006,573.48584,0.0046124905,-0.021607488,-0.046992302,0.0,0.0,0.0
747.5305,324.11584,130250432,0.925,0.09574468,-22.62235,681.8649,0.0046124905,-0.021607488,-0.046992302,0.0,0.0,0.0
746.85406,335.34644,130250449,0.9125,0.11702127,-35.68347,744.92303,0.0046124905,-0.021607488,-0.046992302,0.0,0.0,0.0
745.3998,349.66516,130250466,0.9125,0.12765957,-64.78262,837.16095,0.0046124905,-0.021607488,-0.046992302,0.0,0.0,0.0
744.7354,365.151,130250482,0.9125,0.08510638,-74.15926,951.0569,0.0046124905,-0.021607488,-0.046992302,0.0,0.0,0.0
744.7354,381.00745,130250499,0.925,0.08510638,-29.41878,1039.7108,0.0046124905,-0.021607488,-0.046992302,0.0,0.0,0.0
744.7354,390.27795,130250516,0.9375,0.12765957,10.842806,875.2329,0.0046124905,-0.021607488,-0.046992302,0.0,0.0,0.0
744.7354,400.5586,130250533,0.9375,0.12765957,28.150991,634.85065,0.0046124905,-0.021607488,-0.046992302,0.0,0.0,0.0
744.8578,406.57495,130250549,0.9375,0.11702127,29.325825,341.28192,0.0046124905,-0.021607488,-0.046992302,0.0,0.0,0.0
745.89606,413.28638,130250566,0.9375,0.09574468,36.585632,214.16362,0.0046124905,-0.021607488,-0.046992302,0.0,0.0,0.0
747.11163,419.7013,130250583,0.95,0.09574468,69.722595,244.10582,0.019689992,0.014714003,0.010406494,0.0,0.0,0.0
749.1223,425.61597,130250599,0.925,0.09574468,123.853905,312.4713,0.019689992,0.014714003,0.010406494,0.0,0.0,0.0
751.24786,430.82642,130250616,0.9375,0.09574468,156.4761,323.6751,0.019689992,0.014714003,0.010406494,0.0,0.0,0.0
753.0574,435.50818,130250633,0.96250004,0.09574468,154.41284,266.35904,0.019689992,0.014714003,0.010406494,0.0,0.0,0.0
754.0816,437.64062,130250650,0.975,0.11702127,110.08995,168.52101,0.019689992,0.014714003,0.010406494,0.0,0.0,0.0
756.0372,439.51257,130250666,0.96250004,0.11702127,78.36214,72.54703,0.019689992,0.014714003,0.010406494,0.0,0.0,0.0
759.51666,441.36743,130250683,0.975,0.10638297,123.5184,21.53077,0.019689992,0.014714003,0.010406494,0.0,0.0,0.0
764.6898,441.46252,130250700,0.95,0.08510638,256.26495,-8.02311,0.019689992,0.014714003,0.010406494,0.0,0.0,0.0
771.96735,439.62427,130250716,0.9125,0.08510638,434.0482,-84.6986,0.019689992,0.014714003,0.010406494,0.0,0.0,0.0
780.843,434.8302,130250733,0.8875,0.08510638,579.3875,-236.9676,0.019689992,0.014714003,0.010406494,0.0,0.0,0.0
788.5837,429.25513,130250750,0.85,0.08510638,614.575,-407.34097,0.019689992,0.014714003,0.010406494,0.0,0.0,0.0
794.0469,423.6986,130250767,0.85,0.09574468,505.99432,-475.66245,0.019689992,0.014714003,0.010406494,0.0,0.0,0.0
799.7121,416.05896,130250783,0.8,0.12765957,367.7962,-507.4058,0.019689992,0.014714003,0.010406494,0.0,0.0,0.0
806.5024,403.63513,130250800,0.8,0.09574468,283.9385,-626.85895,0.019689992,0.014714003,0.010406494,0.0,0.0,0.0
814.3295,388.36304,130250817,0.8125,0.07446808,392.2696,-909.92847,0.019689992,0.014714003,0.010406494,0.0,0.0,0.0
825.91113,365.18237,130250833,0.8,0.09574468,582.5869,-1277.574,0.019689992,0.014714003,0.010406494,0.0,0.0,0.0
837.70483,338.30786,130250850,0.7875,0.08510638,796.1569,-1776.565,0.019689992,0.014714003,0.010406494,0.0,0.0,0.0
847.2379,315.38354,130250867,0.77500004,0.08510638,791.89923,-1857.8405,0.019689992,0.014714003,0.010406494,0.0,0.0,0.0
856.11664,287.02673,130250884,0.7875,0.11702127,635.43726,-1788.9336,0.019689992,0.014714003,0.010406494,0.0,0.0,0.0
863.5351,264.24072,130250900,0.7875,0.08510638,482.92404,-1673.8124,0.019689992,0.014714003,0.010406494,0.0,0.0,0.0
870.71313,240.59424,130250917,0.8,0.09574468,353.3808,-1420.4955,0.019689992,0.014714003,0.010406494,0.0,0.0,0.0
874.3596,222.89233,130250934,0.8,0.07446808,268.85202,-1236.7701,0.019689992,0.014714003,0.010406494,0.0,0.0,0.0
876.3686,208.31213,130250950,0.8125,0.10638297,106.917015,-872.22406,0.019689992,0.014714003,0.010406494,0.0,0.0,0.0
877.1923,191.58423,130250967,0.8,0.10638297,-25.498188,-718.45264,0.019689992,0.014714003,0.010406494,0.0,0.0,0.0
876.85156,178.72827,130250984,0.8125,0.08510638,-113.42705,-708.6718,0.019689992,0.014714003,0.010406494,0.0,0.0,0.0
874.139,168.8274,130251001,0.8125,0.08510638,-196.3841,-583.82355,0.019689992,0.014714003,0.010406494,0.0,0.0,0.0
870.3956,158.92102,130251017,0.8,0.09574468,-273.88254,-494.15506,0.019689992,0.014714003,0.010406494,0.0,0.0,0.0
865.82886,150.26953,130251034,0.8125,0.11702127,-363.24878,-398.5032,0.019689992,0.014714003,0.010406494,0.0,0.0,0.0
861.1358,142.48218,130251051,0.85,0.12765957,-367.5612,-383.7314,0.019689992,0.014714003,0.010406494,0.0,0.0,0.0
855.97174,135.13867,130251067,0.83750004,0.10638297,-353.2839,-399.81937,0.019689992,0.014714003,0.010406494,0.0,0.0,0.0
850.13574,127.55029,130251084,0.875,0.08510638,-362.1225,-380.90942,0.019689992,0.014714003,0.010406494,0.0,0.0,0.0
844.4805,121.8479,130251101,0.875,0.08510638,-369.01486,-365.36862,0.019689992,0.014714003,0.010406494,0.0,0.0,0.0
837.7483,117.180786,130251117,0.875,0.08510638,-397.94128,-315.6509,-2.4801493E-4,-0.020228803,-0.007675171,0.0,0.0,0.0
830.01117,114.44336,130251134,0.8875,0.08510638,-450.1818,-173.54898,-2.4801493E-4,-0.020228803,-0.007675171,0.0,0.0,0.0
822.637,115.509155,130251151,0.925,0.11702127,-482.16818,19.51228,-2.4801493E-4,-0.020228803,-0.007675171,0.0,0.0,0.0
814.3429,118.43359,130251168,0.95,0.11702127,-518.96124,217.98161,-2.4801493E-4,-0.020228803,-0.007675171,0.0,0.0,0.0
805.46,122.15906,130251184,0.96250004,0.12765957,-545.9503,359.7636,-2.4801493E-4,-0.020228803,-0.007675171,0.0,0.0,0.0
800.53284,125.76343,130251201,0.975,0.12765957,-456.16107,391.68048,-2.4801493E-4,-0.020228803,-0.007675171,0.0,0.0,0.0
795.3127,134.27625,130251218,0.9875,0.09574468,-318.4972,429.5515,-2.4801493E-4,-0.020228803,-0.007675171,0.0,0.0,0.0
791.4143,144.48987,130251234,0.975,0.08510638,-187.68822,601.7526,-2.4801493E-4,-0.020228803,-0.007675171,0.0,0.0,0.0
787.89185,159.78638,130251251,0.9375,0.08510638,-132.0404,884.9649,-2.4801493E-4,-0.020228803,-0.007675171,0.0,0.0,0.0
784.74567,175.6759,130251268,0.925,0.10638297,-140.97267,1126.0802,-2.4801493E-4,-0.020228803,-0.007675171,0.0,0.0,0.0
782.3435,196.33435,130251285,0.925,0.09574468,-129.50052,1289.6876,-2.4801493E-4,-0.020228803,-0.007675171,0.0,0.0,0.0
782.2232,218.75256,130251301,0.9375,0.08510638,-50.092663,1452.6838,-2.4801493E-4,-0.020228803,-0.007675171,0.0,0.0,0.0
782.6944,239.11084,130251318,0.95,0.10638297,45.209454,1481.2,-2.4801493E-4,-0.020228803,-0.007675171,0.0,0.0,0.0
783.23364,260.47534,130251335,0.925,0.08510638,112.20951,1393.3347,-2.4801493E-4,-0.020228803,-0.007675171,0.0,0.0,0.0
785.2733,279.59326,130251351,0.9125,0.10638297,159.05052,1294.9192,-2.4801493E-4,-0.020228803,-0.007675171,0.0,0.0,0.0
787.98596,299.24902,130251368,0.925,0.08510638,180.69475,1150.8499,-2.4801493E-4,-0.020228803,-0.007675171,0.0,0.0,0.0
791.60345,317.11133,130251385,0.925,0.08510638,233.91208,1090.5865,-2.4801493E-4,-0.020228803,-0.007675171,0.0,0.0,0.0
794.7325,331.33545,130251402,0.9125,0.10638297,257.87402,934.4748,-2.4801493E-4,-0.020228803,-0.007675171,0.0,0.0,0.0
798.33655,344.14856,130251418,0.9125,0.12765957,254.01118,741.2788,-2.4801493E-4,-0.020228803,-0.007675171,0.0,0.0,0.0
802.1167,356.7881,130251435,0.9125,0.09574468,236.92064,638.24,-2.4801493E-4,-0.020228803,-0.007675171,0.0,0.0,0.0
806.8996,367.5769,130251452,0.9375,0.09574468,255.4414,553.37384,-2.4801493E-4,-0.020228803,-0.007675171,0.0,0.0,0.0
810.8065,374.98938,130251468,0.9375,0.09574468,292.24133,497.56683,-2.4801493E-4,-0.020228803,-0.007675171,0.0,0.0,0.0
814.4693,380.0536,130251485,0.95,0.08510638,257.79715,299.5175,-2.4801493E-4,-0.020228803,-0.007675171,0.0,0.0,0.0
819.8459,385.6067,130251502,0.95,0.10638297,260.59732,153.09543,-2.4801493E-4,-0.020228803,-0.007675171,0.0,0.0,0.0
825.8716,391.4065,130251519,0.95,0.10638297,313.14954,157.1452,-2.4801493E-4,-0.020228803,-0.007675171,0.0,0.0,0.0
830.6721,395.2351,130251535,0.95,0.10638297,360.88654,216.99861,-2.4801493E-4,-0.020228803,-0.007675171,0.0,0.0,0.0
835.88025,398.93835,130251552,0.96250004,0.12765957,359.34326,230.616,-2.4801493E-4,-0.020228803,-0.007675171,0.0,0.0,0.0
841.54504,401.60107,130251569,0.9375,0.12765957,332.9856,158.58633,-2.4801493E-4,-0.020228803,-0.007675171,0.0,0.0,0.0
845.6457,403.45374,130251585,0.9375,0.12765957,282.86176,84.94162,-2.4801493E-4,-0.020228803,-0.007675171,0.0,0.0,0.0
849.77136,405.2871,130251602,0.9375,0.12765957,246.2483,53.457596,-2.4801493E-4,-0.020228803,-0.007675171,0.0,0.0,0.0
853.8798,407.1129,130251619,0.925,0.11702127,225.39336,60.17653,-2.4801493E-4,-0.020228803,-0.007675171,0.0,0.0,0.0
858.35785,408.99988,130251635,0.9375,0.11702127,222.8974,86.3432,-2.4801493E-4,-0.020228803,-0.007675171,0.0,0.0,0.0
863.27844,410.84546,130251652,0.9375,0.11702127,281.16556,112.49499,-1.9842386E-4,0.015816957,0.009860039,0.0,0.0,0.0
867.61053,411.25342,130251669,0.96250004,0.10638297,293.9387,75.12025,-1.9842386E-4,0.015816957,0.009860039,0.0,0.0,0.0
871.2194,411.25342,130251686,0.9125,0.10638297,254.32408,3.5942132,-1.9842386E-4,0.015816957,0.009860039,0.0,0.0,0.0
874.3148,412.14185,130251702,0.9375,0.10638297,192.49893,-17.04863,-1.9842386E-4,0.015816957,0.009860039,0.0,0.0,0.0
877.41534,413.75476,130251719,0.925,0.09574468,146.09421,21.994738,-1.9842386E-4,0.015816957,0.009860039,0.0,0.0,0.0
881.56757,414.80737,130251736,0.9375,0.09574468,171.27151,87.61844,-1.9842386E-4,0.015816957,0.009860039,0.0,0.0,0.0
884.73755,415.72412,130251752,0.925,0.08510638,209.84055,92.6535,-1.9842386E-4,0.015816957,0.009860039,0.0,0.0,0.0
887.35803,415.69592,130251769,0.9125,0.08510638,193.44038,39.381893,-1.9842386E-4,0.015816957,0.009860039,0.0,0.0,0.0
889.3842,415.69592,130251786,0.9125,0.08510638,143.33679,-12.873878,-1.9842386E-4,0.015816957,0.009860039,0.0,0.0,0.0
891.9891,415.69592,130251803,0.90000004,0.08510638,111.77799,-32.830837,-1.9842386E-4,0.015816957,0.009860039,0.0,0.0,0.0
894.6082,415.69592,130251819,0.90000004,0.09574468,119.65428,-20.986427,-1.9842386E-4,0.015816957,0.009860039,0.0,0.0,0.0
896.5556,415.69592,130251836,0.875,0.08510638,130.09753,-13.136985,-1.9842386E-4,0.015816957,0.009860039,0.0,0.0,0.0
897.6856,415.69592,130251853,0.8875,0.08510638,101.901344,0.0025421495,-1.9842386E-4,0.015816957,0.009860039,0.0,0.0,0.0
897.6856,415.69592,130251869,0.85,0.08510638,17.449945,0.025512433,-1.9842386E-4,0.015816957,0.009860039,0.0,0.0,0.0
897.6856,415.69592,130251881,0.5,0.07446808,-25.238722,0.014575459,-1.9842386E-4,0.015816957,0.009860039,0.0,0.0,0.0
897.6856,415.69592,130251888,0.5,0.07446808,-25.238722,0.014575459,-1.9842386E-4,0.015816957,0.009860039,0.0,0.0,0.0
926.17633,413.0304,130252611,0.825,0.11702127,0.0,0.0,0.01584126,-0.027346447,-0.008111954,0.0,0.0,0.0
926.17633,413.0304,130252638,0.8625,0.10638297,-0.050081905,-0.022235304,0.01584126,-0.027346447,-0.008111954,0.0,0.0,0.0
926.17633,413.0304,130252655,0.8625,0.12765957,-0.016643668,-0.008064276,0.01584126,-0.027346447,-0.008111954,0.0,0.0,0.0
926.17633,413.0304,130252672,0.8,0.12765957,4.052627E-6,-0.0022685868,0.01584126,-0.027346447,-0.008111954,0.0,0.0,0.0
939.7431,385.6903,130252688,0.77500004,0.06382979,530.1375,-1065.1935,0.01584126,-0.027346447,-0.008111954,0.0,0.0,0.0
950.9172,362.04297,130252705,0.7875,0.10638297,834.3583,-1694.4707,0.01584126,-0.027346447,-0.008111954,0.0,0.0,0.0
959.48047,342.6267,130252722,0.8125,0.08510638,967.5234,-2052.1394,-0.0033269972,-0.053877175,-0.03848934,0.0,0.0,0.0
965.4469,330.78455,130252738,0.825,0.08510638,661.49835,-1453.716,-0.0033269972,-0.053877175,-0.03848934,0.0,0.0,0.0
973.05786,318.99158,130252755,0.8,0.09574468,371.51846,-727.9658,-0.0033269972,-0.053877175,-0.03848934,0.0,0.0,0.0
985.51794,306.06458,130252772,0.8125,0.10638297,421.132,-360.30133,-0.0033269972,-0.053877175,-0.03848934,0.0,0.0,0.0
1004.4592,292.10352,130252789,0.7875,0.10638297,879.786,-539.1636,-0.0033269972,-0.053877175,-0.03848934,0.0,0.0,0.0
1029.6903,277.77466,130252805,0.77500004,0.07446808,1466.7517,-812.0839,-0.0033269972,-0.053877175,-0.03848934,0.0,0.0,0.0
1047.9617,268.09497,130252822,0.77500004,0.06382979,1675.4966,-818.9246,-0.0033269972,-0.053877175,-0.03848934,0.0,0.0,0.0
1059.356,261.44153,130252839,0.825,0.08510638,1300.2378,-548.8991,-0.0033269972,-0.053877175,-0.03848934,0.0,0.0,0.0
1065.7181,258.0829,130252855,0.825,0.09574468,478.83984,-166.45624,-0.0033269972,-0.053877175,-0.03848934,0.0,0.0,0.0
1068.1658,256.17786,130252872,0.8625,0.09574468,-96.89642,67.016975,-0.0033269972,-0.053877175,-0.03848934,0.0,0.0,0.0
1068.63,255.76526,130252889,0.90000004,0.08510638,-293.7088,126.66444,-0.0033269972,-0.053877175,-0.03848934,0.0,0.0,0.0
1068.3048,255.76526,130252905,0.9125,0.08510638,-277.29092,132.53444,-0.0033269972,-0.053877175,-0.03848934,0.0,0.0,0.0
1064.2847,255.76526,130252922,0.90000004,0.08510638,-287.80734,100.93094,-0.0033269972,-0.053877175,-0.03848934,0.0,0.0,0.0
1053.9408,257.39917,130252939,0.8625,0.08510638,-517.52313,102.40003,-0.0033269972,-0.053877175,-0.03848934,0.0,0.0,0.0
1042.5283,259.2616,130252956,0.875,0.09574468,-805.7215,134.10097,-0.0033269972,-0.053877175,-0.03848934,0.0,0.0,0.0
1028.0353,264.6914,130252972,0.8625,0.08510638,-1035.6718,257.09778,-0.0033269972,-0.053877175,-0.03848934,0.0,0.0,0.0
1013.47314,273.07507,130252989,0.8875,0.09574468,-1103.6831,462.91138,-0.0033269972,-0.053877175,-0.03848934,0.0,0.0,0.0
997.1505,285.3656,130253006,0.83750004,0.12765957,-1071.2844,725.1306,-0.0033269972,-0.053877175,-0.03848934,0.0,0.0,0.0
980.7799,304.4712,130253022,0.8875,0.09574468,-1069.3352,1082.3013,-0.0033269972,-0.053877175,-0.03848934,0.0,0.0,0.0
966.0333,324.42627,130253039,0.875,0.09574468,-1028.3395,1409.2639,-0.0033269972,-0.053877175,-0.03848934,0.0,0.0,0.0
955.3563,340.36743,130253056,0.90000004,0.09574468,-824.9582,1392.2494,-0.0033269972,-0.053877175,-0.03848934,0.0,0.0,0.0
943.4583,364.9557,130253073,0.9125,0.08510638,-631.97205,1391.7743,-0.0033269972,-0.053877175,-0.03848934,0.0,0.0,0.0
939.09796,380.17273,130253089,0.8875,0.08510638,-373.1678,1241.9293,-0.0033269972,-0.053877175,-0.03848934,0.0,0.0,0.0
938.9828,391.46375,130253106,0.90000004,0.10638297,-31.51729,903.7384,-0.0033269972,-0.053877175,-0.03848934,0.0,0.0,0.0
942.1029,402.63074,130253123,0.8875,0.10638297,292.8001,602.1824,-0.0033269972,-0.053877175,-0.03848934,0.0,0.0,0.0
946.3757,410.73083,130253139,0.8875,0.08510638,561.9524,274.77847,-0.0033269972,-0.053877175,-0.03848934,0.0,0.0,0.0
953.2071,420.4132,130253156,0.8875,0.08510638,592.15094,285.4894,-0.0033269972,-0.053877175,-0.03848934,0.0,0.0,0.0
962.05225,428.9347,130253173,0.875,0.09574468,614.55804,445.27402,-0.0033269972,-0.053877175,-0.03848934,0.0,0.0,0.0
973.47986,433.56897,130253190,0.8875,0.08510638,729.9913,364.37906,-0.0033269972,-0.053877175,-0.03848934,0.0,0.0,0.0
986.5569,431.42236,130253206,0.8625,0.08510638,862.81714,64.99065,-0.0033269972,-0.053877175,-0.03848934,0.0,0.0,0.0
997.86365,425.71252,130253223,0.85,0.08510638,884.39154,-346.6467,-0.0033269972,-0.053877175,-0.03848934,0.0,0.0,0.0
1010.115,416.77332,130253240,0.8,0.10638297,813.74316,-720.01154,-0.0033269972,-0.053877175,-0.03848934,0.0,0.0,0.0
1017.69543,407.18994,130253256,0.8,0.12765957,636.0998,-858.5945,-0.0026616007,0.04489827,0.04920864,0.0,0.0,0.0
1031.1101,387.71936,130253273,0.8,0.07446808,603.2974,-1075.2004,-0.0026616007,0.04489827,0.04920864,0.0,0.0,0.0
1045.2612,362.5785,130253290,0.8,0.10638297,725.5979,-1446.2102,-0.0026616007,0.04489827,0.04920864,0.0,0.0,0.0
1059.047,334.22913,130253307,0.8125,0.06382979,912.60254,-1967.0879,-0.0026616007,0.04489827,0.04920864,0.0,0.0,0.0
1071.066,306.7616,130253323,0.77500004,0.10638297,895.21625,-2082.9495,-0.0026616007,0.04489827,0.04920864,0.0,0.0,0.0
1081.8611,285.55603,130253340,0.7875,0.08510638,716.6046,-1778.7137,-0.0026616007,0.04489827,0.04920864,0.0,0.0,0.0
1093.4231,265.14172,130253357,0.77500004,0.08510638,617.5331,-1320.2944,-0.0026616007,0.04489827,0.04920864,0.0,0.0,0.0
1102.0116,244.6604,130253373,0.8125,0.12765957,548.06134,-1056.0767,-0.0026616007,0.04489827,0.04920864,0.0,0.0,0.0
1100.0908,237.05518,130253390,0.825,0.08510638,195.15445,-709.77527,-0.0026616007,0.04489827,0.04920864,0.0,0.0,0.0
1094.2606,233.3695,130253407,0.83750004,0.09574468,-340.64807,-195.03076,-0.0026616007,0.04489827,0.04920864,0.0,0.0,0.0
1083.1675,230.71704,130253424,0.825,0.10638297,-848.3702,145.56926,-0.0026616007,0.04489827,0.04920864,0.0,0.0,0.0
1069.7147,232.03748,130253440,0.85,0.10638297,-1138.1478,382.55695,-0.0026616007,0.04489827,0.04920864,0.0,0.0,0.0
1055.219,237.13806,130253457,0.8875,0.10638297,-1168.1372,445.189,-0.0026616007,0.04489827,0.04920864,0.0,0.0,0.0
1042.8522,247.31921,130253474,0.90000004,0.11702127,-1060.6923,605.7374,-0.0026616007,0.04489827,0.04920864,0.0,0.0,0.0
1031.9313,259.70923,130253490,0.925,0.09574468,-821.46936,909.7343,-0.0026616007,0.04489827,0.04920864,0.0,0.0,0.0
1022.2987,273.26245,130253507,0.9125,0.10638297,-609.2545,1026.4474,-0.0026616007,0.04489827,0.04920864,0.0,0.0,0.0
1015.8794,285.79944,130253524,0.9125,0.12765957,-402.79355,1011.28455,-0.0026616007,0.04489827,0.04920864,0.0,0.0,0.0
1013.2844,294.7782,130253540,0.95,0.12765957,-167.78746,778.41473,-0.0026616007,0.04489827,0.04920864,0.0,0.0,0.0
1013.5476,300.54468,130253557,0.96250004,0.10638297,78.972466,447.75424,-0.0026616007,0.04489827,0.04920864,0.0,0.0,0.0
1015.03516,302.75623,130253574,0.9875,0.09574468,258.63885,122.189026,-0.0026616007,0.04489827,0.04920864,0.0,0.0,0.0
1020.574,306.36755,130253591,1.0,0.09574468,409.05566,-49.882736,-0.0026616007,0.04489827,0.04920864,0.0,0.0,0.0
1028.3622,308.23572,130253607,0.90000004,0.10638297,537.7033,-13.341166,-0.0026616007,0.04489827,0.04920864,0.0,0.0,0.0
1039.9497,308.187,130253624,0.8875,0.09574468,735.9012,-25.66148,-0.0026616007,0.04489827,0.04920864,0.0,0.0,0.0
1052.6907,305.0962,130253641,0.8625,0.09574468,899.5017,-128.5218,-0.0026616007,0.04489827,0.04920864,0.0,0.0,0.0
1064.0885,302.22363,130253657,0.85,0.12765957,916.11456,-249.76324,-0.0026616007,0.04489827,0.04920864,0.0,0.0,0.0
1076.8016,297.1117,130253674,0.85,0.12765957,846.9502,-367.19055,-0.0026616007,0.04489827,0.04920864,0.0,0.0,0.0
1088.3727,292.2682,130253691,0.83750004,0.12765957,753.41876,-401.42242,-0.0026616007,0.04489827,0.04920864,0.0,0.0,0.0
1099.8458,288.0952,130253708,0.83750004,0.09574468,735.2378,-358.7663,-0.0026616007,0.04489827,0.04920864,0.0,0.0,0.0
1110.3308,284.01404,130253724,0.825,0.08510638,691.99756,-301.896,-0.0026616007,0.04489827,0.04920864,0.0,0.0,0.0
1117.402,281.00232,130253741,0.825,0.08510638,512.0758,-203.25882,-0.0026616007,0.04489827,0.04920864,0.0,0.0,0.0
1122.6501,279.07166,130253758,0.77500004,0.09574468,290.07526,-110.9739,-0.0026616007,0.04489827,0.04920864,0.0,0.0,0.0
1126.8883,277.2213,130253774,0.6625,0.09574468,134.7032,-64.197624,-0.0026616007,0.04489827,0.04920864,0.0,0.0,0.0
1128.1106,277.08936,130253784,0.2125,0.09574468,90.545105,-42.068207,-0.0021292865,-0.020081386,-0.008633614,0.0,0.0,0.0
1128.1106,277.08936,130253791,0.2125,0.09574468,90.545105,-42.068207,-0.0021292865,-0.020081386,-0.008633614,0.0,0.0,0.0
1080.6261,456.56702,130254705,0.8125,0.12765957,0.0,0.0,-0.02570343,-0.0080651045,0.009093285,0.0,0.0,0.0
1080.6261,456.56702,130254727,0.8,0.12765957,-0.08431399,-0.035882793,-0.02570343,-0.0080651045,0.009093285,0.0,0.0,0.0
1086.263,441.203,130254744,0.75,0.09574468,415.4842,-1132.4064,-0.02570343,-0.0080651045,0.009093285,0.0,0.0,0.0
1098.1517,412.71204,130254760,0.7625,0.10638297,911.309,-2267.6042,-0.02570343,-0.0080651045,0.009093285,0.0,0.0,0.0
1107.8654,392.1538,130254777,0.7625,0.06382979,971.6635,-2254.8643,-0.02570343,-0.0080651045,0.009093285,0.0,0.0,0.0
1118.5579,374.0271,130254794,0.77500004,0.08510638,897.32745,-1833.8663,-0.02570343,-0.0080651045,0.009093285,0.0,0.0,0.0
1132.1603,353.60596,130254810,0.77500004,0.11702127,808.7501,-1203.1343,-0.02570343,-0.0080651045,0.009093285,0.0,0.0,0.0
1147.8844,335.1974,130254827,0.7625,0.06382979,880.1254,-958.3231,-0.02570343,-0.0080651045,0.009093285,0.0,0.0,0.0
1166.8293,320.61877,130254844,0.7375,0.08510638,1111.7944,-918.4413,-0.012562737,-0.0064520836,-0.02472496,0.0,0.0,0.0
1189.7281,305.05005,130254861,0.7375,0.12765957,1400.5332,-917.1035,-0.012562737,-0.0064520836,-0.02472496,0.0,0.0,0.0
1208.1562,297.04883,130254877,0.7625,0.10638297,1450.7284,-623.89014,-0.012562737,-0.0064520836,-0.02472496,0.0,0.0,0.0
1217.7985,295.36658,130254894,0.77500004,0.10638297,1019.1365,-168.67984,-0.012562737,-0.0064520836,-0.02472496,0.0,0.0,0.0
1223.6826,294.85938,130254911,0.8125,0.12765957,427.29456,170.46407,-0.012562737,-0.0064520836,-0.02472496,0.0,0.0,0.0
1227.2064,294.85938,130254927,0.8125,0.12765957,-59.627827,343.11435,-0.012562737,-0.0064520836,-0.02472496,0.0,0.0,0.0
1227.5782,294.85938,130254943,0.8625,0.12765957,-250.42421,300.8012,-0.012562737,-0.0064520836,-0.02472496,0.0,0.0,0.0
1226.8024,294.85938,130254961,0.8625,0.10638297,-239.62726,92.30573,-0.012562737,-0.0064520836,-0.02472496,0.0,0.0,0.0
1221.0497,296.51733,130254978,0.8125,0.10638297,-359.49133,65.46008,-0.012562737,-0.0064520836,-0.02472496,0.0,0.0,0.0
1206.4548,299.22473,130254994,0.7625,0.12765957,-699.7074,125.46175,-0.012562737,-0.0064520836,-0.02472496,0.0,0.0,0.0
1180.758,306.52356,130255011,0.825,0.08510638,-1446.5828,346.0161,-0.012562737,-0.0064520836,-0.02472496,0.0,0.0,0.0
1159.5721,320.54968,130255028,0.83750004,0.08510638,-1818.6089,706.51697,-0.012562737,-0.0064520836,-0.02472496,0.0,0.0,0.0
1137.6044,339.28735,130255044,0.825,0.12765957,-1751.1965,1191.138,-0.012562737,-0.0064520836,-0.02472496,0.0,0.0,0.0
1124.7401,354.562,130255061,0.85,0.08510638,-1329.6508,1336.3961,-0.012562737,-0.0064520836,-0.02472496,0.0,0.0,0.0
1113.4392,380.30298,130255078,0.8625,0.08510638,-705.2129,1484.7307,-0.012562737,-0.0064520836,-0.02472496,0.0,0.0,0.0
1114.5359,388.24512,130255095,0.8625,0.10638297,-96.66339,1211.7008,-0.012562737,-0.0064520836,-0.02472496,0.0,0.0,0.0
1117.8417,397.44214,130255111,0.85,0.12765957,435.6325,691.9079,-0.012562737,-0.0064520836,-0.02472496,0.0,0.0,0.0
1123.1815,403.58105,130255128,0.85,0.11702127,668.3479,279.4901,-0.012562737,-0.0064520836,-0.02472496,0.0,0.0,0.0
1135.1459,408.89282,130255145,0.825,0.11702127,846.5497,30.18104,-0.012562737,-0.0064520836,-0.02472496,0.0,0.0,0.0
1147.8575,409.69788,130255161,0.825,0.09574468,1006.3389,-33.785503,-0.012562737,-0.0064520836,-0.02472496,0.0,0.0,0.0
1159.1119,404.78418,130255178,0.77500004,0.10638297,987.5645,-220.22499,-0.012562737,-0.0064520836,-0.02472496,0.0,0.0,0.0
1170.182,393.9994,130255195,0.75,0.08510638,887.8472,-623.5224,-0.012562737,-0.0064520836,-0.02472496,0.0,0.0,0.0
1179.5831,378.39783,130255211,0.725,0.08510638,657.329,-1078.994,-0.012562737,-0.0064520836,-0.02472496,0.0,0.0,0.0
1191.6787,353.13354,130255228,0.7375,0.11702127,570.66907,-1526.9475,-0.012562737,-0.0064520836,-0.02472496,0.0,0.0,0.0
1197.9791,335.5066,130255245,0.7625,0.07446808,526.53015,-1674.0271,-0.012562737,-0.0064520836,-0.02472496,0.0,0.0,0.0
1200.704,327.11023,130255262,0.7625,0.07446808,294.56442,-1221.9753,-0.012562737,-0.0064520836,-0.02472496,0.0,0.0,0.0
1201.5867,323.0288,130255278,0.7875,0.07446808,33.796047,-519.61426,-0.012562737,-0.0064520836,-0.02472496,0.0,0.0,0.0
1201.5867,321.162,130255295,0.85,0.09574468,-172.11887,113.53452,-0.012562737,-0.0064520836,-0.02472496,0.0,0.0,0.0
1200.8519,321.932,130255312,0.83750004,0.09574468,-209.7145,392.42706,-0.012562737,-0.0064520836,-0.02472496,0.0,0.0,0.0
1199.0325,325.16626,130255328,0.825,0.09574468,-161.96419,333.67093,-0.012562737,-0.0064520836,-0.02472496,0.0,0.0,0.0
1196.4529,331.20483,130255345,0.825,0.11702127,-197.72058,456.46194,-0.012562737,-0.0064520836,-0.02472496,0.0,0.0,0.0
1194.3741,336.74744,130255362,0.825,0.12765957,-201.33926,506.73935,-0.012562737,-0.0064520836,-0.02472496,0.0,0.0,0.0
1193.0895,344.54468,130255379,0.825,0.12765957,-163.32047,543.89056,-0.0100501925,-0.005161673,-0.019780159,0.0,0.0,0.0
1191.6566,356.99573,130255395,0.825,0.11702127,-91.36299,660.6786,-0.0100501925,-0.005161673,-0.019780159,0.0,0.0,0.0
1190.6115,377.92603,130255412,0.8125,0.08510638,-43.251106,1032.5441,-0.0100501925,-0.005161673,-0.019780159,0.0,0.0,0.0
1189.5708,397.45898,130255429,0.8,0.12765957,-37.320606,1410.474,-0.0100501925,-0.005161673,-0.019780159,0.0,0.0,0.0
1186.9717,414.8766,130255445,0.8125,0.08510638,-92.77457,1469.3812,-0.0100501925,-0.005161673,-0.019780159,0.0,0.0,0.0
1185.8881,432.42847,130255462,0.8125,0.09574468,-107.15568,1280.6888,-0.0100501925,-0.005161673,-0.019780159,0.0,0.0,0.0
1184.2047,445.30542,130255479,0.8125,0.12765957,-105.57712,931.1053,-0.0100501925,-0.005161673,-0.019780159,0.0,0.0,0.0
1181.7263,460.95105,130255496,0.8125,0.10638297,-131.01114,762.4115,-0.0100501925,-0.005161673,-0.019780159,0.0,0.0,0.0
1178.2267,476.0288,130255512,0.825,0.07446808,-173.55162,771.63446,-0.0100501925,-0.005161673,-0.019780159,0.0,0.0,0.0
1173.3042,491.33728,130255529,0.83750004,0.09574468,-284.93842,874.249,-0.0100501925,-0.005161673,-0.019780159,0.0,0.0,0.0
1166.8103,507.00488,130255546,0.825,0.10638297,-388.4552,958.6579,-0.0100501925,-0.005161673,-0.019780159,0.0,0.0,0.0
1159.4059,521.7733,130255562,0.825,0.08510638,-482.6297,933.79944,-0.0100501925,-0.005161673,-0.019780159,0.0,0.0,0.0
1151.4797,535.23413,130255579,0.8125,0.07446808,-554.5067,865.44257,-0.0100501925,-0.005161673,-0.019780159,0.0,0.0,0.0
1142.9425,545.3146,130255596,0.825,0.11702127,-562.43304,680.43695,-0.0100501925,-0.005161673,-0.019780159,0.0,0.0,0.0
1131.6333,555.6914,130255613,0.83750004,0.12765957,-628.6879,550.8964,-0.0100501925,-0.005161673,-0.019780159,0.0,0.0,0.0
1121.1329,562.2883,130255629,0.85,0.10638297,-706.7701,399.2391,-0.0100501925,-0.005161673,-0.019780159,0.0,0.0,0.0
1112.306,565.0333,130255646,0.85,0.10638297,-670.96686,187.05034,-0.0100501925,-0.005161673,-0.019780159,0.0,0.0,0.0
1105.0739,563.93774,130255663,0.825,0.12765957,-538.4188,-69.300095,-0.0100501925,-0.005161673,-0.019780159,0.0,0.0,0.0
1098.5505,559.9144,130255679,0.8,0.11702127,-376.48718,-350.69324,-0.0100501925,-0.005161673,-0.019780159,0.0,0.0,0.0
1093.324,554.3401,130255696,0.8,0.09574468,-259.38696,-525.0899,-0.0100501925,-0.005161673,-0.019780159,0.0,0.0,0.0
1088.982,546.6052,130255713,0.8,0.09574468,-202.82271,-595.1885,-0.0100501925,-0.005161673,-0.019780159,0.0,0.0,0.0
1085.3861,535.30273,130255730,0.8,0.09574468,-186.06746,-716.7708,-0.0100501925,-0.005161673,-0.019780159,0.0,0.0,0.0
1085.4042,526.0508,130255746,0.7875,0.11702127,-57.64757,-758.9764,-0.0100501925,-0.005161673,-0.019780159,0.0,0.0,0.0
1087.8994,511.56287,130255763,0.7875,0.11702127,129.4694,-842.3094,-0.0100501925,-0.005161673,-0.019780159,0.0,0.0,0.0
1092.6512,500.33093,130255780,0.7875,0.07446808,361.7332,-873.455,-0.0100501925,-0.005161673,-0.019780159,0.0,0.0,0.0
1098.3579,491.29797,130255796,0.8,0.06382979,486.14227,-702.40466,-0.0100501925,-0.005161673,-0.019780159,0.0,0.0,0.0
1106.5714,482.81897,130255813,0.825,0.08510638,552.9121,-554.1041,-0.0100501925,-0.005161673,-0.019780159,0.0,0.0,0.0
1114.4586,476.23328,130255830,0.8,0.08510638,604.74335,-362.54874,-0.0100501925,-0.005161673,-0.019780159,0.0,0.0,0.0
1121.746,473.4148,130255846,0.825,0.09574468,559.8135,-174.13174,-0.0100501925,-0.005161673,-0.019780159,0.0,0.0,0.0
1130.67,471.56104,130255863,0.8125,0.09574468,543.9059,-56.116856,-0.0100501925,-0.005161673,-0.019780159,0.0,0.0,0.0
1140.99,471.67163,130255880,0.8125,0.08510638,574.8519,103.37878,-0.0100501925,-0.005161673,-0.019780159,0.0,0.0,0.0
1150.833,470.54028,130255897,0.8,0.08510638,629.9076,124.60288,-0.0100501925,-0.005161673,-0.019780159,0.0,0.0,0.0
1160.0002,469.61804,130255913,0.7875,0.09574468,640.09674,54.20017,0.023959845,-0.00412935,0.032175064,0.0,0.0,0.0
1169.5554,467.34424,130255930,0.7875,0.10638297,606.70404,-59.047714,0.023959845,-0.00412935,0.032175064,0.0,0.0,0.0
1178.1643,464.10376,130255947,0.77500004,0.12765957,519.44727,-197.67744,0.023959845,-0.00412935,0.032175064,0.0,0.0,0.0
1186.7554,460.8462,130255963,0.7625,0.12765957,494.66293,-242.89503,0.023959845,-0.00412935,0.032175064,0.0,0.0,0.0
1196.6514,456.6172,130255980,0.75,0.12765957,512.8475,-268.3771,0.023959845,-0.00412935,0.032175064,0.0,0.0,0.0
1205.9315,451.9193,130255997,0.77500004,0.09574468,557.8614,-294.7893,0.023959845,-0.00412935,0.032175064,0.0,0.0,0.0
1212.1284,448.00525,130256014,0.7625,0.08510638,517.74066,-298.14563,0.023959845,-0.00412935,0.032175064,0.0,0.0,0.0
1215.4862,445.99023,130256030,0.71250004,0.07446808,323.54797,-233.579,0.023959845,-0.00412935,0.032175064,0.0,0.0,0.0
1215.5822,445.90503,130256031,0.6125,0.07446808,293.59348,-216.07515,0.023959845,-0.00412935,0.032175064,0.0,0.0,0.0
1215.5822,445.90503,130256038,0.6125,0.07446808,293.59348,-216.07515,0.023959845,-0.00412935,0.032175064,0.0,0.0,0.0
1236.5753,444.12793,130257981,0.85,0.08510638,0.0,0.0,0.0077874362,0.008125752,-0.011686325,0.0,0.0,0.0
1236.5753,444.12793,130258002,0.8625,0.08510638,0.036880575,0.016675975,0.0077874362,0.008125752,-0.011686325,0.0,0.0,0.0
1236.5753,444.12793,130258019,0.85,0.08510638,0.053273045,0.01916392,0.0077874362,0.008125752,-0.011686325,0.0,0.0,0.0
1236.5753,444.12793,130258036,0.83750004,0.08510638,-0.044853248,-0.017439563,0.0077874362,0.008125752,-0.011686325,0.0,0.0,0.0
1236.5753,444.12793,130258052,0.8,0.08510638,-0.07722249,-0.027829891,0.02222994,0.006500602,-0.009348869,0.0,0.0,0.0
1244.6172,424.4756,130258069,0.75,0.11702127,289.44763,-708.13556,0.02222994,0.006500602,-0.009348869,0.0,0.0,0.0
1249.3497,414.21338,130258086,0.7625,0.12765957,433.363,-1019.39777,0.02222994,0.006500602,-0.009348869,0.0,0.0,0.0
1255.7294,402.0835,130258102,0.75,0.08510638,500.02158,-1074.7123,0.02222994,0.006500602,-0.009348869,0.0,0.0,0.0
1264.3604,387.88525,130258119,0.7375,0.06382979,548.9349,-1010.19635,0.02222994,0.006500602,-0.009348869,0.0,0.0,0.0
1275.88,369.61597,130258136,0.7375,0.10638297,629.69855,-967.88794,0.02222994,0.006500602,-0.009348869,0.0,0.0,0.0
1286.6813,350.61792,130258152,0.725,0.09574468,749.857,-1136.2861,0.02222994,0.006500602,-0.009348869,0.0,0.0,0.0
1298.1388,331.557,130258169,0.725,0.08510638,816.97473,-1325.6233,0.02222994,0.006500602,-0.009348869,0.0,0.0,0.0
1310.5663,312.20142,130258186,0.7375,0.12765957,795.1741,-1290.5144,0.02222994,0.006500602,-0.009348869,0.0,0.0,0.0
1319.2129,295.79456,130258203,0.71250004,0.08510638,671.2236,-1124.7455,0.02222994,0.006500602,-0.009348869,0.0,0.0,0.0
1327.4014,276.9154,130258219,0.725,0.06382979,519.93933,-1050.8743,0.02222994,0.006500602,-0.009348869,0.0,0.0,0.0
1329.815,266.7655,130258236,0.725,0.06382979,247.17352,-807.7552,0.02222994,0.006500602,-0.009348869,0.0,0.0,0.0
1328.6904,252.89868,130258253,0.7375,0.10638297,-68.0025,-642.73114,0.02222994,0.006500602,-0.009348869,0.0,0.0,0.0
1323.0745,238.94055,130258269,0.7375,0.10638297,-393.83728,-647.80396,0.02222994,0.006500602,-0.009348869,0.0,0.0,0.0
1316.8042,230.5763,130258286,0.75,0.08510638,-599.2096,-590.1825,0.02222994,0.006500602,-0.009348869,0.0,0.0,0.0
1306.2039,220.4281,130258303,0.7625,0.08510638,-752.05414,-557.5018,0.02222994,0.006500602,-0.009348869,0.0,0.0,0.0
1296.364,214.25879,130258320,0.8,0.07446808,-791.75903,-410.3258,0.02222994,0.006500602,-0.009348869,0.0,0.0,0.0
1286.9926,211.91931,130258336,0.8,0.08510638,-742.9384,-160.29416,0.02222994,0.006500602,-0.009348869,0.0,0.0,0.0
1276.862,213.45288,130258353,0.8125,0.08510638,-689.99615,79.76736,0.02222994,0.006500602,-0.009348869,0.0,0.0,0.0
1268.6991,217.02588,130258370,0.8125,0.08510638,-559.5721,358.7849,0.02222994,0.006500602,-0.009348869,0.0,0.0,0.0
1261.2927,222.46509,130258386,0.825,0.11702127,-463.54303,494.0632,0.02222994,0.006500602,-0.009348869,0.0,0.0,0.0
1254.9985,228.67761,130258403,0.83750004,0.12765957,-371.7953,531.6269,0.02222994,0.006500602,-0.009348869,0.0,0.0,0.0
1247.3163,244.76367,130258420,0.83750004,0.11702127,-337.45514,768.91,0.02222994,0.006500602,-0.009348869,0.0,0.0,0.0
1244.6848,266.50403,130258437,0.825,0.09574468,-267.8164,1220.805,0.02222994,0.006500602,-0.009348869,0.0,0.0,0.0
1245.4303,286.99768,130258453,0.7875,0.12765957,-61.016693,1569.776,0.02222994,0.006500602,-0.009348869,0.0,0.0,0.0
1248.9589,311.04187,130258470,0.8,0.09574468,235.47606,1742.7433,0.02222994,0.006500602,-0.009348869,0.0,0.0,0.0
1253.1481,331.59363,130258487,0.8125,0.12765957,434.2679,1567.1398,0.02222994,0.006500602,-0.009348869,0.0,0.0,0.0
1256.8059,352.7771,130258503,0.8,0.08510638,444.07397,1361.6754,0.02222994,0.006500602,-0.009348869,0.0,0.0,0.0
1259.2742,371.51,130258520,0.8,0.07446808,307.93942,1172.1897,0.02222994,0.006500602,-0.009348869,0.0,0.0,0.0
1260.7218,386.79187,130258537,0.8125,0.12765957,154.86012,971.784,0.02222994,0.006500602,-0.009348869,0.0,0.0,0.0
1262.9504,404.5481,130258554,0.825,0.10638297,70.729774,886.6241,0.02222994,0.006500602,-0.009348869,0.0,0.0,0.0
1263.5665,417.10547,130258570,0.8125,0.07446808,27.932827,804.6911,0.02222994,0.006500602,-0.009348869,0.0,0.0,0.0
1263.5665,427.02966,130258587,0.825,0.07446808,-3.6385958,657.10443,0.0017839521,0.021200508,0.056521416,0.0,0.0,0.0
1263.5665,433.6317,130258604,0.825,0.08510638,-31.86635,399.93634,0.0017839521,0.021200508,0.056521416,0.0,0.0,0.0
1263.5665,437.32556,130258620,0.825,0.08510638,-49.09553,110.38637,0.0017839521,0.021200508,0.056521416,0.0,0.0,0.0
1263.5665,439.44873,130258637,0.825,0.08510638,-27.972416,-44.357,0.0017839521,0.021200508,0.056521416,0.0,0.0,0.0
1263.1685,439.68542,130258654,0.83750004,0.08510638,-12.101317,-133.34122,0.0017839521,0.021200508,0.056521416,0.0,0.0,0.0
1262.1127,439.68542,130258670,0.85,0.08510638,-41.331886,-145.83115,0.0017839521,0.021200508,0.056521416,0.0,0.0,0.0
1261.071,437.91504,130258687,0.85,0.08510638,-76.8292,-158.46083,0.0017839521,0.021200508,0.056521416,0.0,0.0,0.0
1258.4508,428.6062,130258704,0.77500004,0.09574468,-132.47182,-385.25656,0.0017839521,0.021200508,0.056521416,0.0,0.0,0.0
1255.9154,410.6399,130258721,0.77500004,0.12765957,-182.47504,-874.1233,0.0017839521,0.021200508,0.056521416,0.0,0.0,0.0
1255.6997,393.17114,130258737,0.8,0.08510638,-140.39093,-1319.872,0.0017839521,0.021200508,0.056521416,0.0,0.0,0.0
1257.4401,381.729,130258754,0.7875,0.08510638,2.111416,-1316.3953,0.0017839521,0.021200508,0.056521416,0.0,0.0,0.0
1260.446,372.8734,130258771,0.8,0.08510638,174.7382,-923.05804,0.0017839521,0.021200508,0.056521416,0.0,0.0,0.0
1265.1508,366.99597,130258787,0.7625,0.10638297,343.37485,-296.25677,0.0017839521,0.021200508,0.056521416,0.0,0.0,0.0
1273.0187,360.04285,130258804,0.7625,0.10638297,483.01004,-164.02603,0.0017839521,0.021200508,0.056521416,0.0,0.0,0.0
1281.4028,354.48267,130258821,0.7875,0.12765957,602.3983,-224.59938,0.0017839521,0.021200508,0.056521416,0.0,0.0,0.0
1289.101,349.70557,130258838,0.7625,0.12765957,622.61426,-246.77715,0.0017839521,0.021200508,0.056521416,0.0,0.0,0.0
1296.6205,348.16968,130258854,0.77500004,0.12765957,544.17773,-155.95409,0.0017839521,0.021200508,0.056521416,0.0,0.0,0.0
1302.7234,349.82922,130258871,0.77500004,0.12765957,421.26535,73.17693,0.0017839521,0.021200508,0.056521416,0.0,0.0,0.0
1306.9719,354.28198,130258888,0.8125,0.10638297,299.17444,294.07758,0.0017839521,0.021200508,0.056521416,0.0,0.0,0.0
1313.139,367.0487,130258904,0.77500004,0.07446808,263.06616,684.06384,0.0017839521,0.021200508,0.056521416,0.0,0.0,0.0
1316.7189,378.98157,130258921,0.7875,0.08510638,222.01491,953.19147,0.0017839521,0.021200508,0.056521416,0.0,0.0,0.0
1319.969,389.2738,130258938,0.7875,0.10638297,177.52592,963.85065,0.0017839521,0.021200508,0.056521416,0.0,0.0,0.0
1323.0587,396.4723,130258955,0.77500004,0.10638297,152.04712,739.9521,0.0017839521,0.021200508,0.056521416,0.0,0.0,0.0
1325.9698,403.12085,130258971,0.77500004,0.09574468,132.74326,461.71002,0.0017839521,0.021200508,0.056521416,0.0,0.0,0.0
1330.0613,408.78308,130258988,0.7625,0.08510638,163.17416,252.22087,0.0017839521,0.021200508,0.056521416,0.0,0.0,0.0
1336.6042,412.14185,130259005,0.75,0.08510638,314.2069,188.35052,0.0017839521,0.021200508,0.056521416,0.0,0.0,0.0
1344.1992,411.61694,130259021,0.7375,0.11702127,447.98065,9.0920315,0.0017839521,0.021200508,0.056521416,0.0,0.0,0.0
1357.2699,404.69507,130259038,0.71250004,0.12765957,694.1576,-322.1363,0.0017839521,0.021200508,0.056521416,0.0,0.0,0.0
1366.9968,397.2008,130259055,0.7,0.09574468,832.274,-622.30035,0.0017839521,0.021200508,0.056521416,0.0,0.0,0.0
1374.1083,391.26794,130259072,0.675,0.08510638,705.8603,-719.3668,0.0017839521,0.021200508,0.056521416,0.0,0.0,0.0
1376.0299,389.04077,130259082,0.2125,0.053191487,552.4066,-646.3564,0.0017839521,0.021200508,0.056521416,0.0,0.0,0.0
1376.0299,389.04077,130259088,0.2125,0.053191487,552.4066,-646.3564,0.0017839521,0.021200508,0.056521416,0.0,0.0,0.0
