x,y,timestamp,pressure,fingerarea,velocityx,velocityy,accelx,accely,accelz,gyrox,gyroy,gyroz
240.3996,183.79651,130296431,1.15,0.12765957,0.0,0.0,8.946508E-4,0.019699901,0.011091232,0.0,0.0,0.0
244.25473,190.64929,130296469,1.075,0.12765957,394.06104,700.4944,8.946508E-4,0.019699901,0.011091232,0.0,0.0,0.0
260.46622,221.24365,130296486,1.0,0.11702127,1215.2623,2282.5168,8.946508E-4,0.019699901,0.011091232,0.0,0.0,0.0
288.1482,274.72986,130296503,0.9875,0.08510638,1679.2468,3186.2937,-0.01528427,0.015759915,0.024873734,0.0,0.0,0.0
307.59958,315.06604,130296519,0.96250004,0.09574468,1860.3202,3663.7542,-0.01528427,0.015759915,0.024873734,0.0,0.0,0.0
322.50357,351.6953,130296536,0.96250004,0.10638297,1410.6094,3156.944,-0.01528427,0.015759915,0.024873734,0.0,0.0,0.0
338.83243,387.57324,130296553,0.95,0.10638297,1207.2433,2840.6558,-0.01528427,0.015759915,0.024873734,0.0,0.0,0.0
348.8323,404.7312,130296569,0.96250004,0.08510638,701.4014,1648.8158,-0.01528427,0.015759915,0.024873734,0.0,0.0,0.0
359.63287,424.49927,130296586,0.9375,0.09574468,427.30026,785.1278,-0.01528427,0.015759915,0.024873734,0.0,0.0,0.0
370.4621,436.66882,130296603,0.8625,0.10638297,400.22705,247.09143,-0.01528427,0.015759915,0.024873734,0.0,0.0,0.0
385.25424,449.14062,130296620,0.77500004,0.10638297,586.70917,208.36272,-0.01528427,0.015759915,0.024873734,0.0,0.0,0.0
398.70328,459.2771,130296636,0.7,0.09574468,853.93585,413.8835,-0.01528427,0.015759915,0.024873734,0.0,0.0,0.0
406.92065,464.9043,130296653,0.675,0.08510638,803.5877,349.25186,-0.01528427,0.015759915,0.024873734,0.0,0.0,0.0
412.86734,467.906,130296670,0.5,0.09574468,502.23938,200.33876,-0.01528427,0.015759915,0.024873734,0.0,0.0,0.0
413.3433,468.11755,130296671,0.25,0.11702127,456.89978,167.97762,-0.01528427,0.015759915,0.024873734,0.0,0.0,0.0
413.3433,468.11755,130296679,0.25,0.11702127,456.89978,167.97762,-0.01528427,0.015759915,0.024873734,0.0,0.0,0.0
149.42921,174.02295,130297034,1.0625,0.11702127,0.0,0.0,-0.012227416,-0.019392073,0.03589821,0.0,0.0,0.0
149.42921,174.02295,130297054,1.075,0.09574468,0.010962596,0.014115037,-0.012227416,-0.019392073,0.03589821,0.0,0.0,0.0
149.42921,174.02295,130297071,1.0,0.09574468,-0.0061249845,-0.008287513,-0.012227416,-0.019392073,0.03589821,0.0,0.0,0.0
164.718,156.6853,130297088,0.975,0.08510638,863.0972,-994.9776,-0.012227416,-0.019392073,0.03589821,0.0,0.0,0.0
179.06386,145.19507,130297104,0.925,0.10638297,1176.929,-1148.3126,-0.012227416,-0.019392073,0.03589821,0.0,0.0,0.0
198.80823,133.68738,130297121,0.8875,0.12765957,1400.0566,-1081.4736,-0.012227416,-0.019392073,0.03589821,0.0,0.0,0.0
229.22531,123.1947,130297138,0.90000004,0.09574468,1820.4203,-872.91516,-0.012227416,-0.019392073,0.03589821,0.0,0.0,0.0
262.44748,113.697754,130297154,0.875,0.09574468,2161.5925,-604.32996,-0.012227416,-0.019392073,0.03589821,0.0,0.0,0.0
294.62665,104.53064,130297171,0.8625,0.08510638,2324.4539,-430.8862,-0.012227416,-0.019392073,0.03589821,0.0,0.0,0.0
319.29263,101.04578,130297188,0.90000004,0.08510638,2133.5894,-353.2965,-0.012227416,-0.019392073,0.03589821,0.0,0.0,0.0
339.7681,100.27722,130297205,0.8875,0.08510638,1539.4362,-93.87426,-0.012227416,-0.019392073,0.03589821,0.0,0.0,0.0
355.12924,104.79736,130297221,0.8875,0.09574468,933.81213,244.7542,-0.012227416,-0.019392073,0.03589821,0.0,0.0,0.0
366.10376,112.31738,130297238,0.8625,0.11702127,473.96707,579.17224,-0.012227416,-0.019392073,0.03589821,0.0,0.0,0.0
376.11307,130.72876,130297255,0.8625,0.12765957,312.06567,986.7306,-0.012227416,-0.019392073,0.03589821,0.0,0.0,0.0
379.8542,156.74243,130297271,0.8875,0.07446808,169.69742,1596.5021,-0.012227416,-0.019392073,0.03589821,0.0,0.0,0.0
377.13937,178.75134,130297288,0.8875,0.12765957,-139.36407,1878.4645,-0.012227416,-0.019392073,0.03589821,0.0,0.0,0.0
371.29782,198.00317,130297305,0.925,0.09574468,-500.3458,1754.0404,-0.012227416,-0.019392073,0.03589821,0.0,0.0,0.0
366.39996,211.6742,130297322,0.9375,0.09574468,-687.6055,1169.0243,-0.012227416,-0.019392073,0.03589821,0.0,0.0,0.0
363.0803,218.94458,130297338,0.925,0.08510638,-570.4252,485.0161,-0.012227416,-0.019392073,0.03589821,0.0,0.0,0.0
361.39377,221.94263,130297355,0.95,0.08510638,-258.32407,31.34241,-0.012227416,-0.019392073,0.03589821,0.0,0.0,0.0
360.86038,222.89062,130297372,0.975,0.09574468,-16.687035,-216.67522,-0.012227416,-0.019392073,0.03589821,0.0,0.0,0.0
361.38388,221.96008,130297388,0.95,0.09574468,90.02007,-300.06122,-0.012227416,-0.019392073,0.03589821,0.0,0.0,0.0
368.1143,218.00012,130297405,0.8625,0.07446808,278.80725,-359.91312,-0.012227416,-0.019392073,0.03589821,0.0,0.0,0.0
386.2064,206.46497,130297422,0.875,0.08510638,790.8923,-594.5518,-0.012227416,-0.019392073,0.03589821,0.0,0.0,0.0
403.94943,197.74463,130297438,0.8625,0.12765957,1305.271,-782.2694,-0.012227416,-0.019392073,0.03589821,0.0,0.0,0.0
421.52197,191.06616,130297455,0.83750004,0.12765957,1523.3152,-763.07635,-0.012227416,-0.019392073,0.03589821,0.0,0.0,0.0
439.0576,189.56897,130297472,0.85,0.10638297,1275.3212,-301.9337,-0.012227416,-0.019392073,0.03589821,0.0,0.0,0.0
454.33698,192.8103,130297489,0.825,0.09574468,1039.7241,155.14165,-0.012227416,-0.019392073,0.03589821,0.0,0.0,0.0
467.39093,198.45825,130297505,0.83750004,0.09574468,820.7436,490.68732,-0.012227416,-0.019392073,0.03589821,0.0,0.0,0.0
481.35455,209.03003,130297522,0.83750004,0.08510638,730.91364,765.48645,-0.012227416,-0.019392073,0.03589821,0.0,0.0,0.0
490.69562,218.89539,130297539,0.83750004,0.08510638,578.4674,847.3292,-0.012227416,-0.019392073,0.03589821,0.0,0.0,0.0
497.5714,228.67578,130297555,0.8625,0.10638297,436.228,829.6049,-0.012227416,-0.019392073,0.03589821,0.0,0.0,0.0
503.29858,252.92139,130297572,0.875,0.08510638,280.9672,1083.4933,0.006218061,0.016486347,-0.0032815933,0.0,0.0,0.0
498.5943,289.87573,130297589,0.8625,0.10638297,-116.726776,1875.8364,0.006218061,0.016486347,-0.0032815933,0.0,0.0,0.0
484.43268,336.7135,130297606,0.83750004,0.12765957,-726.4209,2899.445,0.006218061,0.016486347,-0.0032815933,0.0,0.0,0.0
469.3246,375.18103,130297622,0.85,0.07446808,-1233.7648,3296.2163,0.006218061,0.016486347,-0.0032815933,0.0,0.0,0.0
454.49628,403.58643,130297639,0.8875,0.09574468,-1418.1779,2766.8213,0.006218061,0.016486347,-0.0032815933,0.0,0.0,0.0
441.67163,422.0786,130297656,0.875,0.09574468,-1209.4357,1592.1793,0.006218061,0.016486347,-0.0032815933,0.0,0.0,0.0
426.6484,439.41052,130297672,0.8875,0.12765957,-860.2502,564.1629,0.006218061,0.016486347,-0.0032815933,0.0,0.0,0.0
412.3847,450.48254,130297689,0.8875,0.10638297,-860.7217,347.16696,0.006218061,0.016486347,-0.0032815933,0.0,0.0,0.0
404.84607,453.9015,130297701,0.8125,0.10638297,-806.1667,138.80275,0.006218061,0.016486347,-0.0032815933,0.0,0.0,0.0
404.84607,453.9015,130297708,0.8125,0.10638297,-806.1667,138.80275,0.006218061,0.016486347,-0.0032815933,0.0,0.0,0.0
547.2997,416.58435,130298330,0.90000004,0.08510638,0.0,0.0,0.0049744397,-0.018810928,-0.01862526,0.0,0.0,0.0
547.2997,416.58435,130298357,0.875,0.10638297,-0.012906088,-0.009102682,0.0049744397,-0.018810928,-0.01862526,0.0,0.0,0.0
550.7677,408.52283,130298374,0.85,0.12765957,188.82143,-438.85004,0.0049744397,-0.018810928,-0.01862526,0.0,0.0,0.0
562.7225,385.2738,130298391,0.8,0.06382979,724.2791,-1502.5348,0.0049744397,-0.018810928,-0.01862526,0.0,0.0,0.0
580.5085,356.41125,130298407,0.8125,0.12765957,1193.6416,-2130.0342,0.0049744397,-0.018810928,-0.01862526,0.0,0.0,0.0
596.4277,333.67004,130298424,0.85,0.07446808,1360.1107,-2223.9055,0.0049744397,-0.018810928,-0.01862526,0.0,0.0,0.0
617.0758,312.80823,130298441,0.8125,0.08510638,1489.2827,-1944.6945,0.0049744397,-0.018810928,-0.01862526,0.0,0.0,0.0
637.82654,297.8009,130298458,0.8125,0.12765957,1427.8723,-1196.4261,0.0049744397,-0.018810928,-0.01862526,0.0,0.0,0.0
656.0976,289.4038,130298474,0.825,0.09574468,1294.3142,-552.969,0.0049744397,-0.018810928,-0.01862526,0.0,0.0,0.0
667.28436,287.64807,130298491,0.825,0.09574468,1002.0281,-35.632282,0.0049744397,-0.018810928,-0.01862526,0.0,0.0,0.0
673.248,287.75146,130298508,0.83750004,0.10638297,496.69455,301.82715,0.0049744397,-0.018810928,-0.01862526,0.0,0.0,0.0
675.99194,288.6399,130298524,0.85,0.12765957,26.253757,428.20868,0.0049744397,-0.018810928,-0.01862526,0.0,0.0,0.0
676.75757,288.93872,130298541,0.875,0.12765957,-236.73528,322.89252,0.0049744397,-0.018810928,-0.01862526,0.0,0.0,0.0
675.6299,290.78894,130298558,0.83750004,0.10638297,-311.20258,198.71323,0.0049744397,-0.018810928,-0.01862526,0.0,0.0,0.0
666.90936,295.3567,130298575,0.83750004,0.10638297,-408.17215,188.23376,0.0049744397,-0.018810928,-0.01862526,0.0,0.0,0.0
641.8038,309.9392,130298591,0.85,0.08510638,-1124.6775,578.0958,0.0049744397,-0.018810928,-0.01862526,0.0,0.0,0.0
615.5074,330.18335,130298608,0.8625,0.08510638,-1909.9813,1203.2128,0.0049744397,-0.018810928,-0.01862526,0.0,0.0,0.0
593.4702,353.646,130298625,0.83750004,0.11702127,-2151.808,1670.3618,0.0049744397,-0.018810928,-0.01862526,0.0,0.0,0.0
572.9175,382.31702,130298641,0.8625,0.08510638,-1792.9966,1999.346,-0.020020455,-0.023048744,-0.030900002,0.0,0.0,0.0
553.69214,418.23718,130298658,0.8625,0.08510638,-1280.4822,2300.6204,-0.020020455,-0.023048744,-0.030900002,0.0,0.0,0.0
549.80225,435.21924,130298675,0.8875,0.08510638,-615.70514,1993.2511,-0.020020455,-0.023048744,-0.030900002,0.0,0.0,0.0
550.3357,443.50232,130298691,0.8875,0.10638297,77.067215,1013.8903,-0.020020455,-0.023048744,-0.030900002,0.0,0.0,0.0
554.8081,448.13586,130298708,0.875,0.10638297,596.7069,76.11492,-0.020020455,-0.023048744,-0.030900002,0.0,0.0,0.0
571.0671,452.6001,130298725,0.825,0.12765957,1107.9182,-373.65045,-0.020020455,-0.023048744,-0.030900002,0.0,0.0,0.0
597.9083,447.55872,130298742,0.8125,0.08510638,1618.6725,-485.0699,-0.020020455,-0.023048744,-0.030900002,0.0,0.0,0.0
620.20337,429.17456,130298758,0.7875,0.06382979,1949.3733,-830.2895,-0.020020455,-0.023048744,-0.030900002,0.0,0.0,0.0
640.52344,405.3672,130298775,0.7625,0.11702127,1896.1725,-1600.0474,-0.020020455,-0.023048744,-0.030900002,0.0,0.0,0.0
656.2377,377.53748,130298792,0.7625,0.08510638,1313.5575,-2187.5457,-0.020020455,-0.023048744,-0.030900002,0.0,0.0,0.0
677.14026,334.2312,130298808,0.7625,0.08510638,990.5843,-2726.935,-0.020020455,-0.023048744,-0.030900002,0.0,0.0,0.0
686.12726,311.8297,130298825,0.7625,0.08510638,705.54926,-2461.1978,-0.020020455,-0.023048744,-0.030900002,0.0,0.0,0.0
691.42926,298.48303,130298842,0.7625,0.12765957,360.04593,-1545.927,-0.020020455,-0.023048744,-0.030900002,0.0,0.0,0.0
692.68823,294.97327,130298859,0.8,0.11702127,-30.422705,-367.72333,-0.020020455,-0.023048744,-0.030900002,0.0,0.0,0.0
692.7523,293.97095,130298875,0.825,0.12765957,-341.3838,554.75806,-0.020020455,-0.023048744,-0.030900002,0.0,0.0,0.0
686.5314,307.7827,130298892,0.825,0.06382979,-460.53793,1006.2789,-0.020020455,-0.023048744,-0.030900002,0.0,0.0,0.0
671.36676,336.4281,130298909,0.825,0.10638297,-810.4229,1700.5013,-0.020020455,-0.023048744,-0.030900002,0.0,0.0,0.0
660.59894,362.26025,130298925,0.825,0.07446808,-1042.1508,2215.6687,-0.020020455,-0.023048744,-0.030900002,0.0,0.0,0.0
652.3587,383.72986,130298942,0.825,0.11702127,-976.71814,2210.2754,-0.020020455,-0.023048744,-0.030900002,0.0,0.0,0.0
648.34735,398.52795,130298959,0.8125,0.12765957,-573.4158,1572.8563,-0.020020455,-0.023048744,-0.030900002,0.0,0.0,0.0
648.48785,407.8866,130298976,0.8125,0.09574468,-44.40679,700.6274,-0.020020455,-0.023048744,-0.030900002,0.0,0.0,0.0
650.0479,415.771,130298992,0.8125,0.08510638,262.301,226.738,-0.020020455,-0.023048744,-0.030900002,0.0,0.0,0.0
653.2736,420.32202,130299009,0.8125,0.07446808,355.832,85.194145,-0.020020455,-0.023048744,-0.030900002,0.0,0.0,0.0
664.1065,421.32178,130299026,0.8125,0.06382979,533.8623,-21.566425,-0.020020455,-0.023048744,-0.030900002,0.0,0.0,0.0
682.1146,415.9807,130299042,0.77500004,0.08510638,993.03595,-311.37628,-0.020020455,-0.023048744,-0.030900002,0.0,0.0,0.0
701.45844,404.56738,130299059,0.75,0.12765957,1414.8734,-713.31586,-0.020020455,-0.023048744,-0.030900002,0.0,0.0,0.0
720.982,387.08716,130299076,0.7625,0.06382979,1585.3007,-1146.7701,-0.020020455,-0.023048744,-0.030900002,0.0,0.0,0.0
740.3623,362.21582,130299093,0.7375,0.12765957,1428.3259,-1601.021,-0.020020455,-0.023048744,-0.030900002,0.0,0.0,0.0
760.9843,330.02673,130299109,0.7375,0.08510638,1306.8347,-2102.929,-0.020020455,-0.023048744,-0.030900002,0.0,0.0,0.0
788.999,266.74768,130299126,0.7375,0.06382979,1444.0516,-3131.0535,-0.020020455,-0.023048744,-0.030900002,0.0,0.0,0.0
798.4451,227.02393,130299143,0.725,0.07446808,1208.4817,-3570.2073,-0.020020455,-0.023048744,-0.030900002,0.0,0.0,0.0
801.0185,188.04688,130299159,0.7625,0.12765957,569.68933,-3356.8628,0.007983625,0.005560994,-0.008719444,0.0,0.0,0.0
801.0223,166.46448,130299176,0.7625,0.08510638,-117.64032,-2370.3645,0.007983625,0.005560994,-0.008719444,0.0,0.0,0.0
799.24286,149.79065,130299193,0.77500004,0.11702127,-581.0043,-883.8773,0.007983625,0.005560994,-0.008719444,0.0,0.0,0.0
796.4109,139.71313,130299210,0.7625,0.12765957,-514.98285,-181.20734,0.007983625,0.005560994,-0.008719444,0.0,0.0,0.0
790.6557,134.67798,130299226,0.7875,0.10638297,-431.7548,232.50232,0.007983625,0.005560994,-0.008719444,0.0,0.0,0.0
777.18256,132.8789,130299243,0.7875,0.10638297,-657.37036,317.60522,0.007983625,0.005560994,-0.008719444,0.0,0.0,0.0
756.887,139.3479,130299260,0.8,0.11702127,-1127.2942,498.48236,0.007983625,0.005560994,-0.008719444,0.0,0.0,0.0
737.30725,154.35828,130299276,0.85,0.08510638,-1528.3503,908.32336,0.007983625,0.005560994,-0.008719444,0.0,0.0,0.0
724.93115,171.05481,130299293,0.85,0.09574468,-1429.7917,1307.7808,0.007983625,0.005560994,-0.008719444,0.0,0.0,0.0
712.5461,206.8081,130299310,0.83750004,0.07446808,-947.98737,2016.1067,0.007983625,0.005560994,-0.008719444,0.0,0.0,0.0
710.1776,238.42639,130299327,0.8,0.10638297,-318.84854,2413.124,0.007983625,0.005560994,-0.008719444,0.0,0.0,0.0
714.8175,270.53625,130299343,0.7875,0.08510638,282.18765,2495.1965,0.007983625,0.005560994,-0.008719444,0.0,0.0,0.0
723.1818,302.64062,130299360,0.77500004,0.08510638,725.1122,2328.6763,0.007983625,0.005560994,-0.008719444,0.0,0.0,0.0
731.6893,332.59985,130299377,0.7875,0.09574468,948.9216,1988.3636,0.007983625,0.005560994,-0.008719444,0.0,0.0,0.0
739.7787,360.36548,130299393,0.7625,0.08510638,904.3116,1708.4081,0.007983625,0.005560994,-0.008719444,0.0,0.0,0.0
747.50507,383.76184,130299410,0.75,0.09574468,607.21924,1469.7048,0.007983625,0.005560994,-0.008719444,0.0,0.0,0.0
754.0307,400.7655,130299427,0.77500004,0.12765957,440.4223,1115.2747,0.007983625,0.005560994,-0.008719444,0.0,0.0,0.0
760.139,413.4331,130299443,0.77500004,0.08510638,336.4419,660.9341,0.007983625,0.005560994,-0.008719444,0.0,0.0,0.0
765.4542,420.99792,130299460,0.77500004,0.06382979,286.39334,274.46286,0.007983625,0.005560994,-0.008719444,0.0,0.0,0.0
771.7038,427.6703,130299477,0.77500004,0.06382979,291.40787,87.83809,0.007983625,0.005560994,-0.008719444,0.0,0.0,0.0
778.3868,431.98315,130299494,0.77500004,0.08510638,349.7684,37.77912,0.007983625,0.005560994,-0.008719444,0.0,0.0,0.0
787.2424,433.46594,130299510,0.75,0.07446808,473.43634,-3.1208026,0.007983625,0.005560994,-0.008719444,0.0,0.0,0.0
793.4883,429.62537,130299527,0.71250004,0.08510638,493.82684,-198.93817,0.007983625,0.005560994,-0.008719444,0.0,0.0,0.0
800.19434,414.00085,130299544,0.4625,0.12765957,449.0857,-678.77783,0.007983625,0.005560994,-0.008719444,0.0,0.0,0.0
800.19434,414.00085,130299551,0.4625,0.12765957,449.0857,-678.77783,0.007983625,0.005560994,-0.008719444,0.0,0.0,0.0
874.1933,436.13147,130300318,0.7875,0.07446808,0.0,0.0,0.008309513,0.009959072,0.039218903,0.0,0.0,0.0
874.1933,436.13147,130300346,0.77500004,0.07446808,-0.33827987,-0.16755159,0.008309513,0.009959072,0.039218903,0.0,0.0,0.0
874.1933,436.13147,130300363,0.75,0.07446808,-0.072929144,-0.036294736,0.008309513,0.009959072,0.039218903,0.0,0.0,0.0
878.09564,407.43176,130300379,0.7375,0.12765957,170.01358,-1418.7338,0.008309513,0.009959072,0.039218903,0.0,0.0,0.0
886.64087,380.65564,130300396,0.725,0.06382979,458.8101,-2174.911,0.008309513,0.009959072,0.039218903,0.0,0.0,0.0
895.6405,364.24414,130300413,0.75,0.12765957,641.8675,-2086.5732,0.008309513,0.009959072,0.039218903,0.0,0.0,0.0
909.6637,344.3601,130300429,0.7375,0.09574468,906.77423,-1600.442,0.008309513,0.009959072,0.039218903,0.0,0.0,0.0
926.34656,327.58276,130300446,0.71250004,0.06382979,1104.335,-1060.1798,0.008309513,0.009959072,0.039218903,0.0,0.0,0.0
942.43414,316.52966,130300463,0.7375,0.08510638,1171.2365,-595.181,0.008309513,0.009959072,0.039218903,0.0,0.0,0.0
955.31134,306.28162,130300480,0.71250004,0.12765957,1074.2421,-532.7013,0.008309513,0.009959072,0.039218903,0.0,0.0,0.0
966.4376,298.29553,130300496,0.725,0.12765957,828.2684,-364.17944,0.008309513,0.009959072,0.039218903,0.0,0.0,0.0
972.9149,291.96838,130300513,0.725,0.11702127,460.87592,-229.14343,0.008309513,0.009959072,0.039218903,0.0,0.0,0.0
975.7827,288.79102,130300530,0.7625,0.09574468,151.4736,-158.76851,0.008309513,0.009959072,0.039218903,0.0,0.0,0.0
977.6526,286.42493,130300546,0.7625,0.08510638,-53.610977,-56.798077,0.008309513,0.009959072,0.039218903,0.0,0.0,0.0
978.1594,285.97437,130300562,0.7625,0.11702127,-141.6422,44.693974,0.008309513,0.009959072,0.039218903,0.0,0.0,0.0
977.8323,285.97437,130300580,0.77500004,0.11702127,-132.75739,101.70686,0.008309513,0.009959072,0.039218903,0.0,0.0,0.0
976.42773,286.625,130300596,0.75,0.12765957,-150.36852,118.81297,0.008309513,0.009959072,0.039218903,0.0,0.0,0.0
971.6305,289.1952,130300613,0.75,0.12765957,-250.49435,167.06857,0.008309513,0.009959072,0.039218903,0.0,0.0,0.0
964.0935,295.36633,130300630,0.75,0.12765957,-429.42886,292.6612,0.008309513,0.009959072,0.039218903,0.0,0.0,0.0
953.2543,303.67603,130300647,0.7625,0.08510638,-674.5093,510.9357,0.008309513,0.009959072,0.039218903,0.0,0.0,0.0
943.39844,315.6714,130300663,0.77500004,0.07446808,-794.6042,770.94183,0.008309513,0.009959072,0.039218903,0.0,0.0,0.0
934.5669,328.67737,130300680,0.75,0.12765957,-739.64636,917.08215,0.008309513,0.009959072,0.039218903,0.0,0.0,0.0
922.60736,350.74854,130300697,0.7625,0.09574468,-701.28827,1242.4023,0.008309513,0.009959072,0.039218903,0.0,0.0,0.0
915.4486,363.37256,130300713,0.77500004,0.08510638,-563.79156,1222.2356,0.008309513,0.009959072,0.039218903,0.0,0.0,0.0
910.7593,377.69214,130300730,0.77500004,0.09574468,-385.04166,1043.6105,0.008309513,0.009959072,0.039218903,0.0,0.0,0.0
907.96136,388.23486,130300747,0.77500004,0.12765957,-155.55026,672.8247,0.008309513,0.009959072,0.039218903,0.0,0.0,0.0
906.9284,399.2959,130300764,0.77500004,0.12765957,43.82119,518.36633,0.0066476017,-0.032032743,-6.246567E-4,0.0,0.0,0.0
906.9914,407.7777,130300780,0.77500004,0.08510638,97.30086,537.4151,0.0066476017,-0.032032743,-6.246567E-4,0.0,0.0,0.0
909.03156,412.76318,130300797,0.7625,0.09574468,187.361,359.50192,0.0066476017,-0.032032743,-6.246567E-4,0.0,0.0,0.0
913.8903,417.75964,130300814,0.77500004,0.08510638,287.81335,173.0501,0.0066476017,-0.032032743,-6.246567E-4,0.0,0.0,0.0
922.5828,423.29614,130300830,0.75,0.07446808,497.86774,123.12298,0.0066476017,-0.032032743,-6.246567E-4,0.0,0.0,0.0
931.90564,426.3048,130300847,0.75,0.06382979,689.47675,162.02199,0.0066476017,-0.032032743,-6.246567E-4,0.0,0.0,0.0
940.75,428.15234,130300864,0.725,0.06382979,731.7877,120.36427,0.0066476017,-0.032032743,-6.246567E-4,0.0,0.0,0.0
949.5948,428.1349,130300881,0.7375,0.07446808,669.22034,16.081816,0.0066476017,-0.032032743,-6.246567E-4,0.0,0.0,0.0
960.7241,424.23877,130300897,0.71250004,0.08510638,622.107,-207.81221,0.0066476017,-0.032032743,-6.246567E-4,0.0,0.0,0.0
971.3428,419.32373,130300914,0.725,0.08510638,635.4325,-365.75177,0.0066476017,-0.032032743,-6.246567E-4,0.0,0.0,0.0
980.099,413.65808,130300931,0.7,0.09574468,616.62354,-459.02048,0.0066476017,-0.032032743,-6.246567E-4,0.0,0.0,0.0
987.3782,405.3634,130300947,0.7,0.10638297,545.47723,-559.719,0.0066476017,-0.032032743,-6.246567E-4,0.0,0.0,0.0
994.09644,397.14,130300964,0.7,0.08510638,406.16238,-595.7086,0.0066476017,-0.032032743,-6.246567E-4,0.0,0.0,0.0
997.72034,390.1941,130300981,0.725,0.06382979,254.8176,-572.24023,0.0066476017,-0.032032743,-6.246567E-4,0.0,0.0,0.0
1002.05896,380.0791,130300997,0.725,0.06382979,137.6556,-535.9941,0.0066476017,-0.032032743,-6.246567E-4,0.0,0.0,0.0
1006.9524,365.2578,130301014,0.725,0.09574468,143.03262,-717.8415,0.0066476017,-0.032032743,-6.246567E-4,0.0,0.0,0.0
1010.83594,350.35522,130301031,0.71250004,0.10638297,201.77939,-968.8405,0.0066476017,-0.032032743,-6.246567E-4,0.0,0.0,0.0
1012.9851,339.12,130301048,0.725,0.08510638,191.08038,-991.14014,0.0066476017,-0.032032743,-6.246567E-4,0.0,0.0,0.0
1014.61536,331.4027,130301064,0.725,0.07446808,105.27424,-738.30524,0.0066476017,-0.032032743,-6.246567E-4,0.0,0.0,0.0
1016.17224,325.82263,130301081,0.7375,0.07446808,26.591692,-325.24875,0.0066476017,-0.032032743,-6.246567E-4,0.0,0.0,0.0
1016.1471,322.15393,130301098,0.7375,0.07446808,-12.3511715,-100.05017,0.0066476017,-0.032032743,-6.246567E-4,0.0,0.0,0.0
1015.52893,317.33008,130301114,0.7375,0.08510638,-48.32903,-66.25702,0.0066476017,-0.032032743,-6.246567E-4,0.0,0.0,0.0
1013.2865,311.66614,130301131,0.7375,0.10638297,-127.49369,-174.52307,0.0066476017,-0.032032743,-6.246567E-4,0.0,0.0,0.0
1011.2528,308.37195,130301148,0.75,0.12765957,-188.49763,-235.394,0.0066476017,-0.032032743,-6.246567E-4,0.0,0.0,0.0
1009.9381,305.1466,130301165,0.77500004,0.10638297,-167.79971,-238.53804,0.0066476017,-0.032032743,-6.246567E-4,0.0,0.0,0.0
1008.12695,301.92725,130301181,0.7625,0.10638297,-126.537346,-160.97423,0.0066476017,-0.032032743,-6.246567E-4,0.0,0.0,0.0
1005.7661,298.77808,130301198,0.7625,0.10638297,-107.428505,-135.4159,0.0066476017,-0.032032743,-6.246567E-4,0.0,0.0,0.0
1002.63025,296.92004,130301215,0.7625,0.10638297,-159.14644,-126.81224,0.0066476017,-0.032032743,-6.246567E-4,0.0,0.0,0.0
999.55505,295.74792,130301231,0.7625,0.10638297,-210.35951,-81.45546,0.0066476017,-0.032032743,-6.246567E-4,0.0,0.0,0.0
996.40466,295.74792,130301248,0.7875,0.10638297,-226.68675,-6.0816407,0.0066476017,-0.032032743,-6.246567E-4,0.0,0.0,0.0
993.35767,297.40454,130301265,0.7875,0.10638297,-208.02654,105.2772,0.0066476017,-0.032032743,-6.246567E-4,0.0,0.0,0.0
991.1465,299.3097,130301282,0.8,0.08510638,-165.39099,169.70819,0.0066476017,-0.032032743,-6.246567E-4,0.0,0.0,0.0
989.60876,301.07898,130301298,0.7875,0.08510638,-112.23526,195.61353,0.0053180754,-0.017626196,0.015501022,0.0,0.0,0.0
988.5752,302.99963,130301315,0.8125,0.08510638,-52.725906,165.24069,0.0053180754,-0.017626196,0.015501022,0.0,0.0,0.0
988.1561,304.93518,130301332,0.8125,0.08510638,-5.2897882,127.15843,0.0053180754,-0.017626196,0.015501022,0.0,0.0,0.0
987.6564,306.7556,130301348,0.8,0.08510638,12.262173,105.197495,0.0053180754,-0.017626196,0.015501022,0.0,0.0,0.0
987.6564,308.187,130301365,0.825,0.06382979,20.511475,103.60326,0.0053180754,-0.017626196,0.015501022,0.0,0.0,0.0
989.13416,309.07544,130301382,0.8125,0.06382979,56.925903,81.63387,0.0053180754,-0.017626196,0.015501022,0.0,0.0,0.0
992.31116,309.964,130301399,0.8,0.06382979,157.68927,41.8287,0.0053180754,-0.017626196,0.015501022,0.0,0.0,0.0
997.1162,309.964,130301415,0.8,0.08510638,292.97025,1.0854427,0.0053180754,-0.017626196,0.015501022,0.0,0.0,0.0
1003.36743,309.964,130301432,0.7875,0.08510638,424.5011,-23.59562,0.0053180754,-0.017626196,0.015501022,0.0,0.0,0.0
1010.4652,309.07544,130301449,0.7625,0.08510638,503.77896,-54.31619,0.0053180754,-0.017626196,0.015501022,0.0,0.0,0.0
1017.7759,307.39258,130301465,0.75,0.09574468,525.5618,-100.31986,0.0053180754,-0.017626196,0.015501022,0.0,0.0,0.0
1022.59973,305.5376,130301482,0.75,0.11702127,452.81274,-139.44986,0.0053180754,-0.017626196,0.015501022,0.0,0.0,0.0
1027.7966,303.69006,130301499,0.7375,0.12765957,329.01218,-151.98672,0.0053180754,-0.017626196,0.015501022,0.0,0.0,0.0
1031.933,299.93176,130301515,0.75,0.12765957,238.06342,-196.39809,0.0053180754,-0.017626196,0.015501022,0.0,0.0,0.0
1036.1941,295.25623,130301532,0.75,0.12765957,192.33463,-268.48355,0.0053180754,-0.017626196,0.015501022,0.0,0.0,0.0
1039.1487,291.59082,130301549,0.75,0.09574468,174.44579,-297.70566,0.0053180754,-0.017626196,0.015501022,0.0,0.0,0.0
1041.0702,290.0337,130301566,0.7375,0.10638297,130.00961,-231.65324,0.0053180754,-0.017626196,0.015501022,0.0,0.0,0.0
1040.639,290.41687,130301579,0.6375,0.10638297,43.635178,-111.3191,0.0053180754,-0.017626196,0.015501022,0.0,0.0,0.0
1040.639,290.41687,130301586,0.6375,0.10638297,43.635178,-111.3191,0.0053180754,-0.017626196,0.015501022,0.0,0.0,0.0
1160.6,315.29504,130307212,0.58750004,0.06382979,0.0,0.0,0.026319325,0.0056506395,0.0125255585,0.0,0.0,0.0
1160.6,315.29504,130307230,0.625,0.06382979,0.0035944453,3.0539693E-5,0.026319325,0.0056506395,0.0125255585,0.0,0.0,0.0
1160.6,315.29504,130307247,0.6875,0.06382979,8.1481447E-4,-0.0014264605,0.026319325,0.0056506395,0.0125255585,0.0,0.0,0.0
1160.6,315.29504,130307264,0.725,0.06382979,0.011932637,0.0045478945,0.026319325,0.0056506395,0.0125255585,0.0,0.0,0.0
1160.6,315.29504,130307281,0.725,0.08510638,0.0045734798,7.4416905E-4,0.026319325,0.0056506395,0.0125255585,0.0,0.0,0.0
1160.6,315.29504,130307297,0.725,0.09574468,0.006976448,0.0017009065,0.026319325,0.0056506395,0.0125255585,0.0,0.0,0.0
1160.6,315.29504,130307314,0.71250004,0.11702127,-0.073261164,-0.019581158,0.026319325,0.0056506395,0.0125255585,0.0,0.0,0.0
1134.1234,305.08154,130307331,0.7,0.10638297,-823.385,-323.66577,0.026319325,0.0056506395,0.0125255585,0.0,0.0,0.0
1120.6649,302.85596,130307347,0.725,0.09574468,-1286.5286,-421.99902,0.026319325,0.0056506395,0.0125255585,0.0,0.0,0.0
1109.034,304.41748,130307364,0.725,0.08510638,-1311.7722,-245.0757,0.026319325,0.0056506395,0.0125255585,0.0,0.0,0.0
1096.909,309.05078,130307381,0.725,0.08510638,-909.9771,204.43657,0.026319325,0.0056506395,0.0125255585,0.0,0.0,0.0
1085.7128,317.82104,130307398,0.71250004,0.08510638,-501.73895,651.12274,0.026319325,0.0056506395,0.0125255585,0.0,0.0,0.0
1074.8875,328.52356,130307414,0.7375,0.09574468,-638.4741,793.6883,0.026319325,0.0056506395,0.0125255585,0.0,0.0,0.0
1065.5752,338.9746,130307431,0.7375,0.10638297,-582.4914,869.2682,0.026319325,0.0056506395,0.0125255585,0.0,0.0,0.0
1057.803,349.0968,130307448,0.7375,0.08510638,-472.9598,800.89197,0.026319325,0.0056506395,0.0125255585,0.0,0.0,0.0
1049.4556,366.07153,130307464,0.725,0.06382979,-413.9199,856.1331,0.026319325,0.0056506395,0.0125255585,0.0,0.0,0.0
1045.175,380.00037,130307481,0.7375,0.06382979,-315.14157,959.24615,0.026319325,0.0056506395,0.0125255585,0.0,0.0,0.0
1044.138,391.10828,130307498,0.71250004,0.10638297,-112.10822,891.57556,0.026319325,0.0056506395,0.0125255585,0.0,0.0,0.0
1044.7056,402.2025,130307514,0.7375,0.08510638,95.92239,743.8443,0.026319325,0.0056506395,0.0125255585,0.0,0.0,0.0
1046.8566,413.31226,130307531,0.725,0.06382979,267.69785,586.0777,0.026319325,0.0056506395,0.0125255585,0.0,0.0,0.0
1049.5642,422.92932,130307548,0.7375,0.06382979,316.12323,516.629,0.026319325,0.0056506395,0.0125255585,0.0,0.0,0.0
1052.9995,431.448,130307565,0.725,0.06382979,303.0054,522.9921,0.026319325,0.0056506395,0.0125255585,0.0,0.0,0.0
1058.0547,440.0249,130307581,0.725,0.09574468,310.3249,467.19073,0.026319325,0.0056506395,0.0125255585,0.0,0.0,0.0
1062.1719,445.51367,130307598,0.71250004,0.10638297,328.75357,365.5142,0.026319325,0.0056506395,0.0125255585,0.0,0.0,0.0
1067.0458,450.96802,130307615,0.725,0.12765957,328.69897,278.80154,0.026319325,0.0056506395,0.0125255585,0.0,0.0,0.0
1072.0482,455.03833,130307631,0.725,0.12765957,312.57718,200.07516,0.026319325,0.0056506395,0.0125255585,0.0,0.0,0.0
1078.2216,458.07593,130307648,0.7375,0.12765957,334.8015,132.14505,0.026319325,0.0056506395,0.0125255585,0.0,0.0,0.0
1084.5875,459.98474,130307665,0.725,0.10638297,380.8256,68.38879,0.026319325,0.0056506395,0.0125255585,0.0,0.0,0.0
1089.0187,460.1211,130307682,0.71250004,0.12765957,387.2376,0.49061525,0.026319325,0.0056506395,0.0125255585,0.0,0.0,0.0
1092.6627,460.1211,130307698,0.725,0.10638297,272.17804,-68.495514,0.026319325,0.0056506395,0.0125255585,0.0,0.0,0.0
1094.7347,460.1211,130307715,0.725,0.10638297,139.02829,-78.21225,0.0050554574,0.020520538,0.010020256,0.0,0.0,0.0
1097.8496,460.1211,130307732,0.725,0.10638297,81.232346,-56.199867,0.0050554574,0.020520538,0.010020256,0.0,0.0,0.0
1101.071,458.07642,130307748,0.71250004,0.10638297,109.90595,-77.008766,0.0050554574,0.020520538,0.010020256,0.0,0.0,0.0
1105.4126,454.97253,130307765,0.725,0.10638297,200.7783,-146.86734,0.0050554574,0.020520538,0.010020256,0.0,0.0,0.0
1107.9725,453.52148,130307782,0.7,0.09574468,220.57265,-189.84189,0.0050554574,0.020520538,0.010020256,0.0,0.0,0.0
1111.5879,450.39734,130307799,0.6875,0.08510638,219.82564,-204.88356,0.0050554574,0.020520538,0.010020256,0.0,0.0,0.0
1113.9274,447.60828,130307815,0.6875,0.08510638,172.0644,-190.8158,0.0050554574,0.020520538,0.010020256,0.0,0.0,0.0
1116.7814,443.83105,130307832,0.6875,0.06382979,145.48396,-212.46548,0.0050554574,0.020520538,0.010020256,0.0,0.0,0.0
1119.3484,440.1565,130307849,0.7,0.07446808,142.63667,-243.10155,0.0050554574,0.020520538,0.010020256,0.0,0.0,0.0
1121.4337,437.17896,130307865,0.7,0.07446808,120.08172,-230.46451,0.0050554574,0.020520538,0.010020256,0.0,0.0,0.0
1123.9785,433.62415,130307882,0.6875,0.07446808,126.31928,-203.9139,0.0050554574,0.020520538,0.010020256,0.0,0.0,0.0
1126.1104,431.6897,130307899,0.675,0.07446808,126.04095,-163.72514,0.0050554574,0.020520538,0.010020256,0.0,0.0,0.0
1128.1907,428.95227,130307916,0.6875,0.08510638,125.72963,-132.40785,0.0050554574,0.020520538,0.010020256,0.0,0.0,0.0
1130.8574,425.17578,130307932,0.6875,0.08510638,136.63406,-161.68088,0.0050554574,0.020520538,0.010020256,0.0,0.0,0.0
1133.487,422.35596,130307949,0.6875,0.08510638,150.98561,-181.64055,0.0050554574,0.020520538,0.010020256,0.0,0.0,0.0
1136.1184,419.5338,130307966,0.6875,0.09574468,162.31372,-183.67448,0.0050554574,0.020520538,0.010020256,0.0,0.0,0.0
1137.4905,416.79236,130307982,0.7,0.11702127,143.30745,-184.64842,0.0050554574,0.020520538,0.010020256,0.0,0.0,0.0
1138.8384,413.98572,130307999,0.675,0.11702127,87.353615,-164.93533,0.0050554574,0.020520538,0.010020256,0.0,0.0,0.0
1139.8838,410.26868,130308016,0.6875,0.12765957,40.654427,-192.84618,0.0050554574,0.020520538,0.010020256,0.0,0.0,0.0
1140.8955,406.672,130308032,0.6875,0.12765957,24.59626,-215.39224,0.0050554574,0.020520538,0.010020256,0.0,0.0,0.0
1142.4469,402.93372,130308049,0.6875,0.10638297,51.326157,-233.68689,0.0050554574,0.020520538,0.010020256,0.0,0.0,0.0
1144.3922,397.60522,130308066,0.7,0.08510638,93.995865,-283.67545,0.0050554574,0.020520538,0.010020256,0.0,0.0,0.0
1146.0415,391.93127,130308083,0.7,0.07446808,126.803246,-353.09564,0.0050554574,0.020520538,0.010020256,0.0,0.0,0.0
1147.0842,388.22375,130308099,0.6875,0.07446808,108.622795,-340.75787,0.0050554574,0.020520538,0.010020256,0.0,0.0,0.0
1148.1283,384.51233,130308116,0.7,0.07446808,66.299324,-260.42197,0.0050554574,0.020520538,0.010020256,0.0,0.0,0.0
1149.6686,379.92505,130308133,0.7,0.06382979,58.73198,-222.54689,0.0050554574,0.020520538,0.010020256,0.0,0.0,0.0
1150.1034,377.3036,130308149,0.7,0.06382979,44.764214,-176.13376,0.0050554574,0.020520538,0.010020256,0.0,0.0,0.0
1151.2352,374.58984,130308166,0.7,0.06382979,47.682446,-153.80598,0.0050554574,0.020520538,0.010020256,0.0,0.0,0.0
1151.6029,372.70215,130308183,0.7,0.06382979,33.402573,-110.21363,0.0050554574,0.020520538,0.010020256,0.0,0.0,0.0
1151.6029,370.8733,130308200,0.7,0.06382979,1.8299421,-68.08716,0.0050554574,0.020520538,0.010020256,0.0,0.0,0.0
1152.3668,368.55493,130308216,0.7,0.08510638,6.547173,-92.23076,0.0050554574,0.020520538,0.010020256,0.0,0.0,0.0
1153.4066,366.28748,130308233,0.7,0.08510638,34.566143,-127.93482,0.004044369,0.01641643,-0.023983955,0.0,0.0,0.0
1153.6023,364.45496,130308250,0.725,0.08510638,50.402805,-128.25577,0.004044369,0.01641643,-0.023983955,0.0,0.0,0.0
1153.6023,361.71777,130308266,0.71250004,0.09574468,30.876972,-144.29977,0.004044369,0.01641643,-0.023983955,0.0,0.0,0.0
1153.6023,359.87207,130308283,0.725,0.10638297,-10.551211,-132.90474,0.004044369,0.01641643,-0.023983955,0.0,0.0,0.0
1153.6023,358.01282,130308300,0.725,0.10638297,-28.847746,-116.08846,0.004044369,0.01641643,-0.023983955,0.0,0.0,0.0
1153.6023,356.15942,130308317,0.7375,0.09574468,-12.221987,-110.12668,0.004044369,0.01641643,-0.023983955,0.0,0.0,0.0
1153.6023,355.2777,130308333,0.75,0.09574468,-0.013461381,-73.93985,0.004044369,0.01641643,-0.023983955,0.0,0.0,0.0
1154.6873,355.2777,130308350,0.75,0.09574468,30.048769,-16.273075,0.004044369,0.01641643,-0.023983955,0.0,0.0,0.0
1155.2197,355.2777,130308367,0.7625,0.09574468,49.994297,29.190125,0.004044369,0.01641643,-0.023983955,0.0,0.0,0.0
1156.2584,355.2777,130308383,0.7625,0.08510638,70.90134,49.800194,0.004044369,0.01641643,-0.023983955,0.0,0.0,0.0
1157.3062,356.8949,130308400,0.77500004,0.08510638,80.04953,69.844955,0.004044369,0.01641643,-0.023983955,0.0,0.0,0.0
1158.3481,360.59937,130308417,0.75,0.06382979,72.05115,166.23901,0.004044369,0.01641643,-0.023983955,0.0,0.0,0.0
1159.1005,364.8086,130308434,0.75,0.06382979,67.22024,291.05426,0.004044369,0.01641643,-0.023983955,0.0,0.0,0.0
1159.9268,368.87695,130308450,0.75,0.06382979,44.04904,356.2328,0.004044369,0.01641643,-0.023983955,0.0,0.0,0.0
1160.9633,372.562,130308467,0.75,0.06382979,45.924603,313.93356,0.004044369,0.01641643,-0.023983955,0.0,0.0,0.0
1162.001,376.25134,130308484,0.75,0.06382979,56.46468,236.2894,0.004044369,0.01641643,-0.023983955,0.0,0.0,0.0
1163.0402,379.94568,130308500,0.75,0.08510638,66.93663,208.00003,0.004044369,0.01641643,-0.023983955,0.0,0.0,0.0
1163.599,383.6632,130308517,0.7375,0.08510638,62.06867,207.06206,0.004044369,0.01641643,-0.023983955,0.0,0.0,0.0
1164.0989,387.36047,130308534,0.7375,0.09574468,31.899002,224.06172,0.004044369,0.01641643,-0.023983955,0.0,0.0,0.0
1164.5988,391.0619,130308550,0.7375,0.10638297,18.404572,223.69469,0.004044369,0.01641643,-0.023983955,0.0,0.0,0.0
1164.7052,394.7505,130308567,0.7625,0.10638297,0.35080984,221.96304,0.004044369,0.01641643,-0.023983955,0.0,0.0,0.0
1165.0985,397.54578,130308584,0.7375,0.10638297,4.007233,197.25104,0.004044369,0.01641643,-0.023983955,0.0,0.0,0.0
1165.7863,400.9253,130308601,0.75,0.10638297,18.061186,183.97408,0.004044369,0.01641643,-0.023983955,0.0,0.0,0.0
1166.0983,403.18652,130308617,0.75,0.09574468,34.88327,142.69705,0.004044369,0.01641643,-0.023983955,0.0,0.0,0.0
1166.0983,405.98547,130308634,0.75,0.09574468,23.152882,133.3253,0.004044369,0.01641643,-0.023983955,0.0,0.0,0.0
1166.0983,408.79797,130308651,0.7375,0.08510638,-3.7114437,146.14546,0.004044369,0.01641643,-0.023983955,0.0,0.0,0.0
1165.7501,411.8722,130308667,0.75,0.08510638,-20.109226,175.81386,0.004044369,0.01641643,-0.023983955,0.0,0.0,0.0
1164.8347,415.2765,130308684,0.7375,0.06382979,-46.04851,198.49536,0.004044369,0.01641643,-0.023983955,0.0,0.0,0.0
1163.6781,418.96887,130308701,0.7375,0.06382979,-74.22385,218.33388,0.004044369,0.01641643,-0.023983955,0.0,0.0,0.0
1163.0992,422.70642,130308718,0.7375,0.06382979,-87.340256,240.06656,0.004044369,0.01641643,-0.023983955,0.0,0.0,0.0
1162.0883,426.39758,130308734,0.7375,0.06382979,-69.268555,242.02823,0.004044369,0.01641643,-0.023983955,0.0,0.0,0.0
1161.0618,430.04724,130308751,0.725,0.06382979,-57.129265,235.46785,0.004044369,0.01641643,-0.023983955,0.0,0.0,0.0
1160.0045,435.75342,130308768,0.725,0.08510638,-57.500885,275.10498,-0.028764501,0.029133141,0.028813362,0.0,0.0,0.0
1158.9664,440.40015,130308784,0.7375,0.09574468,-68.581894,310.6753,-0.028764501,0.029133141,0.028813362,0.0,0.0,0.0
1157.9193,445.0957,130308801,0.7375,0.10638297,-69.93166,320.6273,-0.028764501,0.029133141,0.028813362,0.0,0.0,0.0
1156.8947,451.81604,130308818,0.7375,0.10638297,-62.203846,361.70096,-0.028764501,0.029133141,0.028813362,0.0,0.0,0.0
1156.362,459.15637,130308835,0.75,0.09574468,-47.210545,433.92322,-0.028764501,0.029133141,0.028813362,0.0,0.0,0.0
1155.3531,465.0005,130308851,0.725,0.08510638,-41.68278,464.0122,-0.028764501,0.029133141,0.028813362,0.0,0.0,0.0
1153.4679,474.4901,130308868,0.725,0.07446808,-68.22419,494.15436,-0.028764501,0.029133141,0.028813362,0.0,0.0,0.0
1152.2311,485.40747,130308885,0.725,0.07446808,-101.41777,600.0785,-0.028764501,0.029133141,0.028813362,0.0,0.0,0.0
1150.7914,495.54675,130308901,0.7375,0.10638297,-107.085976,694.59534,-0.028764501,0.029133141,0.028813362,0.0,0.0,0.0
1149.656,505.8579,130308918,0.71250004,0.12765957,-92.4668,739.78656,-0.028764501,0.029133141,0.028813362,0.0,0.0,0.0
1149.1038,515.9789,130308935,0.71250004,0.08510638,-53.918034,673.0492,-0.028764501,0.029133141,0.028813362,0.0,0.0,0.0
1147.0275,526.2805,130308952,0.725,0.07446808,-63.241226,592.2693,-0.028764501,0.029133141,0.028813362,0.0,0.0,0.0
1145.452,539.25977,130308968,0.725,0.09574468,-93.5441,684.9953,-0.028764501,0.029133141,0.028813362,0.0,0.0,0.0
1143.3851,550.14685,130308985,0.725,0.11702127,-123.08424,732.8268,-0.028764501,0.029133141,0.028813362,0.0,0.0,0.0
1140.7921,560.1411,130309002,0.71250004,0.12765957,-164.58127,704.44507,-0.028764501,0.029133141,0.028813362,0.0,0.0,0.0
1137.4922,568.19934,130309018,0.725,0.09574468,-195.16832,572.8994,-0.028764501,0.029133141,0.028813362,0.0,0.0,0.0
1133.6882,576.3738,130309035,0.75,0.08510638,-233.68338,406.69995,-0.028764501,0.029133141,0.028813362,0.0,0.0,0.0
1129.7855,582.9109,130309052,0.7375,0.07446808,-264.71872,350.63306,-0.028764501,0.029133141,0.028813362,0.0,0.0,0.0
1125.8577,589.4049,130309068,0.7375,0.07446808,-268.15134,325.47064,-0.028764501,0.029133141,0.028813362,0.0,0.0,0.0
1122.6458,594.5416,130309085,0.7375,0.08510638,-240.3519,306.2804,-0.028764501,0.029133141,0.028813362,0.0,0.0,0.0
1117.9377,601.0094,130309102,0.75,0.09574468,-241.37448,306.7821,-0.028764501,0.029133141,0.028813362,0.0,0.0,0.0
1113.9418,605.4873,130309119,0.7375,0.10638297,-242.27043,279.11847,-0.028764501,0.029133141,0.028813362,0.0,0.0,0.0
1108.7456,611.0294,130309135,0.75,0.10638297,-286.30966,280.79904,-0.028764501,0.029133141,0.028813362,0.0,0.0,0.0
1103.0234,616.5823,130309152,0.7375,0.10638297,-339.56644,305.42877,-0.028764501,0.029133141,0.028813362,0.0,0.0,0.0
1097.8597,620.23694,130309169,0.7375,0.11702127,-358.87094,275.15555,-0.028764501,0.029133141,0.028813362,0.0,0.0,0.0
1090.985,623.9293,130309185,0.75,0.11702127,-393.26385,224.69298,-0.028764501,0.029133141,0.028813362,0.0,0.0,0.0
1083.2059,626.5045,130309202,0.7625,0.10638297,-451.90555,152.90005,-0.028764501,0.029133141,0.028813362,0.0,0.0,0.0
1075.8422,628.3744,130309219,0.7625,0.08510638,-491.9173,86.50222,-0.028764501,0.029133141,0.028813362,0.0,0.0,0.0
1069.3325,628.93665,130309236,0.77500004,0.09574468,-482.05524,34.792625,-0.028764501,0.029133141,0.028813362,0.0,0.0,0.0
1063.8363,628.4763,130309252,0.7625,0.09574468,-379.44125,-41.514194,-0.028764501,0.029133141,0.028813362,0.0,0.0,0.0
1059.4465,626.1056,130309269,0.7625,0.10638297,-263.54462,-142.6167,-0.028764501,0.029133141,0.028813362,0.0,0.0,0.0
1056.523,622.5199,130309286,0.7625,0.10638297,-163.86263,-256.0603,-0.028764501,0.029133141,0.028813362,0.0,0.0,0.0
1053.9266,615.75793,130309302,0.7625,0.09574468,-94.25723,-389.86444,0.008988395,-0.008693516,0.007050514,0.0,0.0,0.0
1053.135,610.61,130309319,0.7625,0.08510638,-33.96778,-471.5952,0.008988395,-0.008693516,0.007050514,0.0,0.0,0.0
1053.135,607.6854,130309336,0.77500004,0.08510638,36.054398,-392.10593,0.008988395,-0.008693516,0.007050514,0.0,0.0,0.0
1054.6383,604.9402,130309353,0.7625,0.06382979,110.07243,-201.25122,0.008988395,-0.008693516,0.007050514,0.0,0.0,0.0
1056.7169,602.13403,130309369,0.7375,0.06382979,177.89333,-91.93002,0.008988395,-0.008693516,0.007050514,0.0,0.0,0.0
1060.4626,598.4342,130309386,0.7375,0.07446808,247.12602,-111.60043,0.008988395,-0.008693516,0.007050514,0.0,0.0,0.0
1064.8297,594.75977,130309403,0.7375,0.07446808,302.16953,-207.75105,0.008988395,-0.008693516,0.007050514,0.0,0.0,0.0
1071.5823,591.0548,130309419,0.725,0.08510638,399.95386,-250.02458,0.008988395,-0.008693516,0.007050514,0.0,0.0,0.0
1079.2246,587.3556,130309436,0.71250004,0.08510638,492.91544,-244.03204,0.008988395,-0.008693516,0.007050514,0.0,0.0,0.0
1087.535,583.65454,130309453,0.7,0.07446808,568.4498,-221.60347,0.008988395,-0.008693516,0.007050514,0.0,0.0,0.0
1096.6401,579.46533,130309470,0.7,0.08510638,612.3073,-230.14401,0.008988395,-0.008693516,0.007050514,0.0,0.0,0.0
1107.5037,575.37524,130309486,0.7,0.09574468,659.87714,-253.94221,0.008988395,-0.008693516,0.007050514,0.0,0.0,0.0
1117.4138,570.84485,130309503,0.6875,0.12765957,667.3948,-271.90854,0.008988395,-0.008693516,0.007050514,0.0,0.0,0.0
1128.1128,565.5554,130309520,0.7,0.12765957,677.2835,-298.20093,0.008988395,-0.008693516,0.007050514,0.0,0.0,0.0
1136.1217,560.8922,130309536,0.6875,0.11702127,600.4984,-307.9445,0.008988395,-0.008693516,0.007050514,0.0,0.0,0.0
1142.5084,555.2948,130309553,0.71250004,0.08510638,457.32883,-330.09973,0.008988395,-0.008693516,0.007050514,0.0,0.0,0.0
1148.7498,547.91003,130309570,0.71250004,0.06382979,315.0224,-404.9897,0.008988395,-0.008693516,0.007050514,0.0,0.0,0.0
1154.9883,541.5199,130309586,0.71250004,0.06382979,267.41986,-442.40796,0.008988395,-0.008693516,0.007050514,0.0,0.0,0.0
1160.6265,535.97107,130309603,0.7,0.06382979,286.73593,-415.85812,0.008988395,-0.008693516,0.007050514,0.0,0.0,0.0
1166.1603,531.59045,130309620,0.71250004,0.08510638,317.00803,-331.11646,0.008988395,-0.008693516,0.007050514,0.0,0.0,0.0
1169.938,529.12134,130309637,0.7,0.08510638,274.98938,-186.37093,0.008988395,-0.008693516,0.007050514,0.0,0.0,0.0
1171.8207,527.24866,130309653,0.675,0.08510638,155.99554,-62.82395,0.008988395,-0.008693516,0.007050514,0.0,0.0,0.0
1172.0963,526.2897,130309670,0.675,0.08510638,-0.548355,4.695387,0.008988395,-0.008693516,0.007050514,0.0,0.0,0.0
1172.0963,524.44653,130309687,0.675,0.08510638,-97.10527,-0.94180495,0.008988395,-0.008693516,0.007050514,0.0,0.0,0.0
1172.0963,520.69006,130309703,0.6625,0.10638297,-102.47201,-106.939,0.008988395,-0.008693516,0.007050514,0.0,0.0,0.0
1172.0963,517.2241,130309720,0.675,0.10638297,-62.580746,-233.76569,0.008988395,-0.008693516,0.007050514,0.0,0.0,0.0
1172.0963,516.0968,130309731,0.4125,0.10638297,-40.357952,-241.55637,0.008988395,-0.008693516,0.007050514,0.0,0.0,0.0
1172.0963,516.0968,130309737,0.4125,0.10638297,-40.357952,-241.55637,0.008988395,-0.008693516,0.007050514,0.0,0.0,0.0
1221.0803,437.90845,130311601,0.71250004,0.06382979,0.0,0.0,0.013537645,0.0014311373,0.0014801025,0.0,0.0,0.0
1221.0803,437.90845,130311625,0.7375,0.06382979,-0.07760638,-0.023462895,0.013537645,0.0014311373,0.0014801025,0.0,0.0,0.0
1221.0803,437.90845,130311659,0.7375,0.06382979,-0.019246537,-0.006860758,0.013537645,0.0014311373,0.0014801025,0.0,0.0,0.0
1221.0803,437.90845,130311675,0.725,0.06382979,0.050398495,0.018762158,0.013537645,0.0014311373,0.0014801025,0.0,0.0,0.0
1221.0803,437.90845,130311692,0.71250004,0.06382979,0.048967898,0.0150108775,0.013537645,0.0014311373,0.0014801025,0.0,0.0,0.0
1221.0803,437.90845,130311709,0.71250004,0.08510638,0.0011100527,9.652813E-4,0.013537645,0.0014311373,0.0014801025,0.0,0.0,0.0
1230.0028,422.0481,130311725,0.7,0.12765957,333.06604,-591.8616,0.013537645,0.0014311373,0.0014801025,0.0,0.0,0.0
1243.4602,400.57397,130311742,0.7,0.09574468,693.4985,-1179.0908,0.013537645,0.0014311373,0.0014801025,0.0,0.0,0.0
1255.5327,381.72437,130311759,0.675,0.06382979,1031.2217,-1663.2356,0.013537645,0.0014311373,0.0014801025,0.0,0.0,0.0
1267.7485,362.7356,130311776,0.7,0.10638297,1031.2878,-1590.0266,0.013537645,0.0014311373,0.0014801025,0.0,0.0,0.0
1279.7472,339.09363,130311792,0.675,0.06382979,919.42865,-1527.2258,0.013537645,0.0014311373,0.0014801025,0.0,0.0,0.0
1287.3955,323.63953,130311809,0.675,0.08510638,572.2195,-1176.2881,0.013537645,0.0014311373,0.0014801025,0.0,0.0,0.0
1297.6613,300.8369,130311826,0.675,0.11702127,460.5242,-1126.9408,0.013537645,0.0014311373,0.0014801025,0.0,0.0,0.0
1304.3596,277.6869,130311842,0.6625,0.08510638,406.68314,-1293.1633,0.013537645,0.0014311373,0.0014801025,0.0,0.0,0.0
1308.4778,256.76562,130311859,0.6875,0.12765957,267.4946,-1361.0295,0.013537645,0.0014311373,0.0014801025,0.0,0.0,0.0
1309.0518,236.33911,130311876,0.675,0.09574468,103.56263,-1406.9932,0.013537645,0.0014311373,0.0014801025,0.0,0.0,0.0
1308.9706,221.9718,130311892,0.7,0.08510638,-92.9235,-1123.652,0.013537645,0.0014311373,0.0014801025,0.0,0.0,0.0
1304.758,211.70435,130311909,0.7,0.09574468,-318.61472,-653.5364,0.013537645,0.0014311373,0.0014801025,0.0,0.0,0.0
1300.8395,206.49084,130311926,0.71250004,0.11702127,-387.20447,-238.41843,0.013537645,0.0014311373,0.0014801025,0.0,0.0,0.0
1294.3425,200.97974,130311942,0.725,0.12765957,-460.37814,-20.91244,0.013537645,0.0014311373,0.0014801025,0.0,0.0,0.0
1286.3401,195.99744,130311959,0.725,0.10638297,-544.23615,-50.161617,0.013537645,0.0014311373,0.0014801025,0.0,0.0,0.0
1279.1292,194.45862,130311976,0.7625,0.10638297,-551.2412,-63.958645,-0.021169871,-0.014855087,0.0011844635,0.0,0.0,0.0
1273.1224,195.14832,130311993,0.7625,0.09574468,-508.41885,12.939066,-0.021169871,-0.014855087,0.0011844635,0.0,0.0,0.0
1267.9723,198.5393,130312009,0.7625,0.08510638,-369.83282,210.16872,-0.021169871,-0.014855087,0.0011844635,0.0,0.0,0.0
1262.2704,207.42468,130312026,0.7625,0.07446808,-258.93753,480.96237,-0.021169871,-0.014855087,0.0011844635,0.0,0.0,0.0
1256.4391,219.65942,130312043,0.7625,0.11702127,-292.4238,797.33234,-0.021169871,-0.014855087,0.0011844635,0.0,0.0,0.0
1252.8846,232.65393,130312059,0.77500004,0.12765957,-277.53793,997.7011,-0.021169871,-0.014855087,0.0011844635,0.0,0.0,0.0
1251.4683,247.62512,130312076,0.7875,0.09574468,-171.67798,1101.436,-0.021169871,-0.014855087,0.0011844635,0.0,0.0,0.0
1251.5704,263.99133,130312093,0.75,0.08510638,4.479739,1127.0576,-0.021169871,-0.014855087,0.0011844635,0.0,0.0,0.0
1252.7706,282.43286,130312109,0.7625,0.12765957,153.34238,1138.6696,-0.021169871,-0.014855087,0.0011844635,0.0,0.0,0.0
1254.7288,303.49146,130312126,0.7375,0.09574468,210.17,1268.6676,-0.021169871,-0.014855087,0.0011844635,0.0,0.0,0.0
1256.5688,323.9358,130312143,0.7375,0.07446808,202.7381,1370.1051,-0.021169871,-0.014855087,0.0011844635,0.0,0.0,0.0
1257.6649,345.1145,130312160,0.7375,0.12765957,141.61786,1378.3741,-0.021169871,-0.014855087,0.0011844635,0.0,0.0,0.0
1259.2415,364.81616,130312176,0.725,0.07446808,97.52059,1303.9183,-0.021169871,-0.014855087,0.0011844635,0.0,0.0,0.0
1259.5679,381.43323,130312193,0.7375,0.08510638,47.47245,1081.018,-0.021169871,-0.014855087,0.0011844635,0.0,0.0,0.0
1259.5679,399.87695,130312210,0.725,0.12765957,-4.265213,981.43884,-0.021169871,-0.014855087,0.0011844635,0.0,0.0,0.0
1261.4652,417.54626,130312226,0.725,0.07446808,22.49,985.04846,-0.021169871,-0.014855087,0.0011844635,0.0,0.0,0.0
1262.5652,429.89343,130312243,0.7375,0.07446808,56.291695,891.76495,-0.021169871,-0.014855087,0.0011844635,0.0,0.0,0.0
1262.5669,441.0017,130312260,0.725,0.10638297,59.927753,686.7666,-0.021169871,-0.014855087,0.0011844635,0.0,0.0,0.0
1261.9912,449.10986,130312276,0.71250004,0.12765957,11.696653,448.58017,-0.021169871,-0.014855087,0.0011844635,0.0,0.0,0.0
1261.467,453.3689,130312293,0.75,0.12765957,-58.91692,197.5514,-0.021169871,-0.014855087,0.0011844635,0.0,0.0,0.0
1260.4138,455.95154,130312310,0.7375,0.12765957,-101.14266,42.325924,-0.021169871,-0.014855087,0.0011844635,0.0,0.0,0.0
1259.3734,456.91272,130312327,0.75,0.12765957,-94.03938,-73.13727,-0.021169871,-0.014855087,0.0011844635,0.0,0.0,0.0
1258.7007,457.45557,130312343,0.75,0.12765957,-74.67843,-130.39812,-0.021169871,-0.014855087,0.0011844635,0.0,0.0,0.0
1258.5681,458.1438,130312360,0.75,0.12765957,-36.650253,-82.29516,-0.021169871,-0.014855087,0.0011844635,0.0,0.0,0.0
1258.5681,458.344,130312376,0.75,0.10638297,-1.15819,-50.64069,-0.021169871,-0.014855087,0.0011844635,0.0,0.0,0.0
1258.5681,458.344,130312393,0.77500004,0.10638297,25.044907,-11.902162,-0.021169871,-0.014855087,0.0011844635,0.0,0.0,0.0
1258.5681,458.344,130312411,0.7625,0.10638297,21.842052,-12.245978,-0.021169871,-0.014855087,0.0011844635,0.0,0.0,0.0
1258.5681,458.344,130312427,0.7625,0.12765957,6.949317,-12.546741,-0.021169871,-0.014855087,0.0011844635,0.0,0.0,0.0
1257.5671,457.45325,130312444,0.77500004,0.12765957,-30.0978,-34.704815,-0.021169871,-0.014855087,0.0011844635,0.0,0.0,0.0
1255.9828,453.67175,130312461,0.725,0.09574468,-79.7306,-135.7074,-0.021169871,-0.014855087,0.0011844635,0.0,0.0,0.0
1252.816,444.26416,130312477,0.7,0.08510638,-176.274,-453.27838,-0.021169871,-0.014855087,0.0011844635,0.0,0.0,0.0
1250.9474,429.9375,130312494,0.71250004,0.09574468,-203.6216,-811.45105,-0.021169871,-0.014855087,0.0011844635,0.0,0.0,0.0
1251.8789,417.05676,130312511,0.71250004,0.12765957,-104.806145,-1053.8888,-9.3591213E-4,-0.0118840635,-0.03105259,0.0,0.0,0.0
1254.4775,402.4956,130312528,0.725,0.11702127,87.84658,-1119.078,-9.3591213E-4,-0.0118840635,-0.03105259,0.0,0.0,0.0
1258.0442,390.42712,130312544,0.7,0.07446808,295.18857,-926.0985,-9.3591213E-4,-0.0118840635,-0.03105259,0.0,0.0,0.0
1262.4991,382.05322,130312561,0.71250004,0.06382979,365.85574,-652.1675,-9.3591213E-4,-0.0118840635,-0.03105259,0.0,0.0,0.0
1268.8156,372.85657,130312578,0.71250004,0.08510638,402.09357,-460.01962,-9.3591213E-4,-0.0118840635,-0.03105259,0.0,0.0,0.0
1276.9454,365.1549,130312594,0.7,0.09574468,494.97214,-355.59174,-9.3591213E-4,-0.0118840635,-0.03105259,0.0,0.0,0.0
1286.9062,360.09265,130312611,0.71250004,0.11702127,613.903,-296.38385,-9.3591213E-4,-0.0118840635,-0.03105259,0.0,0.0,0.0
1296.0597,358.05334,130312628,0.71250004,0.11702127,686.8378,-170.29895,-9.3591213E-4,-0.0118840635,-0.03105259,0.0,0.0,0.0
1304.4366,357.9431,130312645,0.7,0.10638297,653.5999,38.68825,-9.3591213E-4,-0.0118840635,-0.03105259,0.0,0.0,0.0
1311.6982,361.58447,130312661,0.7,0.06382979,512.4515,262.60205,-9.3591213E-4,-0.0118840635,-0.03105259,0.0,0.0,0.0
1319.4979,370.06445,130312678,0.71250004,0.06382979,423.61145,507.65555,-9.3591213E-4,-0.0118840635,-0.03105259,0.0,0.0,0.0
1328.8818,391.27075,130312695,0.7,0.10638297,433.23114,1001.7893,-9.3591213E-4,-0.0118840635,-0.03105259,0.0,0.0,0.0
1334.8176,412.3147,130312711,0.71250004,0.08510638,462.14767,1554.0468,-9.3591213E-4,-0.0118840635,-0.03105259,0.0,0.0,0.0
1337.7516,424.37915,130312728,0.71250004,0.06382979,316.21436,1550.7031,-9.3591213E-4,-0.0118840635,-0.03105259,0.0,0.0,0.0
1341.4955,431.60767,130312745,0.7,0.08510638,141.76031,888.96985,-9.3591213E-4,-0.0118840635,-0.03105259,0.0,0.0,0.0
1344.1019,435.29773,130312761,0.71250004,0.09574468,34.972904,118.91417,-9.3591213E-4,-0.0118840635,-0.03105259,0.0,0.0,0.0
1350.1732,438.45044,130312778,0.7,0.09574468,141.83109,-231.04218,-9.3591213E-4,-0.0118840635,-0.03105259,0.0,0.0,0.0
1359.4849,436.06946,130312795,0.7,0.07446808,439.9225,-227.82748,-9.3591213E-4,-0.0118840635,-0.03105259,0.0,0.0,0.0
1368.9518,429.20154,130312812,0.6625,0.06382979,647.2876,-409.13803,-9.3591213E-4,-0.0118840635,-0.03105259,0.0,0.0,0.0
1379.7104,416.71375,130312828,0.6375,0.09574468,773.66156,-758.3392,-9.3591213E-4,-0.0118840635,-0.03105259,0.0,0.0,0.0
1388.2294,401.1842,130312845,0.6,0.09574468,708.16223,-1107.5905,-9.3591213E-4,-0.0118840635,-0.03105259,0.0,0.0,0.0
1389.0256,398.81433,130312854,0.1375,0.06382979,583.9169,-1147.9572,-9.3591213E-4,-0.0118840635,-0.03105259,0.0,0.0,0.0
1389.0256,398.81433,130312861,0.1375,0.06382979,583.9169,-1147.9572,-9.3591213E-4,-0.0118840635,-0.03105259,0.0,0.0,0.0
