x,y,timestamp,pressure,fingerarea,velocityx,velocityy,accelx,accely,accelz,gyrox,gyroy,gyroz
269.39017,146.47937,125818281,0.825,0.10638297,0.0,0.0,-0.025658704,0.025445983,0.03236866,0.0,0.0,0.0
269.39017,146.47937,125818299,0.85,0.10638297,-0.1400333,-0.07175594,-0.025658704,0.025445983,0.03236866,0.0,0.0,0.0
274.05054,164.40674,125818315,0.85,0.10638297,450.79803,1723.9043,-0.025658704,0.025445983,0.03236866,0.0,0.0,0.0
280.62485,192.29688,125818332,0.825,0.09574468,543.76306,2285.941,-0.025658704,0.025445983,0.03236866,0.0,0.0,0.0
290.2266,224.6383,125818348,0.83750004,0.09574468,696.41907,2595.0134,-0.025658704,0.025445983,0.03236866,0.0,0.0,0.0
301.95514,259.32092,125818365,0.825,0.08510638,820.43176,2692.8667,-0.025658704,0.025445983,0.03236866,0.0,0.0,0.0
312.86154,293.91956,125818382,0.8,0.12765957,836.1858,2434.766,-0.025658704,0.025445983,0.03236866,0.0,0.0,0.0
323.90338,332.44238,125818399,0.77500004,0.08510638,791.8135,2401.2148,-0.025658704,0.025445983,0.03236866,0.0,0.0,0.0
336.65204,370.33423,125818415,0.75,0.08510638,750.45996,2367.6677,-0.025658704,0.025445983,0.03236866,0.0,0.0,0.0
346.2317,397.90173,125818432,0.71250004,0.10638297,681.4382,2107.4773,-0.025658704,0.025445983,0.03236866,0.0,0.0,0.0
355.203,421.56958,125818449,0.6375,0.08510638,582.9016,1606.4089,-0.025658704,0.025445983,0.03236866,0.0,0.0,0.0
356.8617,424.58093,125818457,0.375,0.08510638,497.4316,1215.3777,-0.025658704,0.025445983,0.03236866,0.0,0.0,0.0
356.8617,424.58093,125818464,0.375,0.08510638,497.4316,1215.3777,-0.025658704,0.025445983,0.03236866,0.0,0.0,0.0
196.41391,168.69202,125818690,0.8625,0.10638297,0.0,0.0,-0.025658704,0.025445983,0.03236866,0.0,0.0,0.0
196.41391,168.69202,125818716,0.90000004,0.08510638,-0.012091836,-0.011917263,-0.025658704,0.025445983,0.03236866,0.0,0.0,0.0
196.41391,168.69202,125818733,0.8125,0.09574468,0.0027726619,0.0022306028,-0.025658704,0.025445983,0.03236866,0.0,0.0,0.0
232.91064,137.76782,125818749,0.77500004,0.10638297,1924.0195,-1684.321,-0.025658704,0.025445983,0.03236866,0.0,0.0,0.0
259.12476,128.36047,125818766,0.77500004,0.12765957,2380.638,-1534.6847,-0.025658704,0.025445983,0.03236866,0.0,0.0,0.0
284.43823,127.421265,125818783,0.8,0.08510638,2415.1184,-948.6309,-0.025658704,0.025445983,0.03236866,0.0,0.0,0.0
302.9879,133.32324,125818800,0.77500004,0.12765957,1924.5732,59.95966,-0.025658704,0.025445983,0.03236866,0.0,0.0,0.0
318.23975,145.32544,125818816,0.77500004,0.08510638,945.49054,1120.5231,-0.004526958,-0.027643204,-0.022104263,0.0,0.0,0.0
328.43372,161.69556,125818833,0.77500004,0.09574468,497.22955,1371.533,-0.004526958,-0.027643204,-0.022104263,0.0,0.0,0.0
340.11523,195.66919,125818850,0.77500004,0.09574468,374.1822,1896.4357,-0.004526958,-0.027643204,-0.022104263,0.0,0.0,0.0
342.86624,223.2937,125818866,0.7625,0.08510638,218.54082,2273.5437,-0.004526958,-0.027643204,-0.022104263,0.0,0.0,0.0
338.7856,248.16931,125818883,0.825,0.08510638,-186.71297,2132.7383,-0.004526958,-0.027643204,-0.022104263,0.0,0.0,0.0
335.6788,266.66296,125818900,0.8625,0.08510638,-494.49744,1586.8918,-0.004526958,-0.027643204,-0.022104263,0.0,0.0,0.0
333.57275,275.47766,125818917,0.8625,0.10638297,-532.8139,740.0397,-0.004526958,-0.027643204,-0.022104263,0.0,0.0,0.0
332.66492,279.59375,125818933,0.85,0.10638297,-330.15704,67.65901,-0.004526958,-0.027643204,-0.022104263,0.0,0.0,0.0
332.8695,279.75488,125818950,0.83750004,0.09574468,-50.09728,-291.59933,-0.004526958,-0.027643204,-0.022104263,0.0,0.0,0.0
338.80753,278.97693,125818967,0.75,0.07446808,178.16731,-432.65808,-0.004526958,-0.027643204,-0.022104263,0.0,0.0,0.0
374.9637,270.3114,125818983,0.7625,0.08510638,1249.6525,-519.98126,-0.004526958,-0.027643204,-0.022104263,0.0,0.0,0.0
412.8148,262.688,125819000,0.7375,0.08510638,2652.1023,-719.5431,-0.004526958,-0.027643204,-0.022104263,0.0,0.0,0.0
446.8587,263.79504,125819017,0.71250004,0.07446808,3222.1643,-520.64105,-0.004526958,-0.027643204,-0.022104263,0.0,0.0,0.0
473.04395,273.87158,125819034,0.7,0.09574468,2708.6067,146.93167,-0.004526958,-0.027643204,-0.022104263,0.0,0.0,0.0
491.35455,286.2008,125819050,0.71250004,0.10638297,1430.9978,905.6884,-0.004526958,-0.027643204,-0.022104263,0.0,0.0,0.0
502.07013,298.92993,125819067,0.7375,0.09574468,536.3079,1289.4667,-0.004526958,-0.027643204,-0.022104263,0.0,0.0,0.0
511.8401,325.1814,125819084,0.7625,0.09574468,194.19894,1518.5808,-0.004526958,-0.027643204,-0.022104263,0.0,0.0,0.0
512.8109,343.71692,125819100,0.8,0.10638297,-119.15074,1528.5853,-0.004526958,-0.027643204,-0.022104263,0.0,0.0,0.0
508.37262,360.23816,125819117,0.825,0.08510638,-410.71307,1378.0055,-0.004526958,-0.027643204,-0.022104263,0.0,0.0,0.0
501.30902,370.68494,125819134,0.825,0.08510638,-680.6145,964.1246,-0.004526958,-0.027643204,-0.022104263,0.0,0.0,0.0
489.5739,381.26147,125819150,0.8125,0.11702127,-902.44006,523.471,-0.004526958,-0.027643204,-0.022104263,0.0,0.0,0.0
471.74146,388.71484,125819167,0.825,0.09574468,-1156.2374,265.94284,-0.004526958,-0.027643204,-0.022104263,0.0,0.0,0.0
449.16888,394.35547,125819184,0.7875,0.10638297,-1480.7263,233.01819,-0.004526958,-0.027643204,-0.022104263,0.0,0.0,0.0
429.3397,396.1488,125819201,0.8,0.12765957,-1625.0908,128.47156,-0.004526958,-0.027643204,-0.022104263,0.0,0.0,0.0
409.8903,396.1488,125819217,0.825,0.08510638,-1490.6256,-81.43166,-0.004526958,-0.027643204,-0.022104263,0.0,0.0,0.0
393.58206,395.51685,125819234,0.83750004,0.10638297,-1165.8501,-217.15343,-0.004526958,-0.027643204,-0.022104263,0.0,0.0,0.0
384.8837,393.64062,125819251,0.83750004,0.10638297,-686.31104,-250.20471,-0.004526958,-0.027643204,-0.022104263,0.0,0.0,0.0
380.95804,391.79895,125819267,0.825,0.11702127,-248.92412,-210.06995,-0.004526958,-0.027643204,-0.022104263,0.0,0.0,0.0
380.35403,390.833,125819284,0.7875,0.10638297,165.69524,-148.05025,-0.004526958,-0.027643204,-0.022104263,0.0,0.0,0.0
380.35403,389.92932,125819292,0.6,0.08510638,302.89438,-129.05728,-0.004526958,-0.027643204,-0.022104263,0.0,0.0,0.0
380.35403,389.92932,125819300,0.6,0.08510638,302.89438,-129.05728,-0.004526958,-0.027643204,-0.022104263,0.0,0.0,0.0
583.28796,261.0963,125819988,0.7375,0.08510638,0.0,0.0,-0.0076972544,0.007908344,0.014653206,0.0,0.0,0.0
583.28796,261.0963,125820016,0.7625,0.08510638,0.0074623274,0.0024198773,-0.0076972544,0.007908344,0.014653206,0.0,0.0,0.0
583.28796,261.0963,125820036,0.75,0.08510638,-0.027994515,-0.011194439,-0.0076972544,0.007908344,0.014653206,0.0,0.0,0.0
567.29315,274.42383,125820052,0.7625,0.09574468,-719.5185,599.5619,-0.0076972544,0.007908344,0.014653206,0.0,0.0,0.0
554.6429,285.7837,125820070,0.7375,0.12765957,-1026.1769,877.89246,-0.0076972544,0.007908344,0.014653206,0.0,0.0,0.0
543.4513,307.5846,125820086,0.75,0.09574468,-1029.3615,1230.7969,-0.0076972544,0.007908344,0.014653206,0.0,0.0,0.0
537.3859,330.3761,125820103,0.7625,0.11702127,-773.2307,1640.3955,-0.0076972544,0.007908344,0.014653206,0.0,0.0,0.0
535.58124,344.22083,125820120,0.75,0.12765957,-181.04875,1437.288,-0.0076972544,0.007908344,0.014653206,0.0,0.0,0.0
538.1786,360.16785,125820136,0.77500004,0.09574468,222.04585,1066.3986,-0.0076972544,0.007908344,0.014653206,0.0,0.0,0.0
543.10394,376.75208,125820153,0.7375,0.08510638,472.78317,882.72363,-0.0076972544,0.007908344,0.014653206,0.0,0.0,0.0
549.8874,385.83057,125820170,0.7375,0.09574468,629.847,630.61005,-0.0076972544,0.007908344,0.014653206,0.0,0.0,0.0
562.7822,393.5465,125820186,0.725,0.10638297,782.71765,469.8526,-0.0076972544,0.007908344,0.014653206,0.0,0.0,0.0
579.56573,396.1488,125820203,0.7375,0.12765957,1025.2606,119.57108,-0.0076972544,0.007908344,0.014653206,0.0,0.0,0.0
603.64606,384.1421,125820220,0.75,0.08510638,1441.7471,-451.86618,-0.0076972544,0.007908344,0.014653206,0.0,0.0,0.0
622.82416,362.91992,125820237,0.7625,0.09574468,1652.5151,-1260.4423,-0.0076972544,0.007908344,0.014653206,0.0,0.0,0.0
633.38086,342.5918,125820253,0.8,0.09574468,1210.2401,-1767.5933,-0.0076972544,0.007908344,0.014653206,0.0,0.0,0.0
636.8219,324.2473,125820270,0.8,0.08510638,494.37958,-1816.6042,-0.0076972544,0.007908344,0.014653206,0.0,0.0,0.0
635.5933,313.61743,125820287,0.8,0.10638297,-216.28493,-1256.5564,-0.0076972544,0.007908344,0.014653206,0.0,0.0,0.0
632.99695,308.5869,125820304,0.8,0.10638297,-583.5851,-486.8131,-0.0076972544,0.007908344,0.014653206,0.0,0.0,0.0
629.68414,304.82397,125820320,0.77500004,0.10638297,-573.1325,-4.8418083,-0.0076972544,0.007908344,0.014653206,0.0,0.0,0.0
626.43445,302.85596,125820337,0.8,0.10638297,-443.44678,203.58122,-0.0076972544,0.007908344,0.014653206,0.0,0.0,0.0
623.2813,302.85596,125820354,0.77500004,0.09574468,-261.45334,155.06361,-0.0076972544,0.007908344,0.014653206,0.0,0.0,0.0
620.90234,305.2965,125820370,0.7625,0.08510638,-186.23466,171.92502,-0.0076972544,0.007908344,0.014653206,0.0,0.0,0.0
620.93494,315.25513,125820387,0.7625,0.08510638,-89.55181,454.07147,-0.0076972544,0.007908344,0.014653206,0.0,0.0,0.0
623.3797,328.10657,125820404,0.75,0.08510638,102.16377,855.8729,-0.0076972544,0.007908344,0.014653206,0.0,0.0,0.0
629.31665,342.70374,125820420,0.725,0.12765957,329.9153,1100.1733,-0.0076972544,0.007908344,0.014653206,0.0,0.0,0.0
637.0261,357.5089,125820437,0.7375,0.09574468,562.6067,1218.4817,-0.0076972544,0.007908344,0.014653206,0.0,0.0,0.0
648.2201,372.99023,125820454,0.725,0.08510638,732.8274,1091.7448,-0.0076972544,0.007908344,0.014653206,0.0,0.0,0.0
667.10986,386.87817,125820471,0.7375,0.09574468,1021.2833,931.6775,-0.0076972544,0.007908344,0.014653206,0.0,0.0,0.0
682.04926,393.0874,125820487,0.7375,0.12765957,1199.2954,641.0873,-0.0061578006,0.03832668,0.027722359,0.0,0.0,0.0
695.17725,395.4713,125820504,0.7375,0.10638297,1148.8978,225.0033,-0.0061578006,0.03832668,0.027722359,0.0,0.0,0.0
705.8233,391.7754,125820521,0.77500004,0.09574468,868.9132,-220.15433,-0.0061578006,0.03832668,0.027722359,0.0,0.0,0.0
713.83636,382.57898,125820537,0.8,0.08510638,523.7706,-676.59485,-0.0061578006,0.03832668,0.027722359,0.0,0.0,0.0
718.66486,367.17932,125820554,0.77500004,0.09574468,228.42361,-1042.6008,-0.0061578006,0.03832668,0.027722359,0.0,0.0,0.0
719.2437,344.93896,125820571,0.77500004,0.10638297,26.410398,-1472.7922,-0.0061578006,0.03832668,0.027722359,0.0,0.0,0.0
716.3143,317.69043,125820588,0.7625,0.08510638,-228.797,-1873.2887,-0.0061578006,0.03832668,0.027722359,0.0,0.0,0.0
709.95825,288.1527,125820604,0.75,0.10638297,-507.7295,-2095.7202,-0.0061578006,0.03832668,0.027722359,0.0,0.0,0.0
703.18256,259.7644,125820621,0.77500004,0.09574468,-637.05804,-2097.8916,-0.0061578006,0.03832668,0.027722359,0.0,0.0,0.0
694.6128,236.27722,125820638,0.7625,0.11702127,-665.3744,-1759.0403,-0.0061578006,0.03832668,0.027722359,0.0,0.0,0.0
683.9538,212.66003,125820654,0.7875,0.08510638,-712.93823,-1489.64,-0.0061578006,0.03832668,0.027722359,0.0,0.0,0.0
675.64813,197.8175,125820671,0.7875,0.12765957,-677.2757,-1058.5889,-0.0061578006,0.03832668,0.027722359,0.0,0.0,0.0
666.08496,186.59973,125820688,0.8,0.10638297,-611.9902,-610.85297,-0.0061578006,0.03832668,0.027722359,0.0,0.0,0.0
660.7933,180.6305,125820705,0.8,0.09574468,-467.81787,-248.96585,-0.0061578006,0.03832668,0.027722359,0.0,0.0,0.0
656.0608,178.21545,125820721,0.7875,0.11702127,-273.32986,68.66084,-0.0061578006,0.03832668,0.027722359,0.0,0.0,0.0
654.5937,179.07349,125820738,0.825,0.12765957,-109.084305,254.81888,-0.0061578006,0.03832668,0.027722359,0.0,0.0,0.0
654.2649,183.94373,125820755,0.83750004,0.12765957,42.997402,403.8269,-0.0061578006,0.03832668,0.027722359,0.0,0.0,0.0
656.29816,196.81555,125820771,0.8,0.10638297,175.17438,737.6381,-0.0061578006,0.03832668,0.027722359,0.0,0.0,0.0
662.82465,217.98828,125820788,0.8125,0.08510638,368.0135,1255.5481,-0.0061578006,0.03832668,0.027722359,0.0,0.0,0.0
673.14124,243.06519,125820805,0.8125,0.12765957,628.89233,1748.9357,-0.0061578006,0.03832668,0.027722359,0.0,0.0,0.0
686.1417,271.08032,125820822,0.77500004,0.08510638,898.1432,2062.58,-0.0061578006,0.03832668,0.027722359,0.0,0.0,0.0
699.6026,300.18933,125820838,0.75,0.12765957,1041.1085,2084.6807,-0.0061578006,0.03832668,0.027722359,0.0,0.0,0.0
710.84735,323.54968,125820855,0.725,0.08510638,970.5719,1890.9192,-0.0061578006,0.03832668,0.027722359,0.0,0.0,0.0
723.78455,344.68506,125820872,0.725,0.08510638,818.01544,1438.1832,-0.0061578006,0.03832668,0.027722359,0.0,0.0,0.0
736.7415,364.9762,125820888,0.71250004,0.08510638,761.02563,1135.1437,-0.0061578006,0.03832668,0.027722359,0.0,0.0,0.0
745.5193,377.68542,125820905,0.7,0.11702127,646.26697,801.9032,-0.0061578006,0.03832668,0.027722359,0.0,0.0,0.0
758.3371,386.365,125820922,0.6375,0.10638297,636.9153,487.02344,-0.0061578006,0.03832668,0.027722359,0.0,0.0,0.0
770.7269,386.37524,125820929,0.5,0.08510638,760.17236,311.452,-0.0061578006,0.03832668,0.027722359,0.0,0.0,0.0
770.7269,386.37524,125820935,0.5,0.08510638,760.17236,311.452,-0.0061578006,0.03832668,0.027722359,0.0,0.0,0.0
813.71295,310.85254,125821185,0.77500004,0.11702127,0.0,0.0,-0.0049262494,-0.017338663,0.006178856,0.0,0.0,0.0
813.71295,310.85254,125821206,0.7875,0.11702127,-0.17921188,-0.067344666,-0.0049262494,-0.017338663,0.006178856,0.0,0.0,0.0
813.71295,310.85254,125821223,0.77500004,0.11702127,-0.052234445,-0.019689307,-0.0049262494,-0.017338663,0.006178856,0.0,0.0,0.0
813.71295,310.85254,125821239,0.7875,0.10638297,-0.008203106,-0.0034053316,-0.0049262494,-0.017338663,0.006178856,0.0,0.0,0.0
813.71295,310.85254,125821256,0.7375,0.09574468,-0.021463688,-0.009467757,-0.0049262494,-0.017338663,0.006178856,0.0,0.0,0.0
792.45905,319.57825,125821273,0.71250004,0.08510638,-673.4227,264.6281,-0.0049262494,-0.017338663,0.006178856,0.0,0.0,0.0
786.17725,327.7975,125821289,0.75,0.10638297,-966.7844,581.5175,-0.0049262494,-0.017338663,0.006178856,0.0,0.0,0.0
781.01764,342.682,125821306,0.7375,0.10638297,-790.24884,884.89374,-0.0049262494,-0.017338663,0.006178856,0.0,0.0,0.0
780.2239,357.50342,125821323,0.7375,0.08510638,-320.90622,1102.7335,-0.0049262494,-0.017338663,0.006178856,0.0,0.0,0.0
783.7676,374.09546,125821340,0.71250004,0.08510638,281.37506,1179.0753,-0.0049262494,-0.017338663,0.006178856,0.0,0.0,0.0
790.3813,388.43787,125821356,0.7,0.12765957,605.97644,1115.6028,-0.0049262494,-0.017338663,0.006178856,0.0,0.0,0.0
796.8507,397.07312,125821373,0.7,0.12765957,625.45795,827.56116,-0.0049262494,-0.017338663,0.006178856,0.0,0.0,0.0
805.91785,405.88477,125821390,0.7,0.10638297,666.9368,461.627,-0.0049262494,-0.017338663,0.006178856,0.0,0.0,0.0
815.6785,410.8518,125821406,0.7375,0.09574468,674.6056,230.80821,-0.0049262494,-0.017338663,0.006178856,0.0,0.0,0.0
825.1697,410.66882,125821423,0.7625,0.09574468,671.42957,2.016392,-0.0049262494,-0.017338663,0.006178856,0.0,0.0,0.0
832.9041,406.6355,125821440,0.77500004,0.10638297,610.80115,-274.558,-0.0049262494,-0.017338663,0.006178856,0.0,0.0,0.0
837.2423,395.85278,125821457,0.75,0.09574468,386.49353,-653.14703,-0.0049262494,-0.017338663,0.006178856,0.0,0.0,0.0
837.80524,379.97876,125821473,0.7625,0.08510638,114.03218,-1078.9211,-0.0049262494,-0.017338663,0.006178856,0.0,0.0,0.0
834.74316,368.71497,125821490,0.75,0.09574468,-208.57005,-1211.9519,-0.0049262494,-0.017338663,0.006178856,0.0,0.0,0.0
830.5733,362.2069,125821507,0.75,0.12765957,-424.99237,-858.53595,-0.0049262494,-0.017338663,0.006178856,0.0,0.0,0.0
823.7393,355.80786,125821523,0.75,0.12765957,-540.79944,-442.15558,-0.0049262494,-0.017338663,0.006178856,0.0,0.0,0.0
816.6518,351.32544,125821540,0.75,0.12765957,-586.0415,-127.63091,-0.0049262494,-0.017338663,0.006178856,0.0,0.0,0.0
811.4286,347.61157,125821557,0.77500004,0.12765957,-505.77167,-64.22074,-0.0049262494,-0.017338663,0.006178856,0.0,0.0,0.0
809.52234,346.0515,125821573,0.8,0.12765957,-320.7983,-63.490807,-0.0049262494,-0.017338663,0.006178856,0.0,0.0,0.0
808.4899,345.50415,125821590,0.825,0.12765957,-41.13417,6.5738387,-0.0049262494,-0.017338663,0.006178856,0.0,0.0,0.0
809.4846,345.50415,125821607,0.825,0.12765957,139.46097,77.92748,-0.0039409995,0.002129063,0.004942894,0.0,0.0,0.0
814.65564,346.0603,125821624,0.7375,0.12765957,274.1836,97.22897,-0.0039409995,0.002129063,0.004942894,0.0,0.0,0.0
837.17834,347.28113,125821640,0.7,0.08510638,850.5162,120.65176,-0.0039409995,0.002129063,0.004942894,0.0,0.0,0.0
891.0214,338.78333,125821657,0.675,0.10638297,2378.2559,-112.93084,-0.0039409995,0.002129063,0.004942894,0.0,0.0,0.0
897.6856,337.50757,125821659,0.3,0.12765957,2659.3098,-190.2758,-0.0039409995,0.002129063,0.004942894,0.0,0.0,0.0
897.6856,337.50757,125821666,0.3,0.12765957,2659.3098,-190.2758,-0.0039409995,0.002129063,0.004942894,0.0,0.0,0.0
954.66705,300.19043,125821965,0.75,0.10638297,0.0,0.0,-0.0039409995,0.002129063,0.004942894,0.0,0.0,0.0
954.66705,300.19043,125821989,0.77500004,0.10638297,0.16545385,0.05356749,-0.0039409995,0.002129063,0.004942894,0.0,0.0,0.0
949.91534,300.77295,125822008,0.7625,0.10638297,-231.01787,28.331387,-0.0039409995,0.002129063,0.004942894,0.0,0.0,0.0
934.8297,303.5382,125822025,0.725,0.10638297,-1052.0519,171.29016,-0.0039409995,0.002129063,0.004942894,0.0,0.0,0.0
928.93463,307.7329,125822041,0.7375,0.09574468,-833.38074,275.79053,-0.0039409995,0.002129063,0.004942894,0.0,0.0,0.0
922.29596,318.2622,125822058,0.725,0.09574468,-630.4666,477.61337,-0.0039409995,0.002129063,0.004942894,0.0,0.0,0.0
916.1942,333.5968,125822075,0.7375,0.10638297,-416.8792,906.08704,-0.0039409995,0.002129063,0.004942894,0.0,0.0,0.0
913.4474,348.70068,125822092,0.71250004,0.12765957,-80.115585,1180.2385,-0.0039409995,0.002129063,0.004942894,0.0,0.0,0.0
913.1806,369.03308,125822108,0.725,0.09574468,-74.62706,1337.3649,-0.0039409995,0.002129063,0.004942894,0.0,0.0,0.0
915.52484,387.32617,125822125,0.71250004,0.11702127,152.02486,1371.8093,-0.0039409995,0.002129063,0.004942894,0.0,0.0,0.0
920.13837,403.1327,125822142,0.6875,0.12765957,381.0763,1209.2668,-0.0039409995,0.002129063,0.004942894,0.0,0.0,0.0
925.34265,412.3778,125822158,0.6875,0.08510638,446.56375,849.3071,-0.0039409995,0.002129063,0.004942894,0.0,0.0,0.0
933.75494,420.65466,125822175,0.7,0.08510638,548.06714,434.67038,-0.019152798,0.0017032474,-0.01204586,0.0,0.0,0.0
942.6386,423.88342,125822192,0.7,0.08510638,619.5521,92.507195,-0.019152798,0.0017032474,-0.01204586,0.0,0.0,0.0
949.96844,422.56714,125822208,0.7375,0.09574468,613.91656,-158.6256,-0.019152798,0.0017032474,-0.01204586,0.0,0.0,0.0
956.8463,415.18652,125822225,0.7375,0.12765957,531.52924,-471.69516,-0.019152798,0.0017032474,-0.01204586,0.0,0.0,0.0
960.6288,404.81543,125822242,0.725,0.10638297,302.58908,-797.2457,-0.019152798,0.0017032474,-0.01204586,0.0,0.0,0.0
960.8977,395.13672,125822259,0.75,0.08510638,65.122154,-934.29736,-0.019152798,0.0017032474,-0.01204586,0.0,0.0,0.0
959.05493,388.3015,125822275,0.75,0.08510638,-168.15662,-762.33154,-0.019152798,0.0017032474,-0.01204586,0.0,0.0,0.0
957.8142,385.75012,125822292,0.75,0.08510638,-277.2438,-388.08453,-0.019152798,0.0017032474,-0.01204586,0.0,0.0,0.0
956.7965,383.94116,125822309,0.77500004,0.08510638,-240.14214,-33.355633,-0.019152798,0.0017032474,-0.01204586,0.0,0.0,0.0
955.7365,383.70972,125822325,0.7875,0.08510638,-134.00386,151.39035,-0.019152798,0.0017032474,-0.01204586,0.0,0.0,0.0
956.13745,385.43506,125822342,0.8,0.10638297,-21.471458,192.23615,-0.019152798,0.0017032474,-0.01204586,0.0,0.0,0.0
957.692,389.99817,125822359,0.725,0.12765957,73.44174,282.54657,-0.019152798,0.0017032474,-0.01204586,0.0,0.0,0.0
961.8778,397.4159,125822376,0.7,0.11702127,208.02013,452.338,-0.019152798,0.0017032474,-0.01204586,0.0,0.0,0.0
974.38354,417.7019,125822392,0.7,0.08510638,548.478,933.45233,-0.019152798,0.0017032474,-0.01204586,0.0,0.0,0.0
997.1023,445.0996,125822409,0.6875,0.10638297,1163.2664,1620.2941,-0.019152798,0.0017032474,-0.01204586,0.0,0.0,0.0
1015.56555,466.1421,125822426,0.675,0.09574468,1555.1014,1913.721,-0.019152798,0.0017032474,-0.01204586,0.0,0.0,0.0
1031.5969,488.74976,125822442,0.6875,0.10638297,1538.5751,1847.6516,-0.019152798,0.0017032474,-0.01204586,0.0,0.0,0.0
1043.3711,505.4077,125822459,0.7,0.09574468,1006.09204,1255.7983,-0.019152798,0.0017032474,-0.01204586,0.0,0.0,0.0
1051.57,517.7572,125822476,0.71250004,0.08510638,479.3687,762.862,-0.019152798,0.0017032474,-0.01204586,0.0,0.0,0.0
1058.1274,532.06885,125822493,0.7375,0.08510638,231.73949,610.4638,-0.019152798,0.0017032474,-0.01204586,0.0,0.0,0.0
1058.7615,539.40234,125822509,0.75,0.08510638,5.8343296,426.08685,-0.019152798,0.0017032474,-0.01204586,0.0,0.0,0.0
1054.6542,543.48645,125822526,0.77500004,0.09574468,-280.82587,233.73802,-0.019152798,0.0017032474,-0.01204586,0.0,0.0,0.0
1043.2434,545.41736,125822543,0.7625,0.10638297,-668.5739,11.736704,-0.019152798,0.0017032474,-0.01204586,0.0,0.0,0.0
1027.2356,542.7711,125822559,0.75,0.11702127,-1115.4653,-255.0312,-0.019152798,0.0017032474,-0.01204586,0.0,0.0,0.0
1011.6128,536.27844,125822576,0.71250004,0.08510638,-1325.768,-494.92136,-0.019152798,0.0017032474,-0.01204586,0.0,0.0,0.0
996.8711,527.0913,125822593,0.71250004,0.10638297,-1254.1208,-668.4853,-0.019152798,0.0017032474,-0.01204586,0.0,0.0,0.0
986.7186,517.72046,125822610,0.71250004,0.12765957,-951.57446,-799.7193,-0.019152798,0.0017032474,-0.01204586,0.0,0.0,0.0
980.92017,510.60437,125822626,0.725,0.11702127,-502.14496,-723.7129,-0.019152798,0.0017032474,-0.01204586,0.0,0.0,0.0
975.78284,497.53906,125822643,0.7375,0.09574468,-187.55981,-720.38495,-0.019152798,0.0017032474,-0.01204586,0.0,0.0,0.0
974.6605,490.86987,125822660,0.75,0.09574468,50.231346,-593.92035,-0.019152798,0.0017032474,-0.01204586,0.0,0.0,0.0
975.17163,488.09888,125822676,0.725,0.09574468,162.78339,-338.5886,-0.019152798,0.0017032474,-0.01204586,0.0,0.0,0.0
983.15784,484.99915,125822688,0.2,0.06382979,336.2648,-204.30968,-0.019152798,0.0017032474,-0.01204586,0.0,0.0,0.0
983.15784,484.99915,125822696,0.2,0.06382979,336.2648,-204.30968,-0.019152798,0.0017032474,-0.01204586,0.0,0.0,0.0
986.15686,429.02344,125822921,0.75,0.08510638,0.0,0.0,0.024677768,-0.014637396,-0.009636879,0.0,0.0,0.0
986.15686,429.02344,125822944,0.7625,0.08510638,-0.05107279,-0.021750968,0.024677768,-0.014637396,-0.009636879,0.0,0.0,0.0
986.15686,429.02344,125822957,0.7875,0.10638297,-0.10649656,-0.04463382,0.024677768,-0.014637396,-0.009636879,0.0,0.0,0.0
986.15686,429.02344,125822977,0.77500004,0.10638297,0.010477692,0.0025155204,0.024677768,-0.014637396,-0.009636879,0.0,0.0,0.0
990.3004,412.4508,125822994,0.71250004,0.12765957,173.33629,-693.4152,0.024677768,-0.014637396,-0.009636879,0.0,0.0,0.0
994.4752,389.85156,125823011,0.7,0.06382979,283.6545,-1315.3795,0.024677768,-0.014637396,-0.009636879,0.0,0.0,0.0
997.3937,370.02124,125823027,0.725,0.09574468,324.91446,-1762.977,0.024677768,-0.014637396,-0.009636879,0.0,0.0,0.0
995.8445,352.8053,125823044,0.7375,0.10638297,155.74637,-1675.9854,0.024677768,-0.014637396,-0.009636879,0.0,0.0,0.0
991.79663,333.36975,125823061,0.71250004,0.08510638,-198.4025,-1203.0406,0.024677768,-0.014637396,-0.009636879,0.0,0.0,0.0
985.2169,309.74988,125823077,0.6875,0.10638297,-508.41885,-1183.9745,0.024677768,-0.014637396,-0.009636879,0.0,0.0,0.0
979.562,285.77246,125823094,0.6875,0.09574468,-580.8022,-1394.4258,0.024677768,-0.014637396,-0.009636879,0.0,0.0,0.0
975.7108,254.11145,125823111,0.71250004,0.11702127,-452.93558,-1849.9094,0.024677768,-0.014637396,-0.009636879,0.0,0.0,0.0
972.9498,234.97253,125823128,0.725,0.09574468,-249.9239,-1795.6025,0.024677768,-0.014637396,-0.009636879,0.0,0.0,0.0
971.2638,224.50525,125823144,0.75,0.09574468,-63.98979,-1131.1034,0.024677768,-0.014637396,-0.009636879,0.0,0.0,0.0
970.66187,220.34021,125823161,0.75,0.09574468,14.4011755,-299.3397,0.024677768,-0.014637396,-0.009636879,0.0,0.0,0.0
970.66187,220.22522,125823178,0.7875,0.11702127,58.196957,449.19867,0.024677768,-0.014637396,-0.009636879,0.0,0.0,0.0
971.68115,223.88416,125823194,0.7625,0.11702127,95.48366,603.0904,0.024677768,-0.014637396,-0.009636879,0.0,0.0,0.0
976.5056,241.10327,125823211,0.725,0.10638297,216.75429,913.9882,0.024677768,-0.014637396,-0.009636879,0.0,0.0,0.0
986.8937,275.59387,125823228,0.7375,0.10638297,510.22427,1808.62,0.024677768,-0.014637396,-0.009636879,0.0,0.0,0.0
996.6476,309.41223,125823244,0.7625,0.08510638,737.4377,2568.8914,0.024677768,-0.014637396,-0.009636879,0.0,0.0,0.0
1004.157,337.52856,125823261,0.75,0.12765957,763.248,2694.2297,0.024677768,-0.014637396,-0.009636879,0.0,0.0,0.0
1009.5211,358.37646,125823278,0.7375,0.08510638,571.4522,2122.6467,0.024677768,-0.014637396,-0.009636879,0.0,0.0,0.0
1012.90173,370.391,125823295,0.7375,0.08510638,220.32756,896.01746,0.011742204,-0.011709914,-0.007709503,0.0,0.0,0.0
1014.44604,375.35498,125823311,0.7625,0.08510638,52.8325,182.86194,0.011742204,-0.011709914,-0.007709503,0.0,0.0,0.0
1014.6476,375.71326,125823328,0.7625,0.08510638,-78.07277,-338.38632,0.011742204,-0.011709914,-0.007709503,0.0,0.0,0.0
1015.02454,375.0431,125823345,0.77500004,0.10638297,-121.83341,-531.7069,0.011742204,-0.011709914,-0.007709503,0.0,0.0,0.0
1016.9663,370.8634,125823361,0.7625,0.11702127,-53.913425,-530.0017,0.011742204,-0.011709914,-0.007709503,0.0,0.0,0.0
1019.0658,365.26514,125823378,0.725,0.12765957,81.96299,-508.70502,0.011742204,-0.011709914,-0.007709503,0.0,0.0,0.0
1022.65173,358.81958,125823395,0.7375,0.12765957,209.8882,-516.8047,0.011742204,-0.011709914,-0.007709503,0.0,0.0,0.0
1026.7975,356.09778,125823412,0.725,0.12765957,281.38016,-413.93933,0.011742204,-0.011709914,-0.007709503,0.0,0.0,0.0
1032.7297,358.2417,125823428,0.7375,0.10638297,345.77222,-112.52618,0.011742204,-0.011709914,-0.007709503,0.0,0.0,0.0
1041.8203,365.09595,125823445,0.71250004,0.08510638,492.2561,328.48447,0.011742204,-0.011709914,-0.007709503,0.0,0.0,0.0
1060.2065,382.4425,125823462,0.7,0.09574468,854.0721,899.6172,0.011742204,-0.011709914,-0.007709503,0.0,0.0,0.0
1074.8411,395.4497,125823478,0.6875,0.12765957,1146.069,1224.4714,0.011742204,-0.011709914,-0.007709503,0.0,0.0,0.0
1093.2354,409.83972,125823495,0.7,0.09574468,1309.8523,1235.3059,0.011742204,-0.011709914,-0.007709503,0.0,0.0,0.0
1112.6313,419.479,125823512,0.6875,0.08510638,1328.2744,932.0287,0.011742204,-0.011709914,-0.007709503,0.0,0.0,0.0
1135.3005,425.41467,125823529,0.7,0.09574468,1301.7612,461.9807,0.011742204,-0.011709914,-0.007709503,0.0,0.0,0.0
1158.6007,425.46936,125823540,0.6625,0.08510638,1536.2809,203.80623,0.011742204,-0.011709914,-0.007709503,0.0,0.0,0.0
1158.6007,425.46936,125823547,0.6625,0.08510638,1536.2809,203.80623,0.011742204,-0.011709914,-0.007709503,0.0,0.0,0.0
