x,y,timestamp,pressure,fingerarea,velocityx,velocityy,accelx,accely,accelz,gyrox,gyroy,gyroz
421.3407,373.04773,71233856,0.8,0.09574468,0.0,0.0,-0.012120658,9.0911984E-4,0.005680084,0.0,0.0,0.0
398.64172,377.49487,71233938,0.875,0.08510638,-905.0343,159.52779,-0.012120658,9.0911984E-4,0.005680084,0.0,0.0,0.0
387.75616,385.96777,71233954,0.85,0.12765957,-1076.0624,410.52112,-0.012120658,9.0911984E-4,0.005680084,0.0,0.0,0.0
378.4633,397.3368,71233970,0.8625,0.12765957,-1045.7761,727.0478,-0.012120658,9.0911984E-4,0.005680084,0.0,0.0,0.0
364.91718,422.39075,71233987,0.8875,0.08510638,-863.8984,1226.9359,-0.012120658,9.0911984E-4,0.005680084,0.0,0.0,0.0
359.11584,438.93054,71234004,0.875,0.10638297,-529.4041,1516.4806,-0.012120658,9.0911984E-4,0.005680084,0.0,0.0,0.0
356.8617,453.04456,71234021,0.90000004,0.12765957,-197.46394,1400.7836,-0.012120658,9.0911984E-4,0.005680084,0.0,0.0,0.0
359.6778,469.66467,71234037,0.875,0.10638297,62.941986,1165.1593,-0.012120658,9.0911984E-4,0.005680084,0.0,0.0,0.0
366.28085,484.86096,71234054,0.875,0.11702127,530.6865,845.7319,-0.012120658,9.0911984E-4,0.005680084,0.0,0.0,0.0
374.98065,494.88367,71234071,0.8625,0.12765957,767.2931,669.2075,-0.012120658,9.0911984E-4,0.005680084,0.0,0.0,0.0
391.8324,505.14575,71234087,0.875,0.10638297,1001.0733,553.87994,-0.012120658,9.0911984E-4,0.005680084,0.0,0.0,0.0
411.14725,511.3883,71234104,0.8625,0.12765957,1324.0227,335.65903,-0.012120658,9.0911984E-4,0.005680084,0.0,0.0,0.0
430.27063,512.5427,71234121,0.8625,0.12765957,1485.3435,94.08303,-0.012120658,9.0911984E-4,0.005680084,0.0,0.0,0.0
450.977,509.85132,71234138,0.85,0.12765957,1464.6255,-200.53647,-0.012120658,9.0911984E-4,0.005680084,0.0,0.0,0.0
468.50305,504.2881,71234154,0.83750004,0.11702127,1289.8196,-479.1452,-0.012120658,9.0911984E-4,0.005680084,0.0,0.0,0.0
480.9724,492.7827,71234171,0.8625,0.08510638,931.84326,-766.928,-0.012120658,9.0911984E-4,0.005680084,0.0,0.0,0.0
492.37952,478.53796,71234188,0.8625,0.10638297,657.24646,-985.72766,-0.012120658,9.0911984E-4,0.005680084,0.0,0.0,0.0
499.75153,465.56506,71234204,0.8625,0.12765957,377.01105,-1076.082,-0.012120658,9.0911984E-4,0.005680084,0.0,0.0,0.0
507.22278,437.25085,71234221,0.90000004,0.10638297,267.84335,-1447.1879,-0.012120658,9.0911984E-4,0.005680084,0.0,0.0,0.0
508.0678,414.90247,71234238,0.90000004,0.12765957,135.73799,-1721.8597,-0.012120658,9.0911984E-4,0.005680084,0.0,0.0,0.0
505.66583,395.87256,71234254,0.90000004,0.10638297,-181.53235,-1606.4543,-0.012120658,9.0911984E-4,0.005680084,0.0,0.0,0.0
499.03442,376.72144,71234271,0.90000004,0.10638297,-499.47232,-1313.531,-0.012120658,9.0911984E-4,0.005680084,0.0,0.0,0.0
492.9156,366.44507,71234288,0.9125,0.12765957,-671.9207,-746.4404,-0.009696526,-0.015272707,-0.011455536,0.0,0.0,0.0
484.25397,357.088,71234305,0.925,0.12765957,-663.85205,-416.41476,-0.009696526,-0.015272707,-0.011455536,0.0,0.0,0.0
471.1361,348.5818,71234321,0.925,0.12765957,-755.2686,-280.07202,-0.009696526,-0.015272707,-0.011455536,0.0,0.0,0.0
457.0072,342.02307,71234338,0.90000004,0.12765957,-921.85425,-194.43394,-0.009696526,-0.015272707,-0.011455536,0.0,0.0,0.0
444.5006,340.1239,71234355,0.9125,0.12765957,-971.25397,-132.31706,-0.009696526,-0.015272707,-0.011455536,0.0,0.0,0.0
436.33487,340.1731,71234371,0.9125,0.12765957,-791.7639,26.504465,-0.009696526,-0.015272707,-0.011455536,0.0,0.0,0.0
430.75455,342.15723,71234388,0.90000004,0.12765957,-439.1586,235.69254,-0.009696526,-0.015272707,-0.011455536,0.0,0.0,0.0
427.32407,344.0321,71234405,0.8875,0.12765957,-125.61372,304.8809,-0.009696526,-0.015272707,-0.011455536,0.0,0.0,0.0
426.13794,344.6156,71234422,0.90000004,0.12765957,50.505028,231.49004,-0.009696526,-0.015272707,-0.011455536,0.0,0.0,0.0
426.0627,348.5669,71234438,0.875,0.12765957,112.67115,185.10912,-0.009696526,-0.015272707,-0.011455536,0.0,0.0,0.0
429.6911,352.24634,71234455,0.8625,0.12765957,211.08517,209.23415,-0.009696526,-0.015272707,-0.011455536,0.0,0.0,0.0
444.5774,360.09216,71234472,0.8625,0.09574468,617.2371,380.141,-0.009696526,-0.015272707,-0.011455536,0.0,0.0,0.0
462.85846,365.39136,71234488,0.83750004,0.10638297,1207.039,494.9637,-0.009696526,-0.015272707,-0.011455536,0.0,0.0,0.0
481.94836,366.82825,71234505,0.83750004,0.10638297,1548.0739,351.6277,-0.009696526,-0.015272707,-0.011455536,0.0,0.0,0.0
505.93103,363.67554,71234522,0.825,0.09574468,1679.3654,13.280295,-0.009696526,-0.015272707,-0.011455536,0.0,0.0,0.0
526.3,355.54248,71234539,0.8,0.12765957,1582.8687,-466.4231,-0.009696526,-0.015272707,-0.011455536,0.0,0.0,0.0
548.03827,342.67688,71234555,0.825,0.09574468,1402.079,-879.4029,-0.009696526,-0.015272707,-0.011455536,0.0,0.0,0.0
567.1493,326.04492,71234572,0.85,0.10638297,1281.414,-1163.8557,-0.009696526,-0.015272707,-0.011455536,0.0,0.0,0.0
579.43524,309.15552,71234589,0.85,0.12765957,934.21606,-1302.5085,-0.009696526,-0.015272707,-0.011455536,0.0,0.0,0.0
588.5642,291.44775,71234605,0.8875,0.11702127,557.87854,-1298.1271,-0.009696526,-0.015272707,-0.011455536,0.0,0.0,0.0
602.0195,261.42188,71234622,0.875,0.12765957,467.70108,-1583.9293,-0.009696526,-0.015272707,-0.011455536,0.0,0.0,0.0
607.8174,245.33911,71234639,0.875,0.12765957,331.10254,-1533.7804,-0.009696526,-0.015272707,-0.011455536,0.0,0.0,0.0
610.7337,228.13977,71234656,0.875,0.10638297,216.78667,-1240.1561,-0.009696526,-0.015272707,-0.011455536,0.0,0.0,0.0
611.292,212.75452,71234672,0.875,0.10638297,-34.102192,-889.14557,-0.009696526,-0.015272707,-0.011455536,0.0,0.0,0.0
607.9781,199.87354,71234689,0.875,0.12765957,-331.8198,-606.581,-0.009696526,-0.015272707,-0.011455536,0.0,0.0,0.0
604.1807,191.61462,71234706,0.8875,0.12765957,-416.40204,-551.88367,-0.009696526,-0.015272707,-0.011455536,0.0,0.0,0.0
599.79236,185.40967,71234722,0.875,0.12765957,-431.65082,-288.84836,-0.009696526,-0.015272707,-0.011455536,0.0,0.0,0.0
592.694,177.94043,71234739,0.8625,0.11702127,-458.54953,-174.16983,-0.009696526,-0.015272707,-0.011455536,0.0,0.0,0.0
583.3778,171.4054,71234756,0.8625,0.10638297,-542.7919,-233.6182,-0.009696526,-0.015272707,-0.011455536,0.0,0.0,0.0
573.50006,167.74597,71234773,0.85,0.10638297,-673.92566,-261.77576,-0.009696526,-0.015272707,-0.011455536,0.0,0.0,0.0
563.6637,166.91492,71234789,0.85,0.10638297,-729.7533,-129.5515,-0.009696526,-0.015272707,-0.011455536,0.0,0.0,0.0
556.631,169.97473,71234806,0.825,0.10638297,-606.88776,154.39769,-0.009696526,-0.015272707,-0.011455536,0.0,0.0,0.0
550.0572,174.8136,71234823,0.83750004,0.12765957,-440.87106,397.70963,-0.015757222,-0.012218162,-0.025164604,0.0,0.0,0.0
542.9897,188.5697,71234839,0.85,0.11702127,-338.04926,709.48175,-0.015757222,-0.012218162,-0.025164604,0.0,0.0,0.0
536.9746,209.3468,71234856,0.8625,0.11702127,-327.05505,1216.8896,-0.015757222,-0.012218162,-0.025164604,0.0,0.0,0.0
534.03235,231.34924,71234873,0.83750004,0.12765957,-270.37207,1651.1969,-0.015757222,-0.012218162,-0.025164604,0.0,0.0,0.0
531.68854,256.86963,71234890,0.85,0.11702127,-116.72575,1851.7877,-0.015757222,-0.012218162,-0.025164604,0.0,0.0,0.0
530.30524,281.85852,71234906,0.85,0.12765957,-3.3064415,1824.4425,-0.015757222,-0.012218162,-0.025164604,0.0,0.0,0.0
530.30524,306.20508,71234923,0.83750004,0.11702127,74.6854,1617.049,-0.015757222,-0.012218162,-0.025164604,0.0,0.0,0.0
531.64716,331.38428,71234940,0.85,0.11702127,102.028625,1545.059,-0.015757222,-0.012218162,-0.025164604,0.0,0.0,0.0
533.2431,355.3506,71234956,0.83750004,0.12765957,147.7121,1473.2709,-0.015757222,-0.012218162,-0.025164604,0.0,0.0,0.0
535.323,380.39697,71234973,0.825,0.11702127,191.21655,1458.1398,-0.015757222,-0.012218162,-0.025164604,0.0,0.0,0.0
539.0212,402.8407,71234990,0.8125,0.11702127,221.91962,1420.7078,-0.015757222,-0.012218162,-0.025164604,0.0,0.0,0.0
542.07513,424.91235,71235006,0.8125,0.08510638,242.1541,1329.0433,-0.015757222,-0.012218162,-0.025164604,0.0,0.0,0.0
547.03516,442.3164,71235023,0.8125,0.12765957,283.35608,1184.2054,-0.015757222,-0.012218162,-0.025164604,0.0,0.0,0.0
552.6288,457.15234,71235040,0.83750004,0.12765957,353.30246,920.27094,-0.015757222,-0.012218162,-0.025164604,0.0,0.0,0.0
559.08606,467.2262,71235057,0.825,0.08510638,392.76172,574.5104,-0.015757222,-0.012218162,-0.025164604,0.0,0.0,0.0
566.80145,479.67883,71235073,0.8125,0.08510638,489.3233,453.23587,-0.015757222,-0.012218162,-0.025164604,0.0,0.0,0.0
574.32855,488.8452,71235090,0.8125,0.10638297,522.30786,459.80435,-0.015757222,-0.012218162,-0.025164604,0.0,0.0,0.0
581.1014,495.6454,71235107,0.8125,0.11702127,488.4144,429.0824,-0.015757222,-0.012218162,-0.025164604,0.0,0.0,0.0
587.83813,499.62207,71235123,0.8,0.12765957,429.7572,242.59576,-0.015757222,-0.012218162,-0.025164604,0.0,0.0,0.0
594.6908,501.70496,71235140,0.8,0.12765957,375.29608,7.6207323,-0.015757222,-0.012218162,-0.025164604,0.0,0.0,0.0
600.5093,501.88074,71235157,0.8125,0.10638297,373.74078,-69.35762,-0.015757222,-0.012218162,-0.025164604,0.0,0.0,0.0
606.7581,499.2284,71235174,0.825,0.09574468,355.34586,-202.88264,-0.015757222,-0.012218162,-0.025164604,0.0,0.0,0.0
614.09155,491.7589,71235190,0.825,0.08510638,379.9615,-415.2279,-0.015757222,-0.012218162,-0.025164604,0.0,0.0,0.0
622.3773,478.73193,71235207,0.83750004,0.12765957,456.13675,-754.2978,-0.015757222,-0.012218162,-0.025164604,0.0,0.0,0.0
632.17786,458.99744,71235224,0.8625,0.11702127,566.93964,-1177.1877,-0.015757222,-0.012218162,-0.025164604,0.0,0.0,0.0
639.8194,439.4193,71235240,0.8625,0.11702127,599.41864,-1491.3173,-0.015757222,-0.012218162,-0.025164604,0.0,0.0,0.0
644.35583,421.44763,71235257,0.875,0.12765957,457.90366,-1517.225,-0.015757222,-0.012218162,-0.025164604,0.0,0.0,0.0
648.4335,406.63318,71235274,0.8625,0.12765957,216.91066,-1167.3768,-0.015757222,-0.012218162,-0.025164604,0.0,0.0,0.0
653.0932,393.29846,71235291,0.8875,0.10638297,139.39862,-850.0511,-0.015757222,-0.012218162,-0.025164604,0.0,0.0,0.0
657.3479,384.44897,71235307,0.8875,0.10638297,155.19943,-504.3302,-0.015757222,-0.012218162,-0.025164604,0.0,0.0,0.0
662.5295,377.38293,71235324,0.8875,0.10638297,260.6051,-319.13895,-0.015757222,-0.012218162,-0.025164604,0.0,0.0,0.0
667.66235,372.58435,71235341,0.875,0.12765957,305.1511,-164.14105,-0.015757222,-0.012218162,-0.025164604,0.0,0.0,0.0
672.80414,369.6283,71235357,0.8875,0.10638297,315.9479,-56.220417,-0.012605777,0.014225468,-0.004131317,0.0,0.0,0.0
678.6142,368.60522,71235374,0.8875,0.10638297,348.71835,11.317513,-0.012605777,0.014225468,-0.004131317,0.0,0.0,0.0
684.34357,368.60522,71235391,0.8875,0.11702127,359.08017,99.86295,-0.012605777,0.014225468,-0.004131317,0.0,0.0,0.0
689.5235,368.60522,71235408,0.8875,0.11702127,348.00397,116.77722,-0.012605777,0.014225468,-0.004131317,0.0,0.0,0.0
694.2213,369.66052,71235424,0.8875,0.11702127,306.60892,118.17085,-0.012605777,0.014225468,-0.004131317,0.0,0.0,0.0
698.91986,371.50867,71235441,0.8875,0.11702127,266.68167,133.25316,-0.012605777,0.014225468,-0.004131317,0.0,0.0,0.0
704.6352,373.3629,71235458,0.875,0.10638297,286.8682,150.17458,-0.012605777,0.014225468,-0.004131317,0.0,0.0,0.0
711.49097,375.19336,71235474,0.875,0.10638297,362.85934,160.77089,-0.012605777,0.014225468,-0.004131317,0.0,0.0,0.0
717.2839,377.05762,71235491,0.875,0.10638297,409.9049,136.77753,-0.012605777,0.014225468,-0.004131317,0.0,0.0,0.0
722.1356,378.37878,71235508,0.8875,0.10638297,366.71667,101.45934,-0.012605777,0.014225468,-0.004131317,0.0,0.0,0.0
724.92096,378.37878,71235525,0.8875,0.10638297,232.02866,41.587498,-0.012605777,0.014225468,-0.004131317,0.0,0.0,0.0
726.9295,378.37878,71235541,0.875,0.10638297,88.689285,-22.82579,-0.012605777,0.014225468,-0.004131317,0.0,0.0,0.0
727.74097,378.37878,71235558,0.875,0.10638297,1.3728559,-52.853672,-0.012605777,0.014225468,-0.004131317,0.0,0.0,0.0
727.74097,378.37878,71235575,0.9125,0.10638297,-60.51689,-40.251755,-0.012605777,0.014225468,-0.004131317,0.0,0.0,0.0
727.74097,378.37878,71235591,0.8875,0.10638297,-66.27252,-8.584687,-0.012605777,0.014225468,-0.004131317,0.0,0.0,0.0
726.7055,378.37878,71235608,0.90000004,0.10638297,-86.138626,-0.0058548935,-0.012605777,0.014225468,-0.004131317,0.0,0.0,0.0
723.43616,378.37878,71235625,0.8875,0.10638297,-155.79237,0.018408647,-0.012605777,0.014225468,-0.004131317,0.0,0.0,0.0
715.19525,378.37878,71235642,0.83750004,0.11702127,-359.40305,0.0034193753,-0.012605777,0.014225468,-0.004131317,0.0,0.0,0.0
704.22894,378.37878,71235658,0.85,0.11702127,-656.54156,0.024958441,-0.012605777,0.014225468,-0.004131317,0.0,0.0,0.0
690.6565,378.72266,71235675,0.875,0.10638297,-921.7506,4.87939,-0.012605777,0.014225468,-0.004131317,0.0,0.0,0.0
674.95715,380.57483,71235692,0.8875,0.10638297,-1106.3997,65.46601,-0.012605777,0.014225468,-0.004131317,0.0,0.0,0.0
663.2028,383.8097,71235708,0.875,0.10638297,-1015.5344,165.19699,-0.012605777,0.014225468,-0.004131317,0.0,0.0,0.0
654.04425,386.93896,71235725,0.875,0.12765957,-752.71796,255.50119,-0.012605777,0.014225468,-0.004131317,0.0,0.0,0.0
646.7882,390.29944,71235742,0.875,0.12765957,-437.14902,270.63663,-0.012605777,0.014225468,-0.004131317,0.0,0.0,0.0
641.3716,393.9436,71235758,0.8875,0.12765957,-210.47607,249.18619,-0.012605777,0.014225468,-0.004131317,0.0,0.0,0.0
637.0583,397.67004,71235775,0.8875,0.12765957,-132.3946,233.93279,-0.012605777,0.014225468,-0.004131317,0.0,0.0,0.0
631.87836,405.73376,71235792,0.8875,0.12765957,-160.95529,338.9133,-0.012605777,0.014225468,-0.004131317,0.0,0.0,0.0
628.72784,416.82605,71235809,0.875,0.10638297,-179.22568,602.9251,-0.012605777,0.014225468,-0.004131317,0.0,0.0,0.0
628.7732,427.87878,71235825,0.875,0.10638297,-68.20884,784.56323,-0.012605777,0.014225468,-0.004131317,0.0,0.0,0.0
629.8669,438.91187,71235842,0.875,0.12765957,81.55008,845.4597,-0.012605777,0.014225468,-0.004131317,0.0,0.0,0.0
632.30237,446.8833,71235859,0.875,0.12765957,224.91312,698.1813,-0.012605777,0.014225468,-0.004131317,0.0,0.0,0.0
636.912,459.1654,71235875,0.8625,0.12765957,337.91995,616.77606,0.029915377,0.011380374,-0.01930523,0.0,0.0,0.0
641.34625,471.6859,71235892,0.875,0.11702127,367.43683,663.5142,0.029915377,0.011380374,-0.01930523,0.0,0.0,0.0
646.82715,485.10547,71235909,0.85,0.11702127,387.72412,824.86316,0.029915377,0.011380374,-0.01930523,0.0,0.0,0.0
652.3726,494.4712,71235926,0.85,0.12765957,396.85107,800.86426,0.029915377,0.011380374,-0.01930523,0.0,0.0,0.0
658.15796,501.34253,71235942,0.85,0.12765957,364.74344,529.3706,0.029915377,0.011380374,-0.01930523,0.0,0.0,0.0
666.7393,508.4403,71235959,0.85,0.10638297,432.38724,300.95386,0.029915377,0.011380374,-0.01930523,0.0,0.0,0.0
677.274,515.5725,71235976,0.83750004,0.12765957,586.8814,252.21494,0.029915377,0.011380374,-0.01930523,0.0,0.0,0.0
686.91614,518.69543,71235992,0.825,0.11702127,708.3913,241.22499,0.029915377,0.011380374,-0.01930523,0.0,0.0,0.0
695.2628,519.65076,71236009,0.83750004,0.12765957,663.65894,101.97704,0.029915377,0.011380374,-0.01930523,0.0,0.0,0.0
705.68134,515.9569,71236026,0.83750004,0.12765957,598.69165,-186.20155,0.029915377,0.011380374,-0.01930523,0.0,0.0,0.0
718.3148,507.3684,71236043,0.825,0.10638297,650.38885,-525.1663,0.029915377,0.011380374,-0.01930523,0.0,0.0,0.0
727.07227,495.96143,71236059,0.83750004,0.08510638,682.1978,-808.87616,0.029915377,0.011380374,-0.01930523,0.0,0.0,0.0
733.82495,483.9579,71236076,0.85,0.12765957,566.3898,-966.23883,0.029915377,0.011380374,-0.01930523,0.0,0.0,0.0
741.24457,464.234,71236093,0.85,0.12765957,431.10947,-1209.5829,0.029915377,0.011380374,-0.01930523,0.0,0.0,0.0
743.46277,448.4945,71236109,0.875,0.11702127,153.52988,-1200.0244,0.029915377,0.011380374,-0.01930523,0.0,0.0,0.0
743.4606,432.70728,71236126,0.875,0.11702127,-40.477856,-1124.0609,0.029915377,0.011380374,-0.01930523,0.0,0.0,0.0
741.69836,420.3462,71236143,0.875,0.12765957,-207.52394,-886.57263,0.029915377,0.011380374,-0.01930523,0.0,0.0,0.0
738.7211,410.62244,71236160,0.90000004,0.12765957,-336.16162,-620.69446,0.029915377,0.011380374,-0.01930523,0.0,0.0,0.0
736.4791,404.78784,71236176,0.90000004,0.12765957,-285.0334,-391.33862,0.029915377,0.011380374,-0.01930523,0.0,0.0,0.0
734.85114,400.10266,71236193,0.875,0.12765957,-205.85269,-130.79802,0.029915377,0.011380374,-0.01930523,0.0,0.0,0.0
733.7574,397.9585,71236210,0.9125,0.12765957,-110.26097,-9.236597,0.029915377,0.011380374,-0.01930523,0.0,0.0,0.0
732.72174,396.11755,71236226,0.90000004,0.12765957,-37.49488,35.994057,0.029915377,0.011380374,-0.01930523,0.0,0.0,0.0
731.68304,396.1488,71236243,0.90000004,0.12765957,-25.847557,56.28014,0.029915377,0.011380374,-0.01930523,0.0,0.0,0.0
730.60126,396.1488,71236260,0.85,0.12765957,-42.09247,85.95784,0.029915377,0.011380374,-0.01930523,0.0,0.0,0.0
730.2401,397.51685,71236277,0.8625,0.12765957,-41.008686,107.515884,0.029915377,0.011380374,-0.01930523,0.0,0.0,0.0
730.91785,403.63293,71236293,0.83750004,0.12765957,2.049692,248.46132,0.029915377,0.011380374,-0.01930523,0.0,0.0,0.0
734.1191,417.04712,71236310,0.875,0.10638297,121.996475,611.0673,0.029915377,0.011380374,-0.01930523,0.0,0.0,0.0
737.52026,434.97192,71236327,0.83750004,0.10638297,259.39496,1144.7295,0.029915377,0.011380374,-0.01930523,0.0,0.0,0.0
741.6656,451.36487,71236343,0.83750004,0.12765957,318.83783,1393.2919,0.029915377,0.011380374,-0.01930523,0.0,0.0,0.0
747.09204,469.99072,71236360,0.85,0.11702127,360.23987,1369.0082,0.029915377,0.011380374,-0.01930523,0.0,0.0,0.0
751.7176,486.72083,71236377,0.825,0.11702127,352.39185,1199.3585,0.029915377,0.011380374,-0.01930523,0.0,0.0,0.0
755.97107,496.97498,71236394,0.825,0.12765957,324.75546,887.64417,0.029915377,0.011380374,-0.01930523,0.0,0.0,0.0
762.9251,504.27576,71236410,0.83750004,0.12765957,333.94968,505.3057,-0.008067697,0.009104297,-0.015443802,0.0,0.0,0.0
773.7871,512.5862,71236427,0.825,0.10638297,520.98584,262.29156,-0.008067697,0.009104297,-0.015443802,0.0,0.0,0.0
784.1144,517.1399,71236444,0.825,0.12765957,706.7311,140.26373,-0.008067697,0.009104297,-0.015443802,0.0,0.0,0.0
794.3633,517.8738,71236460,0.825,0.12765957,778.1126,40.476006,-0.008067697,0.009104297,-0.015443802,0.0,0.0,0.0
805.3234,514.54895,71236477,0.825,0.12765957,738.16425,-160.63757,-0.008067697,0.009104297,-0.015443802,0.0,0.0,0.0
819.6691,505.17322,71236494,0.85,0.10638297,760.697,-535.6739,-0.008067697,0.009104297,-0.015443802,0.0,0.0,0.0
835.7289,488.16772,71236510,0.8625,0.10638297,915.94586,-1000.6953,-0.008067697,0.009104297,-0.015443802,0.0,0.0,0.0
849.9223,467.27637,71236527,0.825,0.12765957,1044.6595,-1465.336,-0.008067697,0.009104297,-0.015443802,0.0,0.0,0.0
866.3538,434.7881,71236544,0.85,0.11702127,1006.58307,-1897.1293,-0.008067697,0.009104297,-0.015443802,0.0,0.0,0.0
880.8917,399.45508,71236561,0.83750004,0.12765957,967.443,-2454.4578,-0.008067697,0.009104297,-0.015443802,0.0,0.0,0.0
892.6336,364.68982,71236577,0.85,0.12765957,814.67236,-2585.1106,-0.008067697,0.009104297,-0.015443802,0.0,0.0,0.0
900.53235,330.0144,71236594,0.83750004,0.10638297,584.89905,-2441.2583,-0.008067697,0.009104297,-0.015443802,0.0,0.0,0.0
904.0546,296.57788,71236611,0.8625,0.12765957,244.61288,-2196.9666,-0.008067697,0.009104297,-0.015443802,0.0,0.0,0.0
901.7339,259.7379,71236627,0.875,0.10638297,-155.40778,-2061.9883,-0.008067697,0.009104297,-0.015443802,0.0,0.0,0.0
897.53076,233.61548,71236644,0.8625,0.10638297,-418.3691,-1937.1877,-0.008067697,0.009104297,-0.015443802,0.0,0.0,0.0
889.2006,206.16089,71236661,0.8625,0.12765957,-668.26917,-1624.2357,-0.008067697,0.009104297,-0.015443802,0.0,0.0,0.0
882.1656,193.52551,71236678,0.85,0.12765957,-725.6328,-1064.2462,-0.008067697,0.009104297,-0.015443802,0.0,0.0,0.0
870.7606,172.09937,71236694,0.85,0.11702127,-734.2347,-739.2546,-0.008067697,0.009104297,-0.015443802,0.0,0.0,0.0
865.3484,165.2041,71236711,0.8625,0.11702127,-609.203,-448.24377,-0.008067697,0.009104297,-0.015443802,0.0,0.0,0.0
856.4203,157.2987,71236728,0.8625,0.12765957,-496.43167,-263.65945,-0.008067697,0.009104297,-0.015443802,0.0,0.0,0.0
845.35205,153.5874,71236744,0.83750004,0.10638297,-565.5261,-149.00568,-0.008067697,0.009104297,-0.015443802,0.0,0.0,0.0
835.76337,155.56104,71236761,0.825,0.10638297,-648.59546,175.59055,-0.008067697,0.009104297,-0.015443802,0.0,0.0,0.0
828.3614,160.55933,71236778,0.825,0.10638297,-603.21173,462.59726,-0.008067697,0.009104297,-0.015443802,0.0,0.0,0.0
820.21747,173.75574,71236795,0.83750004,0.12765957,-470.27283,791.57623,-0.008067697,0.009104297,-0.015443802,0.0,0.0,0.0
815.1628,190.48108,71236811,0.83750004,0.12765957,-323.68256,1155.2942,-0.008067697,0.009104297,-0.015443802,0.0,0.0,0.0
812.3467,214.24329,71236828,0.85,0.11702127,-173.38487,1480.4696,-0.008067697,0.009104297,-0.015443802,0.0,0.0,0.0
812.7179,235.41992,71236845,0.8625,0.12765957,-2.1008804,1705.3679,-0.008067697,0.009104297,-0.015443802,0.0,0.0,0.0
814.78534,263.97168,71236861,0.8625,0.11702127,202.38905,1824.8804,-0.008067697,0.009104297,-0.015443802,0.0,0.0,0.0
818.8952,287.17285,71236878,0.8625,0.12765957,359.5936,1752.7467,-0.008067697,0.009104297,-0.015443802,0.0,0.0,0.0
824.7206,317.8689,71236895,0.8875,0.10638297,434.36456,1771.4534,-0.008067697,0.009104297,-0.015443802,0.0,0.0,0.0
830.03906,342.8302,71236912,0.875,0.12765957,464.52423,1741.5688,-0.008067697,0.009104297,-0.015443802,0.0,0.0,0.0
835.53613,371.47253,71236928,0.8625,0.10638297,438.69373,1718.7611,-0.008067697,0.009104297,-0.015443802,0.0,0.0,0.0
838.93695,392.92285,71236945,0.8625,0.12765957,312.6544,1518.9404,-0.006454158,-7.1656704E-4,0.003645897,0.0,0.0,0.0
843.7351,414.97742,71236962,0.8625,0.10638297,233.40147,1257.6289,-0.006454158,-7.1656704E-4,0.003645897,0.0,0.0,0.0
846.8458,437.40735,71236978,0.85,0.10638297,187.62538,1174.1675,-0.006454158,-7.1656704E-4,0.003645897,0.0,0.0,0.0
848.3921,450.4319,71236995,0.85,0.12765957,119.85262,952.6959,-0.006454158,-7.1656704E-4,0.003645897,0.0,0.0,0.0
851.1077,475.3495,71237012,0.85,0.10638297,95.35804,1006.7736,-0.006454158,-7.1656704E-4,0.003645897,0.0,0.0,0.0
852.1476,492.338,71237029,0.825,0.11702127,48.40536,1118.7515,-0.006454158,-7.1656704E-4,0.003645897,0.0,0.0,0.0
852.70026,503.56372,71237045,0.825,0.12765957,13.615248,906.9872,-0.006454158,-7.1656704E-4,0.003645897,0.0,0.0,0.0
853.7328,510.99915,71237062,0.8125,0.11702127,19.450857,551.6138,-0.006454158,-7.1656704E-4,0.003645897,0.0,0.0,0.0
853.69995,515.454,71237079,0.8125,0.11702127,-9.500608,131.46059,-0.006454158,-7.1656704E-4,0.003645897,0.0,0.0,0.0
853.69995,517.1791,71237095,0.825,0.11702127,-17.936928,-127.3759,-0.006454158,-7.1656704E-4,0.003645897,0.0,0.0,0.0
853.69995,516.9852,71237112,0.825,0.11702127,-19.57178,-182.06842,-0.006454158,-7.1656704E-4,0.003645897,0.0,0.0,0.0
853.69995,516.9852,71237129,0.825,0.12765957,-19.219835,-194.6947,-0.006454158,-7.1656704E-4,0.003645897,0.0,0.0,0.0
853.93085,516.5748,71237146,0.8125,0.12765957,-0.9695247,-136.46883,-0.006454158,-7.1656704E-4,0.003645897,0.0,0.0,0.0
854.9683,514.25305,71237162,0.7875,0.12765957,36.94195,-126.942924,-0.006454158,-7.1656704E-4,0.003645897,0.0,0.0,0.0
860.2033,501.4579,71237179,0.8,0.11702127,153.77672,-381.37585,-0.006454158,-7.1656704E-4,0.003645897,0.0,0.0,0.0
873.2248,473.37927,71237196,0.8,0.10638297,581.2182,-1313.6066,-0.006454158,-7.1656704E-4,0.003645897,0.0,0.0,0.0
881.43463,457.02246,71237212,0.83750004,0.10638297,820.2962,-1785.1776,-0.006454158,-7.1656704E-4,0.003645897,0.0,0.0,0.0
891.76685,438.49243,71237229,0.85,0.10638297,831.0616,-1633.0919,-0.006454158,-7.1656704E-4,0.003645897,0.0,0.0,0.0
899.51843,423.1001,71237246,0.85,0.12765957,696.1293,-1262.4971,-0.006454158,-7.1656704E-4,0.003645897,0.0,0.0,0.0
902.70605,418.32214,71237262,0.875,0.12765957,322.08517,-481.35223,-0.006454158,-7.1656704E-4,0.003645897,0.0,0.0,0.0
906.3156,414.65002,71237279,0.875,0.12765957,135.12436,-85.144905,-0.006454158,-7.1656704E-4,0.003645897,0.0,0.0,0.0
908.361,412.87146,71237296,0.8625,0.12765957,13.2928505,156.65239,-0.006454158,-7.1656704E-4,0.003645897,0.0,0.0,0.0
910.4316,413.0304,71237313,0.85,0.12765957,-20.536695,287.2265,-0.006454158,-7.1656704E-4,0.003645897,0.0,0.0,0.0
912.51514,415.10437,71237329,0.85,0.12765957,50.006763,247.22542,-0.006454158,-7.1656704E-4,0.003645897,0.0,0.0,0.0
915.01605,418.95862,71237346,0.85,0.11702127,98.11609,263.90695,-0.006454158,-7.1656704E-4,0.003645897,0.0,0.0,0.0
918.38904,426.26343,71237363,0.8625,0.11702127,173.50214,444.02072,-0.006454158,-7.1656704E-4,0.003645897,0.0,0.0,0.0
922.31604,436.5005,71237379,0.83750004,0.12765957,232.90721,642.37134,-0.006454158,-7.1656704E-4,0.003645897,0.0,0.0,0.0
926.4534,447.53223,71237396,0.85,0.12765957,277.7483,806.4918,-0.006454158,-7.1656704E-4,0.003645897,0.0,0.0,0.0
930.0355,460.51343,71237413,0.85,0.12765957,270.88077,888.4757,-0.006454158,-7.1656704E-4,0.003645897,0.0,0.0,0.0
935.97797,479.1803,71237430,0.85,0.10638297,290.56287,1023.6489,-0.006454158,-7.1656704E-4,0.003645897,0.0,0.0,0.0
941.2466,494.65454,71237446,0.85,0.12765957,333.13382,1139.4836,-0.006454158,-7.1656704E-4,0.003645897,0.0,0.0,0.0
946.11255,507.95764,71237463,0.83750004,0.12765957,356.18542,1093.5537,-0.006454158,-7.1656704E-4,0.003645897,0.0,0.0,0.0
950.6807,517.0016,71237480,0.825,0.10638297,328.42712,776.30457,0.010836674,-5.732477E-4,0.0029172897,0.0,0.0,0.0
956.11096,524.6196,71237496,0.83750004,0.11702127,296.34418,414.1568,0.010836674,-5.732477E-4,0.0029172897,0.0,0.0,0.0
961.87354,530.9425,71237513,0.825,0.11702127,306.86487,207.41125,0.010836674,-5.732477E-4,0.0029172897,0.0,0.0,0.0
967.4076,535.28467,71237530,0.8625,0.11702127,351.84372,149.20522,0.010836674,-5.732477E-4,0.0029172897,0.0,0.0,0.0
972.9199,536.53235,71237547,0.85,0.11702127,372.82565,56.087513,0.010836674,-5.732477E-4,0.0029172897,0.0,0.0,0.0
977.56995,536.1279,71237563,0.8625,0.10638297,314.88574,-61.280277,0.010836674,-5.732477E-4,0.0029172897,0.0,0.0,0.0
983.9883,530.67737,71237580,0.85,0.10638297,290.67102,-296.86166,0.010836674,-5.732477E-4,0.0029172897,0.0,0.0,0.0
1000.41675,514.4535,71237597,0.85,0.12765957,610.457,-761.9148,0.010836674,-5.732477E-4,0.0029172897,0.0,0.0,0.0
1012.3369,500.3241,71237613,0.85,0.11702127,960.5301,-1179.4757,0.010836674,-5.732477E-4,0.0029172897,0.0,0.0,0.0
1018.05945,491.37317,71237630,0.83750004,0.11702127,858.99054,-1141.206,0.010836674,-5.732477E-4,0.0029172897,0.0,0.0,0.0
1021.4558,484.61597,71237647,0.825,0.11702127,414.28802,-724.67236,0.010836674,-5.732477E-4,0.0029172897,0.0,0.0,0.0
1023.1155,479.77222,71237664,0.7875,0.11702127,-54.89896,-245.51845,0.010836674,-5.732477E-4,0.0029172897,0.0,0.0,0.0
1023.1448,477.8883,71237680,0.275,0.11702127,-221.29803,17.129509,0.010836674,-5.732477E-4,0.0029172897,0.0,0.0,0.0
1023.1448,477.8883,71237688,0.275,0.11702127,-221.29803,17.129509,0.010836674,-5.732477E-4,0.0029172897,0.0,0.0,0.0
