x,y,timestamp,pressure,fingerarea,velocityx,velocityy,accelx,accely,accelz,gyrox,gyroy,gyroz
511.3114,342.83862,8484326,0.675,0.10638297,0.0,0.0,0.017769806,-0.033400446,-0.04353714,0.0,0.0,0.0
511.3114,342.83862,8484359,0.7,0.10638297,0.009929025,0.007122725,0.017769806,-0.033400446,-0.04353714,0.0,0.0,0.0
511.3114,342.83862,8484375,0.825,0.10638297,-0.0044312477,-0.0037546714,0.017769806,-0.033400446,-0.04353714,0.0,0.0,0.0
511.3114,342.83862,8484392,0.8625,0.12765957,-0.002528521,-3.3666936E-4,0.017769806,-0.033400446,-0.04353714,0.0,0.0,0.0
493.47485,350.4917,8484409,0.8625,0.12765957,-548.04926,235.13132,0.017769806,-0.033400446,-0.04353714,0.0,0.0,0.0
487.82648,352.01758,8484425,0.9375,0.12765957,-784.54333,312.64633,0.017769806,-0.033400446,-0.04353714,0.0,0.0,0.0
483.48877,353.87012,8484442,1.0,0.11702127,-774.11346,299.85925,0.017769806,-0.033400446,-0.04353714,0.0,0.0,0.0
480.42908,355.67407,8484459,1.0625,0.11702127,-375.65717,157.90475,0.017769806,-0.033400446,-0.04353714,0.0,0.0,0.0
476.27142,357.52173,8484476,1.0875,0.11702127,-15.448094,29.256939,0.017769806,-0.033400446,-0.04353714,0.0,0.0,0.0
472.11572,359.36853,8484492,1.0875,0.10638297,-27.005346,41.552235,0.017769806,-0.033400446,-0.04353714,0.0,0.0,0.0
466.77026,362.71484,8484509,1.0625,0.08510638,-260.3895,147.13809,0.017769806,-0.033400446,-0.04353714,0.0,0.0,0.0
459.30396,368.62683,8484526,1.0375,0.08510638,-391.7841,264.9904,0.017769806,-0.033400446,-0.04353714,0.0,0.0,0.0
450.96967,376.781,8484542,1.025,0.08510638,-514.7676,457.32355,0.017769806,-0.033400446,-0.04353714,0.0,0.0,0.0
443.59778,385.15125,8484559,1.0375,0.12765957,-572.6637,611.72125,0.017769806,-0.033400446,-0.04353714,0.0,0.0,0.0
435.81668,397.96008,8484576,1.0500001,0.12765957,-530.0987,754.9653,0.017769806,-0.033400446,-0.04353714,0.0,0.0,0.0
430.65744,409.95667,8484593,1.0500001,0.11702127,-413.80557,853.8716,0.017769806,-0.033400446,-0.04353714,0.0,0.0,0.0
428.1909,421.9447,8484609,1.0375,0.09574468,-223.96095,857.94965,0.014215846,-0.026720375,-0.0028295517,0.0,0.0,0.0
427.8386,434.0453,8484626,1.0125,0.11702127,-23.309614,824.00446,0.014215846,-0.026720375,-0.0028295517,0.0,0.0,0.0
429.68283,445.07788,8484643,1.0,0.12765957,168.44875,722.3006,0.014215846,-0.026720375,-0.0028295517,0.0,0.0,0.0
434.64462,454.44934,8484659,1.0,0.12765957,356.05588,599.9503,0.014215846,-0.026720375,-0.0028295517,0.0,0.0,0.0
440.74234,463.9762,8484676,0.975,0.08510638,460.82907,533.86383,0.014215846,-0.026720375,-0.0028295517,0.0,0.0,0.0
451.4583,477.87366,8484693,0.95,0.08510638,643.907,634.4326,0.014215846,-0.026720375,-0.0028295517,0.0,0.0,0.0
463.01434,490.7827,8484709,0.925,0.10638297,807.6188,797.9227,0.014215846,-0.026720375,-0.0028295517,0.0,0.0,0.0
476.70288,501.51355,8484726,0.9125,0.12765957,926.786,826.48346,0.014215846,-0.026720375,-0.0028295517,0.0,0.0,0.0
491.43793,510.01123,8484743,0.9125,0.10638297,1014.8801,654.76764,0.014215846,-0.026720375,-0.0028295517,0.0,0.0,0.0
504.99652,515.76184,8484760,0.925,0.10638297,973.5321,372.03894,0.014215846,-0.026720375,-0.0028295517,0.0,0.0,0.0
516.61237,517.8738,8484776,0.95,0.10638297,856.4633,122.37915,0.014215846,-0.026720375,-0.0028295517,0.0,0.0,0.0
526.9786,517.8738,8484793,0.975,0.12765957,668.5175,-93.70572,0.014215846,-0.026720375,-0.0028295517,0.0,0.0,0.0
540.54425,511.2483,8484810,1.0,0.12765957,633.57935,-368.40573,0.014215846,-0.026720375,-0.0028295517,0.0,0.0,0.0
556.2818,496.7433,8484826,1.025,0.08510638,785.37244,-795.19464,0.014215846,-0.026720375,-0.0028295517,0.0,0.0,0.0
570.3327,477.76733,8484843,1.0,0.12765957,914.84235,-1256.3318,0.014215846,-0.026720375,-0.0028295517,0.0,0.0,0.0
582.03284,460.41187,8484860,1.0,0.11702127,892.9627,-1484.8326,0.014215846,-0.026720375,-0.0028295517,0.0,0.0,0.0
591.1019,442.79553,8484877,1.0,0.08510638,677.6743,-1426.3551,0.014215846,-0.026720375,-0.0028295517,0.0,0.0,0.0
598.8086,424.0569,8484893,1.025,0.10638297,439.25674,-1251.2288,0.014215846,-0.026720375,-0.0028295517,0.0,0.0,0.0
601.0784,411.1222,8484910,1.025,0.12765957,193.85513,-981.80255,0.014215846,-0.026720375,-0.0028295517,0.0,0.0,0.0
600.9989,400.23645,8484927,1.025,0.10638297,-76.64624,-696.6336,0.014215846,-0.026720375,-0.0028295517,0.0,0.0,0.0
597.7061,387.7826,8484943,1.0375,0.09574468,-315.15976,-517.22845,0.014215846,-0.026720375,-0.0028295517,0.0,0.0,0.0
593.06354,377.09705,8484960,1.0500001,0.11702127,-494.0263,-499.8294,0.014215846,-0.026720375,-0.0028295517,0.0,0.0,0.0
586.1419,367.30115,8484977,1.0625,0.12765957,-516.4345,-575.0331,0.014215846,-0.026720375,-0.0028295517,0.0,0.0,0.0
574.8513,357.10852,8484994,1.0625,0.12765957,-672.6947,-565.6679,0.014215846,-0.026720375,-0.0028295517,0.0,0.0,0.0
564.994,349.70984,8485010,1.0875,0.12765957,-766.6374,-474.53607,0.014215846,-0.026720375,-0.0028295517,0.0,0.0,0.0
554.712,344.3036,8485027,1.0875,0.12765957,-767.9693,-345.85745,0.014215846,-0.026720375,-0.0028295517,0.0,0.0,0.0
545.8116,341.73047,8485044,1.0875,0.11702127,-681.35724,-193.09781,0.014215846,-0.026720375,-0.0028295517,0.0,0.0,0.0
538.03503,339.85132,8485060,1.0875,0.11702127,-511.69772,-7.4367127,0.014215846,-0.026720375,-0.0028295517,0.0,0.0,0.0
530.2569,340.1731,8485077,1.0625,0.12765957,-428.4499,99.01096,0.014215846,-0.026720375,-0.0028295517,0.0,0.0,0.0
524.4835,340.56506,8485094,1.0875,0.12765957,-355.10455,126.90662,0.014215846,-0.026720375,-0.0028295517,0.0,0.0,0.0
519.5095,341.95007,8485111,1.1,0.12765957,-290.70456,146.88568,0.014215846,-0.026720375,-0.0028295517,0.0,0.0,0.0
516.6948,341.95007,8485127,1.125,0.12765957,-175.14005,106.39256,0.014215846,-0.026720375,-0.0028295517,0.0,0.0,0.0
515.153,343.11792,8485144,1.125,0.12765957,-36.44669,57.442,0.027372677,-0.0053762794,-0.0022640228,0.0,0.0,0.0
514.3104,346.8501,8485161,1.1,0.12765957,30.916698,130.81393,0.027372677,-0.0053762794,-0.0022640228,0.0,0.0,0.0
514.7159,350.4995,8485177,1.0500001,0.12765957,78.19999,232.11809,0.027372677,-0.0053762794,-0.0022640228,0.0,0.0,0.0
516.69556,353.36548,8485194,1.0,0.10638297,129.15099,289.4357,0.027372677,-0.0053762794,-0.0022640228,0.0,0.0,0.0
521.8891,358.01514,8485211,0.975,0.11702127,268.3606,283.12485,0.027372677,-0.0053762794,-0.0022640228,0.0,0.0,0.0
530.26556,364.52625,8485227,0.975,0.09574468,486.42255,332.35666,0.027372677,-0.0053762794,-0.0022640228,0.0,0.0,0.0
540.22235,369.98425,8485244,0.9875,0.08510638,690.0783,399.48953,0.027372677,-0.0053762794,-0.0022640228,0.0,0.0,0.0
551.799,372.4016,8485261,1.0125,0.09574468,832.1186,341.15353,0.027372677,-0.0053762794,-0.0022640228,0.0,0.0,0.0
563.128,373.04773,8485278,1.0,0.09574468,856.11646,151.25548,0.027372677,-0.0053762794,-0.0022640228,0.0,0.0,0.0
573.54675,369.65344,8485294,1.0125,0.11702127,773.82574,-145.53583,0.027372677,-0.0053762794,-0.0022640228,0.0,0.0,0.0
586.9421,362.453,8485311,1.0125,0.12765957,735.4545,-457.32144,0.027372677,-0.0053762794,-0.0022640228,0.0,0.0,0.0
603.32086,349.4673,8485328,1.0125,0.10638297,885.7966,-785.2597,0.027372677,-0.0053762794,-0.0022640228,0.0,0.0,0.0
620.203,333.33887,8485344,1.0,0.08510638,1079.6941,-1113.2087,0.027372677,-0.0053762794,-0.0022640228,0.0,0.0,0.0
633.0329,316.9347,8485361,0.9875,0.11702127,1052.6271,-1269.951,0.027372677,-0.0053762794,-0.0022640228,0.0,0.0,0.0
644.54535,299.48035,8485378,1.0,0.12765957,811.0683,-1264.47,0.027372677,-0.0053762794,-0.0022640228,0.0,0.0,0.0
659.09564,271.49548,8485395,0.9875,0.08510638,652.23334,-1381.3846,0.027372677,-0.0053762794,-0.0022640228,0.0,0.0,0.0
668.6005,249.92407,8485411,1.0,0.10638297,616.5959,-1618.1334,0.027372677,-0.0053762794,-0.0022640228,0.0,0.0,0.0
677.4225,226.87671,8485428,0.975,0.08510638,550.92194,-1619.3005,0.027372677,-0.0053762794,-0.0022640228,0.0,0.0,0.0
684.0435,203.89087,8485445,0.975,0.12765957,427.01166,-1536.6886,0.027372677,-0.0053762794,-0.0022640228,0.0,0.0,0.0
688.6529,180.77966,8485461,0.975,0.11702127,230.1776,-1383.9639,0.027372677,-0.0053762794,-0.0022640228,0.0,0.0,0.0
690.3813,157.96289,8485478,0.9875,0.11702127,57.6754,-1327.288,0.027372677,-0.0053762794,-0.0022640228,0.0,0.0,0.0
687.7504,141.12952,8485495,1.025,0.12765957,-125.1739,-1241.4982,0.027372677,-0.0053762794,-0.0022640228,0.0,0.0,0.0
683.89624,126.92651,8485512,1.0375,0.10638297,-349.20718,-925.5248,0.027372677,-0.0053762794,-0.0022640228,0.0,0.0,0.0
679.4897,116.68445,8485528,1.0500001,0.08510638,-446.35693,-561.25964,0.027372677,-0.0053762794,-0.0022640228,0.0,0.0,0.0
675.61896,110.309814,8485545,1.0500001,0.08510638,-411.43292,-262.57092,0.027372677,-0.0053762794,-0.0022640228,0.0,0.0,0.0
670.28815,104.744995,8485562,1.0625,0.08510638,-338.61047,-119.78444,0.027372677,-0.0053762794,-0.0022640228,0.0,0.0,0.0
664.43005,101.40332,8485578,1.0500001,0.10638297,-347.04404,-42.006615,0.027372677,-0.0053762794,-0.0022640228,0.0,0.0,0.0
659.2622,100.27722,8485595,1.0625,0.11702127,-360.98245,12.339906,0.027372677,-0.0053762794,-0.0022640228,0.0,0.0,0.0
654.95386,100.27722,8485612,1.075,0.11702127,-335.28366,80.23169,0.027372677,-0.0053762794,-0.0022640228,0.0,0.0,0.0
651.7967,101.14734,8485629,1.075,0.11702127,-241.53166,144.90222,0.027372677,-0.0053762794,-0.0022640228,0.0,0.0,0.0
648.6548,103.00903,8485645,1.1,0.11702127,-147.46251,189.19923,0.027372677,-0.0053762794,-0.0022640228,0.0,0.0,0.0
646.0406,106.8999,8485662,1.1125001,0.11702127,-114.60062,232.12088,0.027372677,-0.0053762794,-0.0022640228,0.0,0.0,0.0
644.0361,112.44653,8485679,1.075,0.11702127,-98.982056,342.48962,0.021898141,-0.0043010116,-0.033810616,0.0,0.0,0.0
643.26843,117.93164,8485695,1.0375,0.12765957,-65.99752,426.8532,0.021898141,-0.0043010116,-0.033810616,0.0,0.0,0.0
642.95013,126.203,8485712,1.0125,0.12765957,-9.531604,498.1521,0.021898141,-0.0043010116,-0.033810616,0.0,0.0,0.0
643.7683,138.67102,8485729,1.0,0.11702127,67.9264,680.0325,0.021898141,-0.0043010116,-0.033810616,0.0,0.0,0.0
644.52527,152.80212,8485746,0.9875,0.09574468,100.79275,893.5921,0.021898141,-0.0043010116,-0.033810616,2.9360124E-6,0.0,0.0
645.075,167.72742,8485762,0.95,0.11702127,89.33476,1070.003,0.021898141,-0.0043010116,-0.033810616,2.9360124E-6,0.0,0.0
645.76764,186.3628,8485779,0.9375,0.12765957,69.36639,1169.6512,0.021898141,-0.0043010116,-0.033810616,2.9360124E-6,0.0,0.0
645.76764,208.4325,8485796,0.9375,0.09574468,26.763424,1289.9701,0.021898141,-0.0043010116,-0.033810616,2.9360124E-6,0.0,0.0
645.2678,230.65393,8485812,0.9125,0.12765957,-18.53796,1447.9419,0.021898141,-0.0043010116,-0.033810616,0.0,0.0,0.0
644.3104,255.67615,8485829,0.925,0.11702127,-62.282703,1594.4343,0.021898141,-0.0043010116,-0.033810616,0.0,0.0,0.0
643.3318,278.19092,8485846,0.925,0.09574468,-83.73845,1610.0647,0.021898141,-0.0043010116,-0.033810616,0.0,0.0,0.0
642.7686,304.82703,8485862,0.90000004,0.09574468,-78.400826,1573.3667,0.021898141,-0.0043010116,-0.033810616,0.0,0.0,0.0
643.35785,329.80078,8485879,0.8875,0.11702127,-22.479103,1567.9067,0.021898141,-0.0043010116,-0.033810616,2.9360124E-6,0.0,0.0
644.76794,353.87817,8485896,0.9125,0.11702127,65.270454,1516.11,0.021898141,-0.0043010116,-0.033810616,2.9360124E-6,0.0,0.0
646.57153,379.5747,8485913,0.8875,0.09574468,134.55917,1522.8522,0.021898141,-0.0043010116,-0.033810616,2.9360124E-6,0.0,0.0
649.3809,403.182,8485929,0.8875,0.12765957,193.87004,1479.4933,0.021898141,-0.0043010116,-0.033810616,2.9360124E-6,0.0,0.0
651.9866,424.83606,8485946,0.90000004,0.08510638,212.65738,1366.8235,0.021898141,-0.0043010116,-0.033810616,0.0,0.0,0.0
655.59955,442.85498,8485963,0.875,0.10638297,228.03339,1168.4647,0.021898141,-0.0043010116,-0.033810616,0.0,0.0,0.0
659.53156,459.29797,8485979,0.8875,0.12765957,251.23344,918.9601,0.021898141,-0.0043010116,-0.033810616,0.0,0.0,0.0
664.00653,473.96692,8485996,0.8625,0.08510638,268.96393,757.3341,0.021898141,-0.0043010116,-0.033810616,0.0,0.0,0.0
669.2263,486.5266,8486013,0.875,0.08510638,319.84573,652.1351,0.021898141,-0.0043010116,-0.033810616,0.0,0.0,0.0
672.8975,491.72192,8486030,0.90000004,0.09574468,300.6222,429.41086,0.021898141,-0.0043010116,-0.033810616,0.0,0.0,0.0
678.52405,496.787,8486046,0.90000004,0.10638297,299.82162,168.40201,0.021898141,-0.0043010116,-0.033810616,0.0,0.0,0.0
683.8335,500.13147,8486063,0.95,0.12765957,324.2642,16.744823,0.021898141,-0.0043010116,-0.033810616,0.0,0.0,0.0
687.9869,501.98425,8486080,0.9875,0.12765957,305.94604,-52.04776,0.021898141,-0.0043010116,-0.033810616,0.0,0.0,0.0
692.1255,502.76917,8486096,1.075,0.12765957,274.44836,-35.501877,0.021898141,-0.0043010116,-0.033810616,0.0,0.0,0.0
695.6881,501.62207,8486113,1.1,0.11702127,217.01384,-85.39743,0.021898141,-0.0043010116,-0.033810616,0.0,0.0,0.0
699.32874,497.64124,8486130,1.0625,0.11702127,180.76044,-235.60707,0.021898141,-0.0043010116,-0.033810616,0.0,0.0,0.0
703.0984,490.22046,8486147,1.0500001,0.08510638,194.44708,-417.8811,0.021898141,-0.0043010116,-0.033810616,0.0,0.0,0.0
708.82306,477.72913,8486163,1.0500001,0.10638297,249.78717,-704.9353,0.021898141,-0.0043010116,-0.033810616,0.0,0.0,0.0
715.7222,460.88806,8486180,1.0375,0.12765957,396.03763,-1090.8794,0.021898141,-0.0043010116,-0.033810616,0.0,0.0,0.0
720.41064,445.90295,8486197,1.0500001,0.08510638,421.96182,-1227.4595,0.021898141,-0.0043010116,-0.033810616,0.0,0.0,0.0
724.28534,429.68127,8486213,1.0500001,0.08510638,331.9507,-1179.2183,0.017518513,-0.0034407973,0.036951065,0.0,0.0,0.0
727.44946,416.01636,8486230,1.0500001,0.12765957,191.95561,-998.52545,0.017518513,-0.0034407973,0.036951065,0.0,0.0,0.0
730.0789,404.62292,8486247,1.0500001,0.12765957,87.78915,-761.7024,0.017518513,-0.0034407973,0.036951065,0.0,0.0,0.0
733.7047,391.813,8486264,1.025,0.08510638,124.60265,-676.57007,0.017518513,-0.0034407973,0.036951065,0.0,0.0,0.0
737.8728,382.52112,8486280,1.025,0.09574468,201.67336,-563.24567,0.017518513,-0.0034407973,0.036951065,0.0,0.0,0.0
740.4562,377.10034,8486297,1.025,0.11702127,216.83192,-391.78488,0.017518513,-0.0034407973,0.036951065,0.0,0.0,0.0
744.66235,370.70178,8486314,1.0375,0.11702127,232.93967,-282.56396,0.017518513,-0.0034407973,0.036951065,0.0,0.0,0.0
748.816,365.16418,8486330,1.0375,0.12765957,242.58313,-198.22327,0.017518513,-0.0034407973,0.036951065,0.0,0.0,0.0
754.40845,359.5636,8486347,1.0500001,0.12765957,285.68393,-206.30205,0.017518513,-0.0034407973,0.036951065,0.0,0.0,0.0
759.1518,356.23633,8486364,1.0500001,0.12765957,350.1566,-243.45467,0.017518513,-0.0034407973,0.036951065,0.0,0.0,0.0
764.0869,353.90662,8486380,1.0500001,0.12765957,331.84833,-149.96799,0.017518513,-0.0034407973,0.036951065,0.0,0.0,0.0
769.2877,352.05762,8486397,1.0500001,0.12765957,321.19443,-64.305626,0.017518513,-0.0034407973,0.036951065,0.0,0.0,0.0
774.9452,351.72363,8486414,1.0500001,0.10638297,321.46887,13.445373,0.017518513,-0.0034407973,0.036951065,0.0,0.0,0.0
780.5452,351.72363,8486431,1.0500001,0.10638297,336.17767,55.663227,0.017518513,-0.0034407973,0.036951065,0.0,0.0,0.0
786.3543,353.37,8486447,1.025,0.12765957,363.89297,108.6443,0.017518513,-0.0034407973,0.036951065,0.0,0.0,0.0
791.90155,355.9397,8486464,1.0125,0.12765957,356.03232,172.46722,0.017518513,-0.0034407973,0.036951065,0.0,0.0,0.0
798.2774,359.75537,8486481,0.975,0.11702127,361.6309,257.14313,0.017518513,-0.0034407973,0.036951065,0.0,0.0,0.0
805.0054,363.44568,8486497,0.96250004,0.11702127,391.73935,295.51035,0.017518513,-0.0034407973,0.036951065,0.0,0.0,0.0
812.8155,369.06384,8486514,0.975,0.10638297,449.05176,347.56714,0.017518513,-0.0034407973,0.036951065,0.0,0.0,0.0
819.59534,374.60974,8486531,0.975,0.08510638,468.91568,376.38837,0.017518513,-0.0034407973,0.036951065,0.0,0.0,0.0
826.1875,380.13672,8486548,0.95,0.09574468,442.81564,386.45316,0.017518513,-0.0034407973,0.036951065,0.0,0.0,0.0
831.9562,384.81958,8486564,0.925,0.09574468,374.64822,355.50574,0.017518513,-0.0034407973,0.036951065,0.0,0.0,0.0
836.6896,389.0266,8486581,0.925,0.10638297,291.05096,273.48383,0.017518513,-0.0034407973,0.036951065,0.0,0.0,0.0
840.41254,392.5453,8486598,0.9125,0.10638297,217.13281,203.1177,0.017518513,-0.0034407973,0.036951065,0.0,0.0,0.0
843.31415,396.3457,8486614,0.925,0.12765957,146.40913,176.67131,0.017518513,-0.0034407973,0.036951065,0.0,0.0,0.0
845.0524,398.54712,8486631,0.9375,0.12765957,80.792984,148.83363,0.017518513,-0.0034407973,0.036951065,0.0,0.0,0.0
846.58276,400.3789,8486648,0.975,0.12765957,36.587734,101.74529,0.017518513,-0.0034407973,0.036951065,0.0,0.0,0.0
847.6404,401.47986,8486665,1.0,0.12765957,18.89144,57.063717,0.017518513,-0.0034407973,0.036951065,0.0,0.0,0.0
847.7019,401.47986,8486681,1.0125,0.12765957,-10.415436,-10.061962,0.017518513,-0.0034407973,0.036951065,0.0,0.0,0.0
847.7019,401.47986,8486698,1.0375,0.12765957,-27.813103,-48.720016,0.017518513,-0.0034407973,0.036951065,0.0,0.0,0.0
847.7019,401.47986,8486713,1.025,0.12765957,-39.7631,-53.795967,0.017518513,-0.0034407973,0.036951065,0.0,0.0,0.0
847.7019,401.47986,8486730,1.0,0.12765957,-40.818447,-49.27404,0.017518513,-0.0034407973,0.036951065,0.0,0.0,0.0
847.0657,399.46033,8486748,1.0125,0.12765957,-28.972174,-66.68173,0.01401481,0.013247371,0.013561249,0.0,0.0,0.0
846.0198,397.60107,8486765,1.025,0.10638297,-50.81928,-115.92065,0.01401481,0.013247371,0.013561249,0.0,0.0,0.0
842.60443,394.08838,8486782,1.0375,0.10638297,-154.21754,-199.44733,0.01401481,0.013247371,0.013561249,0.0,0.0,0.0
837.1682,388.5636,8486798,1.0375,0.08510638,-302.39725,-318.75735,0.01401481,0.013247371,0.013561249,0.0,0.0,0.0
830.24084,383.10046,8486815,1.0375,0.08510638,-467.68326,-402.51047,0.01401481,0.013247371,0.013561249,0.0,0.0,0.0
823.7007,378.07727,8486832,1.0500001,0.09574468,-532.71173,-422.77063,0.01401481,0.013247371,0.013561249,0.0,0.0,0.0
817.1393,372.86548,8486848,1.0500001,0.09574468,-498.7842,-363.1178,0.01401481,0.013247371,0.013561249,0.0,0.0,0.0
810.3079,368.95703,8486865,1.0375,0.11702127,-438.99387,-271.1705,0.01401481,0.013247371,0.013561249,0.0,0.0,0.0
804.12476,366.94922,8486882,1.0500001,0.10638297,-398.18738,-176.24782,0.01401481,0.013247371,0.013561249,0.0,0.0,0.0
796.75433,365.0603,8486898,1.0625,0.10638297,-393.28278,-76.16464,0.01401481,0.013247371,0.013561249,0.0,0.0,0.0
791.0303,365.05115,8486915,1.0625,0.10638297,-396.77386,13.50705,0.01401481,0.013247371,0.013561249,0.0,0.0,0.0
784.8605,365.05115,8486932,1.0625,0.10638297,-371.83975,71.57656,0.01401481,0.013247371,0.013561249,0.0,0.0,0.0
779.6288,366.15125,8486949,1.1,0.10638297,-328.91956,91.975624,0.01401481,0.013247371,0.013561249,0.0,0.0,0.0
775.76874,367.09863,8486965,1.0875,0.10638297,-259.81427,106.9471,0.01401481,0.013247371,0.013561249,0.0,0.0,0.0
772.64636,368.94873,8486982,1.0875,0.10638297,-170.42476,133.77602,0.01401481,0.013247371,0.013561249,0.0,0.0,0.0
770.0245,370.79846,8486999,1.075,0.11702127,-109.840996,146.97964,0.01401481,0.013247371,0.013561249,0.0,0.0,0.0
766.14355,375.3822,8487015,1.0500001,0.11702127,-130.51288,212.21622,0.01401481,0.013247371,0.013561249,0.0,0.0,0.0
762.2968,380.92493,8487032,1.025,0.11702127,-198.12431,332.3345,0.01401481,0.013247371,0.013561249,0.0,0.0,0.0
759.1964,386.43616,8487049,1.0125,0.11702127,-232.06757,412.95126,0.01401481,0.013247371,0.013561249,0.0,0.0,0.0
755.58685,391.964,8487066,0.975,0.12765957,-223.15479,428.18982,0.01401481,0.013247371,0.013561249,0.0,0.0,0.0
751.476,399.12744,8487082,0.9875,0.12765957,-224.79364,420.2652,0.01401481,0.013247371,0.013561249,2.9360124E-6,0.0,0.0
748.35645,406.52112,8487099,0.9875,0.12765957,-209.2555,432.74866,0.01401481,0.013247371,0.013561249,2.9360124E-6,0.0,0.0
745.7123,413.99988,8487116,1.0,0.08510638,-188.46097,487.49646,0.01401481,0.013247371,0.013561249,2.9360124E-6,0.0,0.0
742.5794,423.36096,8487132,0.975,0.08510638,-162.4898,545.4484,0.01401481,0.013247371,0.013561249,2.9360124E-6,0.0,0.0
739.4688,433.531,8487149,0.975,0.10638297,-156.58531,615.59216,0.01401481,0.013247371,0.013561249,0.0,0.0,0.0
736.4895,440.56885,8487166,0.975,0.12765957,-174.10127,585.5024,0.01401481,0.013247371,0.013561249,0.0,0.0,0.0
734.24994,448.24133,8487183,0.975,0.10638297,-161.71141,506.98456,0.01401481,0.013247371,0.013561249,0.0,0.0,0.0
731.3271,457.14514,8487199,0.975,0.10638297,-155.51639,471.7526,0.01401481,0.013247371,0.013561249,0.0,0.0,0.0
730.2401,464.95667,8487216,0.9875,0.10638297,-109.215614,446.26657,0.01401481,0.013247371,0.013561249,2.9360124E-6,0.0,0.0
730.2401,473.31885,8487233,0.9875,0.08510638,-23.842371,497.51437,0.01401481,0.013247371,0.013561249,2.9360124E-6,0.0,0.0
730.5656,483.13928,8487249,0.96250004,0.08510638,51.70163,540.3748,0.01401481,0.013247371,0.013561249,2.9360124E-6,0.0,0.0
731.106,491.15564,8487266,0.95,0.09574468,100.68474,548.01666,0.01401481,0.013247371,0.013561249,2.9360124E-6,0.0,0.0
732.55194,497.82703,8487283,0.95,0.10638297,106.4817,493.75363,-0.004788153,0.010597885,0.010848999,0.0,0.0,0.0
735.0652,504.23804,8487300,0.9375,0.12765957,135.38861,384.46152,-0.004788153,0.010597885,0.010848999,0.0,0.0,0.0
737.1805,507.9983,8487316,0.9125,0.12765957,180.54033,244.59451,-0.004788153,0.010597885,0.010848999,0.0,0.0,0.0
740.8002,512.6179,8487333,0.925,0.11702127,221.60983,179.49791,-0.004788153,0.010597885,0.010848999,0.0,0.0,0.0
745.5769,518.23816,8487350,0.9375,0.11702127,276.53415,222.08792,-0.004788153,0.010597885,0.010848999,0.0,0.0,0.0
750.70605,521.7637,8487366,0.95,0.09574468,334.22446,231.42743,-0.004788153,0.010597885,0.010848999,0.0,0.0,0.0
756.4169,525.469,8487383,0.96250004,0.08510638,388.72177,228.09741,-0.004788153,0.010597885,0.010848999,0.0,0.0,0.0
762.8301,527.0847,8487400,1.0,0.10638297,421.01968,153.811,-0.004788153,0.010597885,0.010848999,0.0,0.0,0.0
769.06006,527.64734,8487417,1.0,0.09574468,417.1365,36.810787,-0.004788153,0.010597885,0.010848999,0.0,0.0,0.0
775.2847,527.18555,8487433,1.0,0.09574468,397.24026,-62.128056,-0.004788153,0.010597885,0.010848999,0.0,0.0,0.0
781.8218,524.8048,8487450,1.0,0.09574468,393.2414,-160.61485,-0.004788153,0.010597885,0.010848999,0.0,0.0,0.0
790.2798,520.50415,8487467,0.975,0.12765957,444.09662,-271.599,-0.004788153,0.010597885,0.010848999,0.0,0.0,0.0
800.4254,514.2661,8487483,0.9875,0.12765957,561.1409,-405.0182,-0.004788153,0.010597885,0.010848999,0.0,0.0,0.0
812.8429,505.99707,8487500,1.0125,0.10638297,738.78485,-548.2145,-0.004788153,0.010597885,0.010848999,0.0,0.0,0.0
823.73346,496.93433,8487517,0.9875,0.09574468,813.6323,-642.8939,-0.004788153,0.010597885,0.010848999,0.0,0.0,0.0
833.6829,486.80127,8487533,1.0,0.08510638,748.3951,-689.44324,-0.004788153,0.010597885,0.010848999,0.0,0.0,0.0
840.87476,477.63843,8487550,1.0,0.10638297,549.3484,-667.9729,-0.004788153,0.010597885,0.010848999,0.0,0.0,0.0
845.4913,470.27014,8487567,1.0,0.12765957,313.98813,-563.79913,-0.004788153,0.010597885,0.010848999,0.0,0.0,0.0
849.8939,462.2389,8487584,1.0125,0.12765957,153.89731,-464.0117,-0.004788153,0.010597885,0.010848999,0.0,0.0,0.0
854.50024,451.67773,8487600,1.025,0.11702127,126.66522,-500.003,-0.004788153,0.010597885,0.010848999,0.0,0.0,0.0
856.59033,442.3894,8487617,1.0375,0.09574468,101.395004,-558.68677,-0.004788153,0.010597885,0.010848999,0.0,0.0,0.0
857.69867,434.45898,8487634,1.0375,0.09574468,74.04919,-584.7568,-0.004788153,0.010597885,0.010848999,0.0,0.0,0.0
857.69867,428.46045,8487650,1.0500001,0.11702127,-36.60102,-442.69272,-0.004788153,0.010597885,0.010848999,0.0,0.0,0.0
857.69867,422.9054,8487667,1.0500001,0.11702127,-98.90905,-277.62686,-0.004788153,0.010597885,0.010848999,0.0,0.0,0.0
856.876,417.52844,8487684,1.0500001,0.12765957,-87.648315,-231.81824,-0.004788153,0.010597885,0.010848999,0.0,0.0,0.0
855.8388,411.99756,8487701,1.0375,0.12765957,-94.68266,-244.94507,-0.004788153,0.010597885,0.010848999,0.0,0.0,0.0
854.79395,408.03467,8487717,1.0500001,0.12765957,-90.03395,-259.70032,-0.004788153,0.010597885,0.010848999,0.0,0.0,0.0
853.7405,404.28943,8487734,1.0500001,0.12765957,-89.69639,-223.10861,-0.004788153,0.010597885,0.010848999,0.0,0.0,0.0
853.18695,402.34485,8487751,1.0875,0.12765957,-60.701645,-138.44637,-0.004788153,0.010597885,0.010848999,0.0,0.0,0.0
852.70026,400.49316,8487767,1.1,0.12765957,-33.659576,-67.769936,-0.004788153,0.010597885,0.010848999,0.0,0.0,0.0
852.20044,399.70276,8487784,1.1125001,0.12765957,-21.791418,-23.15048,-0.004788153,0.010597885,0.010848999,0.0,0.0,0.0
851.0665,399.70276,8487801,1.1375,0.12765957,-32.78524,23.994728,-0.004788153,0.010597885,0.010848999,0.0,0.0,0.0
850.52875,399.70276,8487818,1.15,0.12765957,-39.507393,53.026665,0.012169477,0.008478284,0.040678978,0.0,0.0,0.0
849.99475,399.70276,8487834,1.125,0.12765957,-38.702705,50.213203,0.012169477,0.008478284,0.040678978,0.0,0.0,0.0
849.2014,401.01917,8487851,1.0875,0.12765957,-47.733234,59.102943,0.012169477,0.008478284,0.040678978,0.0,0.0,0.0
849.2014,404.25146,8487868,1.025,0.12765957,-26.370695,136.46793,0.012169477,0.008478284,0.040678978,0.0,0.0,0.0
849.2014,409.74744,8487884,0.96250004,0.10638297,-1.9460516,291.87357,0.012169477,0.008478284,0.040678978,0.0,0.0,0.0
849.9857,419.6183,8487901,0.9375,0.08510638,39.12205,533.6093,0.012169477,0.008478284,0.040678978,0.0,0.0,0.0
851.44366,431.20728,8487918,0.925,0.08510638,87.604126,775.62573,0.012169477,0.008478284,0.040678978,0.0,0.0,0.0
853.1292,440.95813,8487935,0.9125,0.10638297,124.15205,847.49445,0.012169477,0.008478284,0.040678978,0.0,0.0,0.0
855.1818,452.03064,8487951,0.8875,0.12765957,152.38446,801.3913,0.012169477,0.008478284,0.040678978,0.0,0.0,0.0
858.29346,464.0127,8487968,0.9125,0.09574468,184.26578,728.3558,0.012169477,0.008478284,0.040678978,0.0,0.0,0.0
861.41156,474.08276,8487985,0.8875,0.09574468,209.70047,672.49866,0.012169477,0.008478284,0.040678978,0.0,0.0,0.0
864.52985,485.29565,8488001,0.8875,0.09574468,223.56552,670.2635,0.012169477,0.008478284,0.040678978,0.0,0.0,0.0
866.9904,493.1548,8488018,0.875,0.11702127,202.59285,572.7927,0.012169477,0.008478284,0.040678978,0.0,-2.9360124E-6,0.0
869.6062,498.16943,8488035,0.90000004,0.12765957,165.34506,383.20944,0.012169477,0.008478284,0.040678978,0.0,-2.9360124E-6,0.0
873.08356,503.06677,8488052,0.90000004,0.12765957,156.5661,201.21953,0.012169477,0.008478284,0.040678978,0.0,-2.9360124E-6,0.0
877.7625,509.07214,8488068,0.90000004,0.10638297,228.5993,173.49474,0.012169477,0.008478284,0.040678978,0.0,0.0,0.0
883.11285,514.69507,8488085,0.9125,0.09574468,325.07657,262.15015,0.012169477,0.008478284,0.040678978,0.0,0.0,0.0
889.49133,520.1515,8488102,0.90000004,0.09574468,412.94608,337.56607,0.012169477,0.008478284,0.040678978,0.0,0.0,0.0
896.1865,524.38965,8488118,0.9125,0.08510638,448.8875,315.72516,0.012169477,0.008478284,0.040678978,0.0,0.0,0.0
902.52167,526.5626,8488135,0.925,0.08510638,432.2376,177.51239,0.012169477,0.008478284,0.040678978,-1.1744049E-5,0.0,0.0
908.4134,526.7588,8488152,0.95,0.11702127,403.40616,30.379244,0.012169477,0.008478284,0.040678978,-1.1744049E-5,0.0,0.0
914.7896,525.96936,8488169,0.9875,0.11702127,376.6131,-100.700584,0.012169477,0.008478284,0.040678978,-1.1744049E-5,0.0,0.0
921.91595,522.13477,8488185,0.9875,0.12765957,395.9155,-238.6438,0.012169477,0.008478284,0.040678978,-1.1744049E-5,0.0,0.0
931.2111,514.28735,8488202,1.0125,0.10638297,475.3118,-428.0276,0.012169477,0.008478284,0.040678978,-3.355443E-6,0.0,0.0
941.00244,500.66687,8488219,1.0,0.08510638,600.44666,-745.71234,0.012169477,0.008478284,0.040678978,0.0,0.0,0.0
949.3424,484.42993,8488235,1.0125,0.10638297,636.91864,-1095.0253,0.012169477,0.008478284,0.040678978,0.0,0.0,0.0
960.7477,460.15967,8488252,1.0125,0.12765957,689.9404,-1518.4147,0.012169477,0.008478284,0.040678978,0.0,0.0,0.0
967.7634,439.60754,8488269,1.0,0.09574468,583.92365,-1625.0797,0.012169477,0.008478284,0.040678978,0.0,0.0,0.0
974.4696,414.2185,8488286,0.9875,0.12765957,408.91263,-1609.8851,0.012169477,0.008478284,0.040678978,0.0,0.0,0.0
978.4075,388.61267,8488302,0.975,0.09574468,243.52176,-1597.753,0.012169477,0.008478284,0.040678978,0.0,0.0,0.0
980.65857,362.80774,8488319,1.0,0.12765957,75.68536,-1613.2168,0.012169477,0.008478284,0.040678978,0.0,0.0,0.0
980.3456,341.823,8488336,0.9875,0.11702127,-42.078094,-1473.8447,-0.0062644184,-0.0092173815,0.08854294,0.0,0.0,0.0
977.8484,319.96826,8488352,1.0,0.09574468,-203.05864,-1311.6194,-0.0062644184,-0.0092173815,0.08854294,0.0,0.0,0.0
975.25,298.89124,8488369,0.96250004,0.12765957,-287.15836,-1182.6548,-0.0062644184,-0.0092173815,0.08854294,0.0,0.0,0.0
972.1172,281.2699,8488386,0.96250004,0.09574468,-301.90985,-1079.0089,-0.0062644184,-0.0092173815,0.08854294,0.0,0.0,0.0
968.4354,263.7423,8488403,0.96250004,0.11702127,-284.9517,-1026.9222,-0.0062644184,-0.0092173815,0.08854294,0.0,0.0,0.0
962.5497,244.1709,8488419,0.96250004,0.12765957,-322.31647,-1023.958,-0.0062644184,-0.0092173815,0.08854294,0.0,0.0,0.0
957.29224,227.20312,8488436,0.95,0.08510638,-362.7028,-1013.9274,-0.0062644184,-0.0092173815,0.08854294,0.0,0.0,0.0
951.5236,215.18701,8488453,0.96250004,0.08510638,-395.81235,-871.2679,-0.0062644184,-0.0092173815,0.08854294,0.0,0.0,0.0
947.7681,210.05896,8488469,0.96250004,0.10638297,-344.6304,-526.8718,-0.0062644184,-0.0092173815,0.08854294,0.0,0.0,0.0
942.9521,203.4657,8488486,0.95,0.12765957,-269.8502,-184.28993,-0.0062644184,-0.0092173815,0.08854294,0.0,0.0,0.0
937.9309,198.24219,8488503,0.95,0.12765957,-270.51,-93.58519,-0.0062644184,-0.0092173815,0.08854294,0.0,0.0,0.0
933.1014,194.39392,8488519,0.975,0.12765957,-276.8958,-97.02871,-0.0062644184,-0.0092173815,0.08854294,0.0,0.0,0.0
929.7724,192.14685,8488536,0.9875,0.12765957,-247.68256,-105.69827,-0.0062644184,-0.0092173815,0.08854294,0.0,0.0,0.0
926.9732,190.90454,8488553,1.025,0.12765957,-168.20673,-19.686867,-0.0062644184,-0.0092173815,0.08854294,0.0,0.0,0.0
924.9086,190.90454,8488570,1.0625,0.12765957,-96.87337,49.413048,-0.0062644184,-0.0092173815,0.08854294,0.0,0.0,0.0
922.7068,192.6294,8488586,1.075,0.12765957,-69.90366,105.95695,-0.0062644184,-0.0092173815,0.08854294,0.0,0.0,0.0
920.5041,196.54504,8488603,0.9875,0.11702127,-86.73378,228.84851,-0.0062644184,-0.0092173815,0.08854294,0.0,0.0,0.0
918.52747,205.92749,8488620,0.96250004,0.09574468,-114.03525,472.2609,-0.0062644184,-0.0092173815,0.08854294,0.0,0.0,0.0
917.55554,225.30713,8488636,0.9125,0.12765957,-97.69552,969.7493,-0.0062644184,-0.0092173815,0.08854294,0.0,0.0,0.0
917.67914,246.3313,8488653,0.925,0.11702127,-30.474964,1430.4106,-0.0062644184,-0.0092173815,0.08854294,0.0,0.0,0.0
917.67914,269.64978,8488670,0.90000004,0.09574468,31.056347,1739.3141,-0.0062644184,-0.0092173815,0.08854294,0.0,0.0,0.0
918.91205,293.55652,8488687,0.875,0.12765957,91.945274,1736.8157,-0.0062644184,-0.0092173815,0.08854294,0.0,0.0,0.0
920.7261,318.9585,8488703,0.875,0.09574468,124.87182,1681.6401,-0.0062644184,-0.0092173815,0.08854294,0.0,0.0,0.0
922.1835,339.34705,8488720,0.85,0.12765957,139.58565,1469.6848,-0.0062644184,-0.0092173815,0.08854294,0.0,0.0,0.0
925.3251,363.07996,8488737,0.8875,0.09574468,182.05661,1315.8378,-0.0062644184,-0.0092173815,0.08854294,0.0,0.0,0.0
927.71155,383.62476,8488753,0.875,0.08510638,185.1065,1216.5907,-0.0062644184,-0.0092173815,0.08854294,0.0,0.0,0.0
930.8888,404.05872,8488770,0.8875,0.12765957,194.07416,1153.9042,-0.0062644184,-0.0092173815,0.08854294,0.0,0.0,0.0
934.0857,426.62036,8488787,0.875,0.08510638,213.98448,1237.4207,-0.0062644184,-0.0092173815,0.08854294,0.0,0.0,0.0
937.2058,442.50745,8488804,0.875,0.10638297,208.76505,1137.1404,-0.0062644184,-0.0092173815,0.08854294,0.0,0.0,0.0
939.78094,458.86072,8488820,0.8875,0.09574468,183.94934,985.3323,-0.0062644184,-0.0092173815,0.08854294,0.0,0.0,0.0
943.52765,475.76416,8488837,0.875,0.08510638,188.8754,890.0132,-0.0062644184,-0.0092173815,0.08854294,0.0,0.0,0.0
945.4331,489.53418,8488854,0.8625,0.08510638,164.13602,777.5312,-0.0062644184,-0.0092173815,0.08854294,0.0,0.0,0.0
946.48944,496.7975,8488870,0.875,0.10638297,104.630104,595.3517,0.010988465,-0.007373929,0.030834198,0.0,0.0,0.0
948.2632,505.21436,8488887,0.8625,0.10638297,66.58686,407.7713,0.010988465,-0.007373929,0.030834198,0.0,0.0,0.0
949.4087,512.9331,8488904,0.8875,0.09574468,34.070873,272.1998,0.010988465,-0.007373929,0.030834198,0.0,0.0,0.0
949.6687,517.0408,8488921,0.8875,0.09574468,27.594759,217.72543,0.010988465,-0.007373929,0.030834198,0.0,0.0,0.0
949.9657,520.70667,8488937,0.90000004,0.09574468,0.7150901,164.60825,0.010988465,-0.007373929,0.030834198,0.0,0.0,0.0
950.1685,522.90186,8488954,0.9375,0.09574468,-21.46174,63.793224,0.010988465,-0.007373929,0.030834198,0.0,0.0,0.0
950.1685,523.2047,8488971,0.95,0.10638297,-18.282143,-39.58143,0.010988465,-0.007373929,0.030834198,0.0,0.0,0.0
950.1685,523.2047,8488987,0.96250004,0.10638297,-9.154599,-71.301765,0.010988465,-0.007373929,0.030834198,0.0,0.0,0.0
951.146,523.2047,8489004,1.0125,0.10638297,17.706629,-90.8381,0.010988465,-0.007373929,0.030834198,0.0,0.0,0.0
952.19684,523.2047,8489021,1.025,0.10638297,55.672466,-69.02465,0.010988465,-0.007373929,0.030834198,0.0,0.0,0.0
952.73474,521.3086,8489038,1.0,0.12765957,70.509674,-77.04069,0.010988465,-0.007373929,0.030834198,0.0,0.0,0.0
957.90894,513.188,8489054,0.9875,0.11702127,174.9606,-276.98944,0.010988465,-0.007373929,0.030834198,0.0,0.0,0.0
965.9133,498.771,8489070,1.0125,0.09574468,362.0329,-642.98334,0.010988465,-0.007373929,0.030834198,0.0,0.0,0.0
976.1914,476.26636,8489088,1.0125,0.11702127,657.57635,-1304.8224,0.010988465,-0.007373929,0.030834198,0.0,0.0,0.0
982.35254,463.90955,8489104,1.0125,0.12765957,705.82117,-1444.362,0.010988465,-0.007373929,0.030834198,0.0,0.0,0.0
987.3163,454.09387,8489121,1.0,0.08510638,489.69406,-1057.6929,0.010988465,-0.007373929,0.030834198,0.0,0.0,0.0
992.9724,443.5631,8489138,1.0,0.08510638,280.3867,-583.9034,0.010988465,-0.007373929,0.030834198,0.0,0.0,0.0
998.3412,434.9082,8489155,1.025,0.08510638,203.56226,-286.83987,0.010988465,-0.007373929,0.030834198,0.0,0.0,0.0
1003.3805,427.4536,8489171,1.0375,0.10638297,271.177,-361.72714,0.010988465,-0.007373929,0.030834198,0.0,0.0,0.0
1007.67224,421.66333,8489188,1.0375,0.11702127,255.4895,-296.39005,0.010988465,-0.007373929,0.030834198,0.0,0.0,0.0
1011.8862,417.7058,8489205,1.0500001,0.12765957,233.86652,-213.34273,0.010988465,-0.007373929,0.030834198,0.0,0.0,0.0
1015.14075,415.69983,8489221,1.0625,0.12765957,200.67455,-97.94151,0.010988465,-0.007373929,0.030834198,0.0,0.0,0.0
1017.28455,414.80737,8489238,1.1125001,0.12765957,137.09746,4.7806463,0.010988465,-0.007373929,0.030834198,0.0,0.0,0.0
1019.3154,414.80737,8489255,1.125,0.12765957,91.31431,80.603004,0.010988465,-0.007373929,0.030834198,0.0,0.0,0.0
1021.3982,414.80737,8489272,1.1125001,0.12765957,76.79678,95.47038,0.010988465,-0.007373929,0.030834198,0.0,0.0,0.0
1022.84656,416.76355,8489288,1.1125001,0.11702127,68.20389,123.80644,0.010988465,-0.007373929,0.030834198,0.0,0.0,0.0
1023.9386,418.8839,8489305,1.075,0.11702127,64.98416,155.6831,0.010988465,-0.007373929,0.030834198,0.0,0.0,0.0
1025.8258,422.5619,8489322,1.0500001,0.11702127,72.55804,226.6992,0.010988465,-0.007373929,0.030834198,0.0,0.0,0.0
1027.4136,426.90967,8489338,1.025,0.11702127,90.30407,296.54495,0.010988465,-0.007373929,0.030834198,0.0,0.0,0.0
1028.4617,432.4989,8489355,1.0125,0.11702127,88.055435,358.1152,0.010988465,-0.007373929,0.030834198,0.0,0.0,0.0
1029.1428,437.72766,8489372,0.9875,0.11702127,55.065624,382.28513,0.010988465,-0.007373929,0.030834198,0.0,0.0,0.0
1030.0406,443.58496,8489389,0.95,0.12765957,23.874996,391.6063,0.010988465,-0.007373929,0.030834198,0.0,0.0,0.0
1031.069,449.82642,8489405,0.925,0.12765957,32.328777,388.54108,-0.031209227,-0.0058991313,-0.023331642,0.0,0.0,0.0
1032.5568,459.74365,8489422,0.9125,0.12765957,58.160404,470.03906,-0.031209227,-0.0058991313,-0.023331642,0.0,0.0,0.0
1033.6674,470.1261,8489439,0.90000004,0.09574468,84.07434,632.71265,-0.031209227,-0.0058991313,-0.023331642,0.0,0.0,0.0
1034.7017,480.20703,8489455,0.8875,0.08510638,83.560814,733.06934,-0.031209227,-0.0058991313,-0.023331642,0.0,0.0,0.0
1036.696,488.75098,8489472,0.875,0.10638297,95.66751,694.3467,-0.031209227,-0.0058991313,-0.023331642,0.0,0.0,0.0
1039.6716,495.73755,8489489,0.8625,0.12765957,146.49728,519.3733,-0.031209227,-0.0058991313,-0.023331642,0.0,0.0,0.0
1043.0366,501.69995,8489505,0.875,0.10638297,211.31021,348.77505,-0.031209227,-0.0058991313,-0.023331642,0.0,0.0,0.0
1046.8069,509.2152,8489522,0.8625,0.10638297,259.7359,315.89142,-0.031209227,-0.0058991313,-0.023331642,0.0,0.0,0.0
1051.866,515.6316,8489539,0.8875,0.09574468,294.93427,343.36673,-0.031209227,-0.0058991313,-0.023331642,0.0,0.0,0.0
1056.5374,520.4535,8489556,0.8875,0.08510638,312.1728,324.90164,-0.031209227,-0.0058991313,-0.023331642,0.0,0.0,0.0
1061.6882,524.3108,8489572,0.90000004,0.08510638,328.06726,235.17006,-0.031209227,-0.0058991313,-0.023331642,0.0,0.0,0.0
1065.6609,526.0586,8489589,0.925,0.08510638,297.9191,111.20925,-0.031209227,-0.0058991313,-0.023331642,0.0,0.0,0.0
1071.827,527.64734,8489606,0.975,0.11702127,313.00842,39.53529,-0.031209227,-0.0058991313,-0.023331642,0.0,0.0,0.0
1076.7358,527.64734,8489622,1.0125,0.11702127,313.9078,-36.696556,-0.031209227,-0.0058991313,-0.023331642,0.0,0.0,0.0
1082.0118,525.91064,8489639,1.0375,0.12765957,305.8529,-113.75088,-0.031209227,-0.0058991313,-0.023331642,0.0,0.0,0.0
1086.7749,522.1824,8489656,1.0,0.12765957,310.0054,-228.01944,-0.031209227,-0.0058991313,-0.023331642,0.0,0.0,0.0
1090.0854,517.9404,8489673,0.975,0.12765957,243.11707,-305.41263,-0.031209227,-0.0058991313,-0.023331642,0.0,0.0,0.0
1092.4629,513.71436,8489689,0.9375,0.12765957,173.76645,-356.17264,-0.031209227,-0.0058991313,-0.023331642,0.0,0.0,0.0
1096.7151,508.19678,8489706,0.96250004,0.10638297,161.2788,-387.38635,-0.031209227,-0.0058991313,-0.023331642,0.0,0.0,0.0
1101.5801,499.28467,8489723,0.95,0.08510638,213.44792,-469.61044,-0.031209227,-0.0058991313,-0.023331642,0.0,0.0,0.0
1105.2996,491.38098,8489739,0.9875,0.08510638,290.4269,-575.8444,-0.031209227,-0.0058991313,-0.023331642,0.0,0.0,0.0
1107.6323,485.4032,8489756,1.0125,0.10638297,230.7473,-527.1944,-0.031209227,-0.0058991313,-0.023331642,0.0,0.0,0.0
1108.9207,481.2539,8489773,1.0375,0.10638297,103.05616,-362.29083,-0.031209227,-0.0058991313,-0.023331642,0.0,0.0,0.0
1109.6166,479.05127,8489790,1.0375,0.10638297,-0.3671111,-137.98138,-0.031209227,-0.0058991313,-0.023331642,0.0,0.0,0.0
1109.2328,477.8911,8489806,0.95,0.08510638,-68.881874,22.478455,-0.031209227,-0.0058991313,-0.023331642,0.0,0.0,0.0
1109.1168,477.8911,8489819,0.3125,0.08510638,-87.69682,79.19548,-0.031209227,-0.0058991313,-0.023331642,0.0,0.0,0.0
1109.1168,477.8911,8489823,0.3125,0.08510638,-87.69682,79.19548,-0.031209227,-0.0058991313,-0.023331642,0.0,0.0,0.0
