x,y,timestamp,pressure,fingerarea,velocityx,velocityy,accelx,accely,accelz,gyrox,gyroy,gyroz
120.43866,373.93628,76747020,1.025,0.08510638,0.0,0.0,0.007372692,2.3457408E-4,0.01313591,0.0,0.0,0.0
120.43866,373.93628,76747051,1.1625,0.10638297,-0.015275378,-0.04771799,0.007372692,2.3457408E-4,0.01313591,0.0,0.0,0.0
120.43866,373.93628,76747068,1.1625,0.10638297,0.0033135859,0.0118357465,0.007372692,2.3457408E-4,0.01313591,0.0,0.0,0.0
120.43866,373.93628,76747084,1.0125,0.10638297,0.0023092597,0.0060327984,0.007372692,2.3457408E-4,0.01313591,0.0,0.0,0.0
115.26956,408.32812,76747101,0.9125,0.09574468,-197.38931,1279.8898,0.007372692,2.3457408E-4,0.01313591,0.0,0.0,0.0
113.84508,433.18176,76747118,0.8875,0.08510638,-221.44205,1890.9844,0.007372692,2.3457408E-4,0.01313591,0.0,0.0,0.0
111.513336,457.70618,76747135,0.83750004,0.12765957,-214.9723,2252.183,0.007372692,2.3457408E-4,0.01313591,0.0,0.0,0.0
109.857376,481.85144,76747151,0.825,0.07446808,-146.96097,2073.833,0.007372692,2.3457408E-4,0.01313591,0.0,0.0,0.0
107.816666,495.44495,76747168,0.8,0.10638297,-90.90128,1330.6727,0.007372692,2.3457408E-4,0.01313591,0.0,0.0,0.0
105.198074,516.43787,76747185,0.725,0.10638297,-156.29074,977.1436,0.007372692,2.3457408E-4,0.01313591,0.0,0.0,0.0
104.44386,526.0314,76747201,0.4,0.09574468,-129.45145,789.5511,0.007372692,2.3457408E-4,0.01313591,0.0,0.0,0.0
104.44386,526.7588,76747205,0.275,0.09574468,-112.57071,698.2811,0.007372692,2.3457408E-4,0.01313591,0.0,0.0,0.0
104.44386,526.7588,76747212,0.275,0.09574468,-112.57071,698.2811,0.007372692,2.3457408E-4,0.01313591,0.0,0.0,0.0
155.42726,424.58093,76748500,0.9875,0.09574468,0.0,0.0,0.0069748163,0.0033201128,0.052804947,0.0,0.0,0.0
155.42726,424.58093,76748522,1.0625,0.09574468,-0.028498488,-0.07646962,0.0069748163,0.0033201128,0.052804947,0.0,0.0,0.0
155.42726,424.58093,76748538,1.1125001,0.11702127,-3.8112252E-4,-0.0027573986,0.0069748163,0.0033201128,0.052804947,0.0,0.0,0.0
155.42726,424.58093,76748555,1.075,0.11702127,-0.0015495332,-0.0026169964,0.0069748163,0.0033201128,0.052804947,0.0,0.0,0.0
160.11401,410.41797,76748572,1.0,0.12765957,140.72986,-425.2972,0.0069748163,0.0033201128,0.052804947,0.0,0.0,0.0
165.45772,399.64282,76748588,0.9875,0.08510638,361.3443,-913.9031,0.0069748163,0.0033201128,0.052804947,0.0,0.0,0.0
170.20287,391.208,76748605,1.0125,0.08510638,440.32773,-956.37085,0.0069748163,0.0033201128,0.052804947,0.0,0.0,0.0
174.52473,386.72742,76748622,1.0625,0.08510638,406.56778,-692.0697,0.0069748163,0.0033201128,0.052804947,0.0,0.0,0.0
176.81482,385.13635,76748639,1.1125001,0.10638297,254.67294,-192.33652,0.0069748163,0.0033201128,0.052804947,0.0,0.0,0.0
179.55759,385.48682,76748655,1.1125001,0.10638297,114.19211,194.65018,0.0069748163,0.0033201128,0.052804947,0.0,0.0,0.0
180.81113,387.61218,76748672,1.0,0.10638297,75.99819,242.2215,0.0069748163,0.0033201128,0.052804947,0.0,0.0,0.0
184.65765,395.67224,76748689,0.925,0.12765957,105.851135,408.48596,0.0069748163,0.0033201128,0.052804947,0.0,0.0,0.0
188.77203,411.3722,76748705,0.9125,0.08510638,222.87889,849.7587,0.0069748163,0.0033201128,0.052804947,0.0,0.0,0.0
191.38208,423.5735,76748722,0.90000004,0.07446808,246.28793,1140.6163,0.0069748163,0.0033201128,0.052804947,0.0,0.0,0.0
194.15128,430.98682,76748739,0.9125,0.08510638,210.53406,984.4755,0.0069748163,0.0033201128,0.052804947,0.0,0.0,0.0
196.22998,434.19104,76748755,0.95,0.09574468,130.26244,466.76105,0.0069748163,0.0033201128,0.052804947,0.0,0.0,0.0
199.70627,436.9281,76748772,1.025,0.11702127,111.594574,-21.895212,0.0069748163,0.0033201128,0.052804947,0.0,0.0,0.0
207.3115,434.39844,76748789,1.025,0.08510638,282.46216,-246.0205,0.0069748163,0.0033201128,0.052804947,0.0,0.0,0.0
217.72385,425.16223,76748806,0.9875,0.09574468,567.68616,-510.0539,0.0069748163,0.0033201128,0.052804947,0.0,0.0,0.0
228.60638,414.05786,76748822,0.975,0.10638297,782.6905,-806.443,0.0069748163,0.0033201128,0.052804947,0.0,0.0,0.0
237.28635,402.96497,76748839,0.9875,0.10638297,788.08685,-976.3561,0.0069748163,0.0033201128,0.052804947,0.0,0.0,0.0
243.17773,391.82214,76748856,0.9875,0.08510638,569.2021,-939.303,-0.010420144,0.01865609,-0.037755966,0.0,0.0,0.0
249.76096,377.1167,76748872,0.9875,0.09574468,353.2085,-878.7192,-0.010420144,0.01865609,-0.037755966,0.0,0.0,0.0
253.52728,366.73364,76748889,1.0,0.11702127,195.9402,-802.6221,-0.010420144,0.01865609,-0.037755966,0.0,0.0,0.0
255.90207,360.59534,76748906,0.975,0.12765957,119.15933,-607.55426,-0.010420144,0.01865609,-0.037755966,0.0,0.0,0.0
257.82962,357.55603,76748923,1.0,0.12765957,46.591633,-233.68454,-0.010420144,0.01865609,-0.037755966,0.0,0.0,0.0
260.07312,356.16614,76748939,1.0875,0.12765957,12.133793,99.48288,-0.010420144,0.01865609,-0.037755966,0.0,0.0,0.0
261.2687,356.8341,76748956,1.125,0.11702127,30.355919,230.40074,-0.010420144,0.01865609,-0.037755966,0.0,0.0,0.0
262.8048,363.38538,76748973,1.0625,0.09574468,67.79477,339.2389,-0.010420144,0.01865609,-0.037755966,0.0,0.0,0.0
260.5989,380.0382,76748989,0.975,0.09574468,-11.10127,752.6547,-0.010420144,0.01865609,-0.037755966,0.0,0.0,0.0
254.91824,404.04858,76749006,0.95,0.12765957,-238.8948,1417.0452,-0.010420144,0.01865609,-0.037755966,0.0,0.0,0.0
250.71759,424.48608,76749023,0.96250004,0.08510638,-410.30255,1804.672,-0.010420144,0.01865609,-0.037755966,0.0,0.0,0.0
247.72464,440.02356,76749040,0.9375,0.10638297,-402.21188,1602.2463,-0.010420144,0.01865609,-0.037755966,0.0,0.0,0.0
245.63327,462.75928,76749056,0.8875,0.09574468,-249.45184,1292.7888,-0.010420144,0.01865609,-0.037755966,0.0,0.0,0.0
245.2099,486.67993,76749073,0.83750004,0.06382979,-38.599953,1249.1837,-0.010420144,0.01865609,-0.037755966,0.0,0.0,0.0
243.80179,505.22375,76749090,0.7875,0.10638297,32.449165,1266.2275,-0.010420144,0.01865609,-0.037755966,0.0,0.0,0.0
241.41528,536.3329,76749106,0.71250004,0.06382979,-51.53223,1693.287,-0.010420144,0.01865609,-0.037755966,0.0,0.0,0.0
240.3996,545.41736,76749119,0.25,0.12765957,-85.10305,1636.0944,-0.010420144,0.01865609,-0.037755966,0.0,0.0,0.0
240.3996,545.41736,76749126,0.25,0.12765957,-85.10305,1636.0944,-0.010420144,0.01865609,-0.037755966,0.0,0.0,0.0
325.37195,437.0199,76749939,1.0,0.08510638,0.0,0.0,-0.0066688955,-0.032860108,-0.017764091,0.0,0.0,0.0
325.37195,437.0199,76749959,1.0375,0.08510638,-0.13724332,-0.19169524,-0.0066688955,-0.032860108,-0.017764091,0.0,0.0,0.0
325.37195,437.0199,76749975,1.0375,0.08510638,-4.8391748E-4,-0.0013411071,-0.0066688955,-0.032860108,-0.017764091,0.0,0.0,0.0
325.37195,437.0199,76749992,0.975,0.08510638,0.004125596,0.004152448,-0.0066688955,-0.032860108,-0.017764091,0.0,0.0,0.0
325.37195,437.0199,76750009,0.9125,0.09574468,-0.0289034,-0.036405258,-0.0066688955,-0.032860108,-0.017764091,0.0,0.0,0.0
344.75015,451.1676,76750025,0.90000004,0.10638297,605.59216,450.32883,-0.0066688955,-0.032860108,-0.017764091,0.0,0.0,0.0
355.08557,456.22192,76750042,0.9125,0.12765957,1082.7356,718.7822,-0.0066688955,-0.032860108,-0.017764091,0.0,0.0,0.0
366.33084,457.45557,76750059,0.925,0.12765957,1088.6108,543.3723,-0.0066688955,-0.032860108,-0.017764091,0.0,0.0,0.0
377.20425,453.98193,76750076,0.96250004,0.12765957,942.52466,88.50402,-0.0066688955,-0.032860108,-0.017764091,0.0,0.0,0.0
391.24652,442.88757,76750092,0.96250004,0.08510638,714.2334,-626.83057,-0.0066688955,-0.032860108,-0.017764091,0.0,0.0,0.0
403.0224,425.27722,76750109,0.95,0.12765957,709.7354,-1198.967,-0.0066688955,-0.032860108,-0.017764091,0.0,0.0,0.0
410.78937,406.16174,76750126,0.95,0.10638297,677.30255,-1443.5956,-0.0066688955,-0.032860108,-0.017764091,0.0,0.0,0.0
411.493,396.60107,76750142,0.9875,0.08510638,280.47827,-1308.397,-0.0066688955,-0.032860108,-0.017764091,0.0,0.0,0.0
408.86798,388.79968,76750159,0.975,0.08510638,-156.76784,-831.56665,-0.0066688955,-0.032860108,-0.017764091,0.0,0.0,0.0
402.14978,384.31543,76750176,0.975,0.08510638,-575.5991,-175.69125,-0.0066688955,-0.032860108,-0.017764091,0.0,0.0,0.0
388.95547,381.0443,76750193,0.9875,0.08510638,-875.111,24.971308,-0.0066688955,-0.032860108,-0.017764091,0.0,0.0,0.0
374.64035,383.00293,76750209,0.9875,0.09574468,-1116.7921,171.93205,-0.0066688955,-0.032860108,-0.017764091,0.0,0.0,0.0
359.00015,389.64526,76750226,1.0,0.09574468,-1213.3579,392.9918,-0.0066688955,-0.032860108,-0.017764091,0.0,0.0,0.0
346.6095,396.1527,76750243,1.025,0.10638297,-1096.6927,616.3658,-0.0066688955,-0.032860108,-0.017764091,0.0,0.0,0.0
337.93655,404.4563,76750259,1.025,0.12765957,-748.99396,730.6738,-0.0066688955,-0.032860108,-0.017764091,0.0,0.0,0.0
331.18677,416.7694,76750276,1.025,0.08510638,-397.22556,732.9213,-0.0066688955,-0.032860108,-0.017764091,0.0,0.0,0.0
327.87866,429.87183,76750293,1.0125,0.08510638,-131.63202,837.618,-0.0066688955,-0.032860108,-0.017764091,0.0,0.0,0.0
327.87112,440.89038,76750310,0.96250004,0.10638297,78.48631,869.4398,-0.0066688955,-0.032860108,-0.017764091,0.0,0.0,0.0
330.61765,451.22693,76750326,0.9375,0.10638297,240.81836,794.9564,-0.0066688955,-0.032860108,-0.017764091,0.0,0.0,0.0
335.47092,462.29382,76750343,0.95,0.09574468,408.92758,675.17126,-0.0066688955,-0.032860108,-0.017764091,0.0,0.0,0.0
340.447,469.5569,76750360,0.9375,0.08510638,484.84207,488.497,-0.0066688955,-0.032860108,-0.017764091,0.0,0.0,0.0
348.45258,479.65503,76750376,0.925,0.08510638,539.8821,492.66675,-0.0066688955,-0.032860108,-0.017764091,0.0,0.0,0.0
358.19678,488.8756,76750393,0.90000004,0.09574468,609.15607,508.22528,-0.0066688955,-0.032860108,-0.017764091,0.0,0.0,0.0
373.5246,497.61304,76750410,0.8625,0.10638297,835.4248,530.48364,-0.0066688955,-0.032860108,-0.017764091,0.0,0.0,0.0
389.37778,501.5033,76750426,0.8125,0.09574468,1099.0239,420.2412,-0.0066688955,-0.032860108,-0.017764091,0.0,0.0,0.0
402.4622,503.6577,76750443,0.6125,0.12765957,1125.5917,135.7259,-0.0066688955,-0.032860108,-0.017764091,0.0,0.0,0.0
403.34656,503.6577,76750446,0.3,0.12765957,1076.6562,101.98384,0.018664882,0.005711913,0.001789093,0.0,0.0,0.0
403.34656,503.6577,76750453,0.3,0.12765957,1076.6562,101.98384,0.018664882,0.005711913,0.001789093,0.0,0.0,0.0
414.343,270.86987,76750953,0.8,0.08510638,0.0,0.0,0.018664882,0.005711913,0.001789093,0.0,0.0,0.0
414.343,270.86987,76750978,0.9875,0.08510638,-0.023474718,-0.01632109,0.006931901,-0.011430472,-0.04656887,0.0,0.0,0.0
414.343,270.86987,76750995,1.0,0.10638297,0.018751485,0.011847378,0.006931901,-0.011430472,-0.04656887,0.0,0.0,0.0
414.343,270.86987,76751011,0.9125,0.10638297,-0.0020848205,-0.0017089806,0.006931901,-0.011430472,-0.04656887,0.0,0.0,0.0
405.1384,297.30066,76751028,0.725,0.10638297,-309.19788,887.8354,0.006931901,-0.011430472,-0.04656887,0.0,0.0,0.0
402.8467,307.29846,76751041,0.2,0.08510638,-437.65884,1370.4172,0.006931901,-0.011430472,-0.04656887,0.0,0.0,0.0
402.8467,307.29846,76751049,0.2,0.08510638,-437.65884,1370.4172,0.006931901,-0.011430472,-0.04656887,0.0,0.0,0.0
465.32635,505.4347,76751772,0.71250004,0.09574468,0.0,0.0,0.0055455267,-0.025144376,-0.0052547455,0.0,0.0,0.0
465.32635,505.4347,76751797,0.83750004,0.12765957,0.0049959077,0.00394377,0.0055455267,-0.025144376,-0.0052547455,0.0,0.0,0.0
465.32635,505.4347,76751813,0.90000004,0.12765957,0.019890802,0.018679613,0.0055455267,-0.025144376,-0.0052547455,0.0,0.0,0.0
465.32635,505.4347,76751830,0.9375,0.12765957,-0.004645448,-0.0031588601,0.0055455267,-0.025144376,-0.0052547455,0.0,0.0,0.0
465.32635,505.4347,76751847,0.9875,0.12765957,0.011322031,0.0126611125,0.0055455267,-0.025144376,-0.0052547455,0.0,0.0,0.0
465.32635,505.4347,76751864,1.0125,0.12765957,1.5846416E-4,-0.0027710528,0.0055455267,-0.025144376,-0.0052547455,0.0,0.0,0.0
465.32635,505.4347,76751880,1.0375,0.12765957,0.0053756475,0.0057992223,0.0055455267,-0.025144376,-0.0052547455,0.0,0.0,0.0
465.32635,505.4347,76751897,1.0500001,0.12765957,0.020114463,0.021845184,0.0055455267,-0.025144376,-0.0052547455,0.0,0.0,0.0
465.32635,505.4347,76751912,1.0500001,0.10638297,0.031223381,0.033893667,0.0055455267,-0.025144376,-0.0052547455,0.0,0.0,0.0
465.32635,505.4347,76751930,1.025,0.10638297,-0.015941462,-0.018380217,0.0055455267,-0.025144376,-0.0052547455,0.0,0.0,0.0
465.32635,505.4347,76751947,1.0,0.08510638,-0.011546302,-0.012447786,0.0055455267,-0.025144376,-0.0052547455,0.0,0.0,0.0
465.32635,505.4347,76751964,0.975,0.09574468,0.062430803,0.06684287,0.0055455267,-0.025144376,-0.0052547455,0.0,0.0,0.0
474.8059,483.26855,76751981,0.975,0.09574468,263.6273,-609.0825,0.0055455267,-0.025144376,-0.0052547455,0.0,0.0,0.0
478.43817,473.9933,76751997,0.9375,0.12765957,434.08664,-1033.5979,0.0055455267,-0.025144376,-0.0052547455,0.0,0.0,0.0
481.5528,463.7401,76752014,0.925,0.12765957,392.0735,-1039.4171,0.0055455267,-0.025144376,-0.0052547455,0.0,0.0,0.0
484.05212,450.68274,76752031,0.95,0.09574468,253.02945,-912.21497,0.0055455267,-0.025144376,-0.0052547455,0.0,0.0,0.0
488.1104,432.61548,76752047,0.95,0.08510638,116.682,-820.1657,-0.011563584,0.011884496,-0.02020359,0.0,0.0,0.0
492.59393,416.49036,76752064,0.9125,0.12765957,164.73123,-1000.62775,-0.011563584,0.011884496,-0.02020359,0.0,0.0,0.0
496.75342,403.0077,76752081,0.96250004,0.10638297,291.68378,-1113.1951,-0.011563584,0.011884496,-0.02020359,0.0,0.0,0.0
499.86334,390.07373,76752098,0.9375,0.08510638,271.3535,-880.1076,-0.011563584,0.011884496,-0.02020359,0.0,0.0,0.0
502.72803,378.68506,76752114,0.95,0.08510638,187.38472,-652.5413,-0.011563584,0.011884496,-0.02020359,0.0,0.0,0.0
504.66144,368.18005,76752131,0.96250004,0.09574468,104.5303,-521.52356,-0.011563584,0.011884496,-0.02020359,0.0,0.0,0.0
505.31335,358.9347,76752148,0.9375,0.10638297,45.71293,-509.71652,-0.011563584,0.011884496,-0.02020359,0.0,0.0,0.0
505.81317,352.09033,76752164,0.975,0.12765957,-10.170198,-426.83438,-0.011563584,0.011884496,-0.02020359,0.0,0.0,0.0
505.81317,347.3789,76752181,0.975,0.10638297,-44.02865,-279.84955,-0.011563584,0.011884496,-0.02020359,0.0,0.0,0.0
504.8037,345.4867,76752198,1.0,0.10638297,-78.52177,-96.308426,-0.011563584,0.011884496,-0.02020359,0.0,0.0,0.0
503.76025,343.63184,76752214,1.025,0.10638297,-91.29085,24.877392,-0.011563584,0.011884496,-0.02020359,0.0,0.0,0.0
502.7204,342.83862,76752231,1.0500001,0.12765957,-100.30164,65.45856,-0.011563584,0.011884496,-0.02020359,0.0,0.0,0.0
502.31433,342.83862,76752248,1.1,0.12765957,-79.339325,68.90017,-0.011563584,0.011884496,-0.02020359,0.0,0.0,0.0
502.31433,344.02893,76752265,1.1,0.12765957,-24.742422,88.47745,-0.011563584,0.011884496,-0.02020359,0.0,0.0,0.0
503.02142,348.38635,76752281,1.0500001,0.12765957,32.966526,200.7007,-0.011563584,0.011884496,-0.02020359,0.0,0.0,0.0
504.80322,354.35254,76752298,0.975,0.09574468,103.15766,380.67902,-0.011563584,0.011884496,-0.02020359,0.0,0.0,0.0
507.93268,365.86926,76752315,0.95,0.08510638,180.72357,627.6071,-0.011563584,0.011884496,-0.02020359,0.0,0.0,0.0
512.40106,380.23413,76752331,0.9375,0.08510638,276.54214,923.6113,-0.011563584,0.011884496,-0.02020359,0.0,0.0,0.0
517.9599,393.2478,76752348,0.9125,0.12765957,371.29712,1047.3379,-0.011563584,0.011884496,-0.02020359,0.0,0.0,0.0
523.6997,407.1482,76752365,0.90000004,0.10638297,419.35248,1026.3721,-0.011563584,0.011884496,-0.02020359,0.0,0.0,0.0
530.89813,423.54797,76752382,0.90000004,0.09574468,457.0603,976.57214,-0.011563584,0.011884496,-0.02020359,0.0,0.0,0.0
537.25946,438.69397,76752398,0.85,0.09574468,463.3695,971.30786,-0.011563584,0.011884496,-0.02020359,0.0,0.0,0.0
540.9042,445.1985,76752415,0.875,0.12765957,349.96826,730.80194,-0.011563584,0.011884496,-0.02020359,0.0,0.0,0.0
546.7366,454.54822,76752432,0.8875,0.09574468,283.99625,486.87012,-0.011563584,0.011884496,-0.02020359,0.0,0.0,0.0
552.38074,463.82202,76752448,0.9125,0.08510638,279.67145,349.4594,-0.011563584,0.011884496,-0.02020359,0.0,0.0,0.0
558.99225,478.48767,76752465,0.925,0.08510638,349.76974,553.44867,-0.011563584,0.011884496,-0.02020359,0.0,0.0,0.0
562.10223,487.86853,76752482,0.9375,0.08510638,331.5881,729.02783,-0.011563584,0.011884496,-0.02020359,0.0,0.0,0.0
564.0172,494.5807,76752499,0.9375,0.09574468,157.09592,589.5399,-0.011563584,0.011884496,-0.02020359,0.0,0.0,0.0
564.03235,499.25745,76752515,0.95,0.10638297,-29.550924,289.70663,-0.011563584,0.011884496,-0.02020359,0.0,0.0,0.0
562.6856,502.963,76752532,0.95,0.10638297,-160.07442,59.10085,-0.011563584,0.011884496,-0.02020359,0.0,0.0,0.0
560.608,506.65613,76752549,0.925,0.10638297,-207.75336,74.92761,-0.011563584,0.011884496,-0.02020359,0.0,0.0,0.0
558.41254,508.98877,76752565,0.90000004,0.10638297,-232.08685,99.55203,-0.011563584,0.011884496,-0.02020359,0.0,0.0,0.0
556.48694,510.59668,76752582,0.9125,0.10638297,-195.29347,73.31175,0.0067491233,0.0255076,-0.032162666,0.0,0.0,0.0
554.5009,513.1902,76752599,0.7875,0.10638297,-140.0428,71.14645,0.0067491233,0.0255076,-0.032162666,0.0,0.0,0.0
552.7979,515.20825,76752607,0.2875,0.11702127,-139.61546,91.70952,0.0067491233,0.0255076,-0.032162666,0.0,0.0,0.0
552.7979,515.20825,76752615,0.2875,0.11702127,-139.61546,91.70952,0.0067491233,0.0255076,-0.032162666,0.0,0.0,0.0
617.2769,397.03735,76753518,0.8,0.09574468,0.0,0.0,-0.010600701,-0.011593923,0.006269455,0.0,0.0,0.0
617.2769,397.03735,76753535,0.8875,0.10638297,-38.016975,-24.298191,-0.010600701,-0.011593923,0.006269455,0.0,0.0,0.0
617.2769,397.03735,76753551,0.9875,0.10638297,-0.025035284,-0.019557627,-0.010600701,-0.011593923,0.006269455,0.0,0.0,0.0
617.2769,397.03735,76753568,1.0125,0.12765957,-0.018648215,-0.010708693,-0.010600701,-0.011593923,0.006269455,0.0,0.0,0.0
617.2769,397.03735,76753585,1.0,0.10638297,-0.010015232,-0.0054003596,-0.010600701,-0.011593923,0.006269455,0.0,0.0,0.0
617.2769,397.03735,76753601,0.9875,0.09574468,-0.011627674,-0.0059695616,-0.010600701,-0.011593923,0.006269455,0.0,0.0,0.0
617.2769,397.03735,76753618,0.96250004,0.08510638,0.014954735,0.010916431,-0.010600701,-0.011593923,0.006269455,0.0,0.0,0.0
627.9135,381.18628,76753635,0.95,0.09574468,281.78665,-426.73666,-0.010600701,-0.011593923,0.006269455,0.0,0.0,0.0
637.2305,370.22412,76753652,0.9375,0.11702127,650.28326,-892.8704,0.01551944,0.07872486,0.05301571,0.0,0.0,0.0
646.0267,363.90417,76753668,0.975,0.10638297,839.6365,-951.28876,0.01551944,0.07872486,0.05301571,0.0,0.0,0.0
654.9861,362.38574,76753685,0.9875,0.10638297,757.16504,-491.4616,0.01551944,0.07872486,0.05301571,0.0,0.0,0.0
663.24164,364.6482,76753702,0.96250004,0.09574468,533.2743,170.85445,0.01551944,0.07872486,0.05301571,0.0,0.0,0.0
672.26044,370.82776,76753718,0.9125,0.08510638,454.19427,599.9368,0.01551944,0.07872486,0.05301571,0.0,0.0,0.0
679.13837,379.12695,76753735,0.90000004,0.08510638,481.5299,709.7491,0.01551944,0.07872486,0.05301571,0.0,0.0,0.0
688.0075,395.79297,76753752,0.8875,0.12765957,466.07986,940.69727,0.01551944,0.07872486,0.05301571,0.0,0.0,0.0
692.0085,412.2765,76753769,0.90000004,0.09574468,357.9558,1206.4703,0.01551944,0.07872486,0.05301571,0.0,0.0,0.0
692.7523,429.8457,76753785,0.875,0.09574468,150.52406,1337.1945,0.01551944,0.07872486,0.05301571,0.0,0.0,0.0
691.4408,443.40308,76753802,0.8625,0.12765957,-90.50979,1201.0769,0.01551944,0.07872486,0.05301571,0.0,0.0,0.0
687.2011,459.04663,76753819,0.8875,0.10638297,-326.27237,971.3505,0.01551944,0.07872486,0.05301571,0.0,0.0,0.0
679.1308,478.49268,76753835,0.8625,0.06382979,-556.4109,934.2255,0.01551944,0.07872486,0.05301571,0.0,0.0,0.0
669.6821,492.65503,76753852,0.83750004,0.09574468,-700.02826,1034.5576,0.01551944,0.07872486,0.05301571,0.0,0.0,0.0
656.68365,508.78784,76753869,0.83750004,0.11702127,-868.61365,1043.4996,0.01551944,0.07872486,0.05301571,0.0,0.0,0.0
643.04877,521.46814,76753886,0.8875,0.08510638,-960.74084,862.1517,0.01551944,0.07872486,0.05301571,0.0,0.0,0.0
628.6221,529.60876,76753902,0.8875,0.08510638,-982.10315,543.2041,0.01551944,0.07872486,0.05301571,0.0,0.0,0.0
617.68774,531.2013,76753919,0.925,0.08510638,-892.6014,186.1312,0.01551944,0.07872486,0.05301571,0.0,0.0,0.0
611.99426,529.52014,76753936,0.95,0.08510638,-586.2688,-192.98459,0.01551944,0.07872486,0.05301571,0.0,0.0,0.0
610.2837,524.13354,76753952,0.95,0.10638297,-171.1923,-520.0768,0.01551944,0.07872486,0.05301571,0.0,0.0,0.0
613.93494,514.0409,76753969,0.9875,0.09574468,275.05588,-766.3949,0.01551944,0.07872486,0.05301571,0.0,0.0,0.0
625.7273,502.8109,76753986,0.96250004,0.09574468,723.81384,-891.61584,0.01551944,0.07872486,0.05301571,0.0,0.0,0.0
638.99976,496.77954,76754002,0.9375,0.09574468,1041.6128,-776.1638,0.01551944,0.07872486,0.05301571,0.0,0.0,0.0
655.7226,495.66113,76754019,0.925,0.08510638,1256.8904,-406.90594,0.01551944,0.07872486,0.05301571,0.0,0.0,0.0
671.1889,497.16638,76754036,0.9125,0.09574468,1290.0193,53.670376,0.01551944,0.07872486,0.05301571,0.0,0.0,0.0
683.6182,501.36328,76754053,0.875,0.10638297,1041.4839,418.19446,0.01551944,0.07872486,0.05301571,0.0,0.0,0.0
693.2234,507.38647,76754069,0.875,0.12765957,722.81995,543.19806,0.01551944,0.07872486,0.05301571,0.0,0.0,0.0
703.57074,514.7715,76754086,0.8875,0.10638297,479.7738,584.7382,0.01551944,0.07872486,0.05301571,0.0,0.0,0.0
713.8802,521.9994,76754103,0.875,0.08510638,423.05396,570.7684,0.01551944,0.07872486,0.05301571,0.0,0.0,0.0
723.4315,527.8369,76754119,0.8625,0.08510638,503.27783,492.53058,0.01551944,0.07872486,0.05301571,0.0,0.0,0.0
731.6306,531.78064,76754136,0.83750004,0.08510638,537.3324,338.3866,0.01551944,0.07872486,0.05301571,0.0,0.0,0.0
737.59174,533.81494,76754153,0.8,0.08510638,424.96292,151.99799,0.01551944,0.07872486,0.05301571,0.0,0.0,0.0
742.7941,534.7811,76754170,0.75,0.08510638,283.0508,0.6014155,0.01551944,0.07872486,0.05301571,0.0,0.0,0.0
748.45685,534.7554,76754186,0.4125,0.09574468,229.99838,-79.1136,-0.04358445,-0.041020118,-0.05358696,0.0,0.0,0.0
749.23395,534.7554,76754193,0.26250002,0.09574468,195.04623,-98.11403,-0.04358445,-0.041020118,-0.05358696,0.0,0.0,0.0
749.23395,534.7554,76754201,0.26250002,0.09574468,195.04623,-98.11403,-0.04358445,-0.041020118,-0.05358696,0.0,0.0,0.0
665.7611,439.68542,76754370,0.85,0.08510638,0.0,0.0,-0.04358445,-0.041020118,-0.05358696,0.0,0.0,0.0
665.7611,439.68542,76754387,0.975,0.08510638,-11.644219,-7.7938094,-0.04358445,-0.041020118,-0.05358696,0.0,0.0,0.0
665.7611,439.68542,76754399,1.0375,0.08510638,0.025521202,0.019472998,-0.04358445,-0.041020118,-0.05358696,0.0,0.0,0.0
665.7611,439.68542,76754420,1.0500001,0.10638297,0.0056106485,0.005442009,-0.04358445,-0.041020118,-0.05358696,0.0,0.0,0.0
665.7611,439.68542,76754437,0.9875,0.08510638,-0.04465802,-0.031079287,-0.04358445,-0.041020118,-0.05358696,0.0,0.0,0.0
665.7611,439.68542,76754454,0.95,0.08510638,-0.013032914,-0.009117845,-0.04358445,-0.041020118,-0.05358696,0.0,0.0,0.0
688.8149,440.57397,76754487,0.90000004,0.09574468,741.9798,26.459455,-0.04358445,-0.041020118,-0.05358696,0.0,0.0,0.0
701.1481,441.0951,76754504,0.85,0.08510638,1004.7458,38.916325,-0.04358445,-0.041020118,-0.05358696,0.0,0.0,0.0
718.4912,443.44092,76754520,0.8,0.08510638,1123.7579,97.904564,-0.04358445,-0.041020118,-0.05358696,0.0,0.0,0.0
726.24146,445.01648,76754532,0.4875,0.12765957,1134.9996,145.40985,-0.04358445,-0.041020118,-0.05358696,0.0,0.0,0.0
726.24146,445.01648,76754538,0.4875,0.12765957,1134.9996,145.40985,-0.04358445,-0.041020118,-0.05358696,0.0,0.0,0.0
872.1939,403.25684,76754878,0.8125,0.12765957,0.0,0.0,-0.03486757,0.015183896,0.037129402,0.0,0.0,0.0
872.1939,403.25684,76754905,0.83750004,0.12765957,0.013354984,0.0049129953,-0.03486757,0.015183896,0.037129402,0.0,0.0,0.0
872.1939,403.25684,76754915,0.85,0.11702127,0.021958284,0.008437481,-0.03486757,0.015183896,0.037129402,0.0,0.0,0.0
872.1939,403.25684,76754938,0.8625,0.11702127,-0.03305349,-0.014371031,-0.03486757,0.015183896,0.037129402,0.0,0.0,0.0
848.31085,405.20972,76754955,0.8625,0.10638297,-861.0452,60.928043,-0.03486757,0.015183896,0.037129402,0.0,0.0,0.0
830.62634,411.80994,76754972,0.875,0.10638297,-1406.4928,259.79712,-0.03486757,0.015183896,0.037129402,0.0,0.0,0.0
815.6968,420.40405,76754988,0.8875,0.09574468,-1613.9313,534.33704,-0.03486757,0.015183896,0.037129402,0.0,0.0,0.0
802.144,431.6786,76755005,0.90000004,0.08510638,-1337.5637,774.9521,-0.03486757,0.015183896,0.037129402,0.0,0.0,0.0
792.576,441.95544,76755022,0.9125,0.09574468,-517.5986,853.78613,-0.03486757,0.015183896,0.037129402,0.0,0.0,0.0
783.2742,455.5874,76755039,0.9125,0.10638297,-318.3121,842.8283,-0.03486757,0.015183896,0.037129402,0.0,0.0,0.0
778.0727,467.6339,76755055,0.8875,0.08510638,-281.9745,843.4331,-0.03486757,0.015183896,0.037129402,0.0,0.0,0.0
777.22485,478.7367,76755072,0.90000004,0.08510638,-64.50736,778.21265,-0.03486757,0.015183896,0.037129402,0.0,0.0,0.0
778.3496,485.88904,76755089,0.90000004,0.08510638,157.62796,599.75836,-0.03486757,0.015183896,0.037129402,0.0,0.0,0.0
781.0527,490.91504,76755105,0.8875,0.09574468,331.04617,351.93472,-0.03486757,0.015183896,0.037129402,0.0,0.0,0.0
786.0627,496.13403,76755122,0.90000004,0.12765957,431.32898,144.10938,-0.03486757,0.015183896,0.037129402,0.0,0.0,0.0
793.34424,501.81702,76755139,0.90000004,0.12765957,485.24918,187.27122,-0.03486757,0.015183896,0.037129402,0.0,0.0,0.0
802.4636,505.52246,76755155,0.8875,0.12765957,604.553,219.89867,-0.03486757,0.015183896,0.037129402,0.0,0.0,0.0
814.56635,507.21167,76755172,0.90000004,0.12765957,761.3947,164.905,-0.03486757,0.015183896,0.037129402,0.0,0.0,0.0
833.84894,501.43994,76755189,0.875,0.09574468,1055.1396,-126.46417,-0.03486757,0.015183896,0.037129402,0.0,0.0,0.0
847.8628,488.36255,76755206,0.8625,0.08510638,1203.0638,-680.4221,-0.03486757,0.015183896,0.037129402,0.0,0.0,0.0
858.50146,471.8977,76755222,0.85,0.12765957,1033.0912,-1168.26,-0.03486757,0.015183896,0.037129402,0.0,0.0,0.0
871.6556,442.7572,76755239,0.875,0.08510638,740.98956,-1674.5734,-0.03486757,0.015183896,0.037129402,0.0,0.0,0.0
876.21436,424.4779,76755256,0.90000004,0.10638297,403.5327,-1835.722,0.020105943,0.012147114,0.045703888,0.0,0.0,0.0
878.24414,412.4735,76755272,0.90000004,0.12765957,106.59093,-1371.7645,0.020105943,0.012147114,0.045703888,0.0,0.0,0.0
878.19196,407.3667,76755289,0.9125,0.12765957,-107.51925,-621.9719,0.020105943,0.012147114,0.045703888,0.0,0.0,0.0
877.55304,405.67517,76755306,0.9125,0.12765957,-276.3949,100.26384,0.020105943,0.012147114,0.045703888,0.0,0.0,0.0
876.5335,405.92236,76755323,0.8875,0.12765957,-281.3149,459.9873,0.020105943,0.012147114,0.045703888,0.0,0.0,0.0
875.28973,408.41577,76755339,0.9125,0.10638297,-160.50946,395.88242,0.020105943,0.012147114,0.045703888,0.0,0.0,0.0
873.44934,414.7661,76755356,0.925,0.09574468,-128.29623,431.25433,0.020105943,0.012147114,0.045703888,0.0,0.0,0.0
872.42596,424.2953,76755373,0.9125,0.09574468,-111.05518,611.564,0.020105943,0.012147114,0.045703888,0.0,0.0,0.0
872.1939,433.67468,76755389,0.8875,0.09574468,-58.748962,771.6575,0.020105943,0.012147114,0.045703888,0.0,0.0,0.0
873.0615,441.41174,76755406,0.8625,0.10638297,24.208372,732.3352,0.020105943,0.012147114,0.045703888,0.0,0.0,0.0
874.0921,451.93384,76755423,0.825,0.12765957,101.09978,624.5181,0.020105943,0.012147114,0.045703888,0.0,0.0,0.0
875.1367,461.49854,76755440,0.83750004,0.10638297,120.69781,593.3846,0.020105943,0.012147114,0.045703888,0.0,0.0,0.0
876.6704,470.68506,76755456,0.825,0.08510638,114.62278,583.98553,0.020105943,0.012147114,0.045703888,0.0,0.0,0.0
878.2441,478.9651,76755473,0.7375,0.06382979,105.9249,555.1241,0.020105943,0.012147114,0.045703888,0.0,0.0,0.0
880.3229,487.36072,76755490,0.6875,0.08510638,122.90022,485.6313,0.020105943,0.012147114,0.045703888,0.0,0.0,0.0
881.8009,494.27527,76755506,0.375,0.09574468,128.56056,428.03815,0.020105943,0.012147114,0.045703888,0.0,0.0,0.0
882.1907,495.66113,76755513,0.2375,0.12765957,121.22582,393.44806,0.020105943,0.012147114,0.045703888,0.0,0.0,0.0
882.1907,495.66113,76755520,0.2375,0.12765957,121.22582,393.44806,0.020105943,0.012147114,0.045703888,0.0,0.0,0.0
860.1978,261.98486,76756175,0.96250004,0.09574468,0.0,0.0,-0.015915252,-0.022282302,-0.011437416,0.0,0.0,0.0
860.1978,261.98486,76756192,0.9875,0.09574468,0.0,0.0,-0.015915252,-0.022282302,-0.011437416,0.0,0.0,0.0
860.1978,261.98486,76756208,1.0,0.09574468,-0.06601943,-0.018564222,-0.015915252,-0.022282302,-0.011437416,0.0,0.0,0.0
860.1978,261.98486,76756225,0.925,0.09574468,-0.0028696954,-0.0014199502,-0.015915252,-0.022282302,-0.011437416,0.0,0.0,0.0
860.1978,261.98486,76756242,0.8,0.09574468,-0.022078348,-0.0071623237,-0.015915252,-0.022282302,-0.011437416,0.0,0.0,0.0
865.5763,292.01794,76756258,0.75,0.12765957,203.25021,1082.342,-0.015915252,-0.022282302,-0.011437416,0.0,0.0,0.0
867.3907,309.87866,76756275,0.71250004,0.09574468,235.45546,1507.9878,-0.015915252,-0.022282302,-0.011437416,0.0,0.0,0.0
867.6954,324.56543,76756292,0.5125,0.09574468,175.46277,1704.414,-0.015915252,-0.022282302,-0.011437416,0.0,0.0,0.0
867.6954,325.95703,76756296,0.25,0.11702127,147.89801,1596.628,-0.015915252,-0.022282302,-0.011437416,0.0,0.0,0.0
867.6954,325.95703,76756304,0.25,0.11702127,147.89801,1596.628,-0.015915252,-0.022282302,-0.011437416,0.0,0.0,0.0
931.17474,524.9818,76756691,0.7375,0.10638297,0.0,0.0,0.019267797,-0.033825852,-0.07314968,0.0,0.0,0.0
931.17474,524.9818,76756710,0.875,0.08510638,-0.0028325508,-0.010223669,0.019267797,-0.033825852,-0.07314968,0.0,0.0,0.0
931.17474,524.9818,76756726,0.95,0.10638297,-0.015404204,-0.008147455,0.019267797,-0.033825852,-0.07314968,0.0,0.0,0.0
931.17474,524.9818,76756743,0.95,0.10638297,-0.0335401,-0.015942754,0.019267797,-0.033825852,-0.07314968,0.0,0.0,0.0
931.17474,524.9818,76756760,0.9375,0.10638297,-0.031789392,-0.016742148,0.019267797,-0.033825852,-0.07314968,0.0,0.0,0.0
931.17474,524.9818,76756776,0.8875,0.12765957,-0.026904667,-0.015796136,0.019267797,-0.033825852,-0.07314968,0.0,0.0,0.0
931.67456,496.31262,76756793,0.8875,0.08510638,16.569036,-830.03656,0.019267797,-0.033825852,-0.07314968,0.0,0.0,0.0
932.4197,469.73425,76756810,0.8875,0.10638297,32.588642,-1815.0168,0.019267797,-0.033825852,-0.07314968,0.0,0.0,0.0
934.01794,442.65173,76756827,0.90000004,0.08510638,78.52581,-2392.8484,0.019267797,-0.033825852,-0.07314968,0.0,0.0,0.0
938.0379,418.1305,76756843,0.9125,0.10638297,179.77992,-2291.2476,0.019267797,-0.033825852,-0.07314968,0.0,0.0,0.0
943.7241,401.33728,76756860,0.9125,0.08510638,331.00165,-1457.3743,0.039414242,-0.011060685,0.02148056,0.0,0.0,0.0
948.4008,393.07153,76756877,0.9125,0.08510638,402.06995,-613.6502,0.039414242,-0.011060685,0.02148056,0.0,0.0,0.0
955.18134,384.87744,76756893,0.90000004,0.09574468,448.471,-212.64993,0.039414242,-0.011060685,0.02148056,0.0,0.0,0.0
960.145,380.83118,76756910,0.95,0.09574468,409.99728,47.008644,0.039414242,-0.011060685,0.02148056,0.0,0.0,0.0
964.9636,381.3286,76756927,0.9375,0.09574468,331.96683,174.9518,0.039414242,-0.011060685,0.02148056,0.0,0.0,0.0
969.8888,384.79968,76756943,0.90000004,0.11702127,285.60367,314.2573,0.039414242,-0.011060685,0.02148056,0.0,0.0,0.0
975.37646,390.76965,76756960,0.875,0.12765957,277.73477,529.8159,0.039414242,-0.011060685,0.02148056,0.0,0.0,0.0
982.08154,404.63818,76756977,0.8625,0.10638297,360.9524,801.24786,0.039414242,-0.011060685,0.02148056,0.0,0.0,0.0
985.6249,418.50525,76756994,0.85,0.08510638,341.2363,1046.8933,0.039414242,-0.011060685,0.02148056,0.0,0.0,0.0
987.3728,430.17676,76757010,0.825,0.07446808,191.80751,1076.5647,0.039414242,-0.011060685,0.02148056,0.0,0.0,0.0
988.94946,438.06323,76757027,0.8125,0.08510638,37.956825,821.9626,0.039414242,-0.011060685,0.02148056,0.0,0.0,0.0
990.59595,446.37122,76757044,0.8,0.12765957,-22.726265,482.0428,0.039414242,-0.011060685,0.02148056,0.0,0.0,0.0
991.6378,453.77917,76757060,0.8,0.10638297,-1.6487535,293.30106,0.039414242,-0.011060685,0.02148056,0.0,0.0,0.0
993.1704,459.3175,76757077,0.825,0.09574468,61.060986,283.8974,0.039414242,-0.011060685,0.02148056,0.0,0.0,0.0
994.2152,464.0006,76757094,0.83750004,0.08510638,65.27108,253.45961,0.039414242,-0.011060685,0.02148056,0.0,0.0,0.0
995.2605,468.68555,76757111,0.77500004,0.08510638,56.15559,213.73482,0.039414242,-0.011060685,0.02148056,0.0,0.0,0.0
996.15356,478.71655,76757127,0.71250004,0.06382979,54.176975,339.41214,0.039414242,-0.011060685,0.02148056,0.0,0.0,0.0
995.6146,490.35876,76757144,0.475,0.10638297,15.083624,589.36224,0.039414242,-0.011060685,0.02148056,0.0,0.0,0.0
994.65405,498.32666,76757149,0.2375,0.12765957,-18.937574,758.16254,0.039414242,-0.011060685,0.02148056,0.0,0.0,0.0
994.65405,498.32666,76757156,0.2375,0.12765957,-18.937574,758.16254,0.039414242,-0.011060685,0.02148056,0.0,0.0,0.0
1123.1122,396.1488,76757992,0.85,0.10638297,0.0,0.0,-0.0035748929,0.0057211667,-0.024652481,0.0,0.0,0.0
1123.1122,396.1488,76758013,0.8625,0.10638297,0.06443544,0.018718373,-0.0035748929,0.0057211667,-0.024652481,0.0,0.0,0.0
1123.1122,396.1488,76758030,0.875,0.10638297,0.100168794,0.03682759,-0.0035748929,0.0057211667,-0.024652481,0.0,0.0,0.0
1123.1122,396.1488,76758045,0.875,0.10638297,0.07111711,0.02335648,-0.0035748929,0.0057211667,-0.024652481,0.0,0.0,0.0
1123.1122,396.1488,76758063,0.875,0.09574468,0.018946802,0.00545088,-0.0035748929,0.0057211667,-0.024652481,0.0,0.0,0.0
1123.1122,396.1488,76758080,0.85,0.09574468,0.08358074,0.029729815,-0.0035748929,0.0057211667,-0.024652481,0.0,0.0,0.0
1095.8617,397.89014,76758096,0.8625,0.12765957,-862.11273,49.042427,-0.0035748929,0.0057211667,-0.024652481,0.0,0.0,0.0
1084.4523,403.34875,76758113,0.8875,0.12765957,-1297.844,223.9907,-0.0035748929,0.0057211667,-0.024652481,0.0,0.0,0.0
1075.6509,409.90002,76758130,0.90000004,0.08510638,-1191.2223,406.8345,-0.0035748929,0.0057211667,-0.024652481,0.0,0.0,0.0
1068.5388,419.2367,76758147,0.875,0.08510638,-566.668,627.5388,-0.0035748929,0.0057211667,-0.024652481,0.0,0.0,0.0
1059.796,438.114,76758163,0.875,0.09574468,-287.60413,987.27454,-0.0035748929,0.0057211667,-0.024652481,0.0,0.0,0.0
1056.5364,447.67468,76758180,0.85,0.10638297,-94.61223,1034.2393,-0.0035748929,0.0057211667,-0.024652481,0.0,0.0,0.0
1058.0507,459.67993,76758197,0.875,0.09574468,-20.1357,929.2418,-0.0035748929,0.0057211667,-0.024652481,0.0,0.0,0.0
1061.1365,469.90552,76758213,0.875,0.08510638,287.24933,649.75684,-0.0035748929,0.0057211667,-0.024652481,0.0,0.0,0.0
1064.713,478.0365,76758230,0.875,0.08510638,456.72357,468.4622,-0.0035748929,0.0057211667,-0.024652481,0.0,0.0,0.0
1068.8005,484.7085,76758247,0.8625,0.08510638,408.9568,402.89877,-0.0035748929,0.0057211667,-0.024652481,0.0,0.0,0.0
1074.68,491.38525,76758264,0.875,0.11702127,376.87112,295.26297,-0.0035748929,0.0057211667,-0.024652481,0.0,0.0,0.0
1081.9261,495.35034,76758280,0.90000004,0.11702127,428.97495,216.27829,-0.0035748929,0.0057211667,-0.024652481,0.0,0.0,0.0
1092.9673,495.74426,76758297,0.875,0.10638297,580.84814,94.02371,-0.0035748929,0.0057211667,-0.024652481,0.0,0.0,0.0
1112.9913,483.33252,76758314,0.875,0.08510638,1008.9314,-359.45023,-0.0035748929,0.0057211667,-0.024652481,0.0,0.0,0.0
1124.4325,470.33984,76758330,0.85,0.12765957,1143.6375,-973.95496,-0.0035748929,0.0057211667,-0.024652481,0.0,0.0,0.0
1134.962,446.5869,76758347,0.875,0.09574468,946.2286,-1488.0084,-0.0035748929,0.0057211667,-0.024652481,0.0,0.0,0.0
1139.9425,425.45654,76758364,0.8875,0.11702127,535.2517,-1792.9441,-0.0035748929,0.0057211667,-0.024652481,0.0,0.0,0.0
1140.1067,409.0923,76758381,0.8875,0.12765957,7.758034,-1596.189,-0.0035748929,0.0057211667,-0.024652481,0.0,0.0,0.0
1139.4148,401.00293,76758397,0.875,0.11702127,-269.8224,-990.1567,-0.0035748929,0.0057211667,-0.024652481,0.0,0.0,0.0
1137.6465,398.4048,76758414,0.90000004,0.11702127,-341.0941,-118.5727,-0.0035748929,0.0057211667,-0.024652481,0.0,0.0,0.0
1134.3019,397.03735,76758431,0.9125,0.11702127,-347.9091,324.12894,-0.0035748929,0.0057211667,-0.024652481,0.0,0.0,0.0
1130.3741,399.02368,76758447,0.9125,0.12765957,-293.1151,370.718,-0.0035748929,0.0057211667,-0.024652481,0.0,0.0,0.0
1125.7218,404.2202,76758464,0.875,0.10638297,-333.6708,440.87665,0.013140082,0.0045769364,0.012278557,0.0,0.0,0.0
1120.1736,416.76794,76758481,0.8625,0.08510638,-369.61646,671.0075,0.013140082,0.0045769364,0.012278557,0.0,0.0,0.0
1118.1895,428.3523,76758497,0.83750004,0.08510638,-302.80078,951.6301,0.013140082,0.0045769364,0.012278557,0.0,0.0,0.0
1118.5784,435.8806,76758514,0.875,0.08510638,-97.8709,910.7226,0.013140082,0.0045769364,0.012278557,0.0,0.0,0.0
1120.128,440.6006,76758531,0.9125,0.10638297,129.46146,535.17554,0.013140082,0.0045769364,0.012278557,0.0,0.0,0.0
1121.7113,442.4386,76758548,0.925,0.10638297,238.27946,131.19344,0.013140082,0.0045769364,0.012278557,0.0,0.0,0.0
1125.4746,444.28918,76758564,0.90000004,0.11702127,283.42453,-96.73378,0.013140082,0.0045769364,0.012278557,0.0,0.0,0.0
1131.9951,444.8197,76758581,0.8875,0.11702127,356.0325,-99.73489,0.013140082,0.0045769364,0.012278557,0.0,0.0,0.0
1141.5573,442.08386,76758598,0.8625,0.08510638,534.3151,-152.44777,0.013140082,0.0045769364,0.012278557,0.0,0.0,0.0
1154.3468,431.81604,76758614,0.85,0.08510638,790.8851,-415.3842,0.013140082,0.0045769364,0.012278557,0.0,0.0,0.0
1163.0677,420.19434,76758631,0.8625,0.10638297,851.7327,-835.20605,0.013140082,0.0045769364,0.012278557,0.0,0.0,0.0
1170.5249,401.73535,76758648,0.8875,0.10638297,654.07007,-1187.5966,0.013140082,0.0045769364,0.012278557,0.0,0.0,0.0
1174.7166,381.74463,76758665,0.8875,0.08510638,340.63226,-1428.422,0.013140082,0.0045769364,0.012278557,0.0,0.0,0.0
1175.9404,366.08496,76758681,0.90000004,0.10638297,19.543278,-1365.0535,0.013140082,0.0045769364,0.012278557,0.0,0.0,0.0
1176.095,354.4602,76758698,0.90000004,0.12765957,-127.11866,-1050.2115,0.013140082,0.0045769364,0.012278557,0.0,0.0,0.0
1176.095,347.6277,76758715,0.8875,0.10638297,-169.95879,-552.34045,0.013140082,0.0045769364,0.012278557,0.0,0.0,0.0
1175.6138,344.64893,76758731,0.90000004,0.10638297,-153.05246,-66.93362,0.013140082,0.0045769364,0.012278557,0.0,0.0,0.0
1175.0953,342.79797,76758748,0.9125,0.10638297,-86.75641,133.97841,0.013140082,0.0045769364,0.012278557,0.0,0.0,0.0
1174.0361,341.95007,76758765,0.925,0.12765957,-71.72572,167.17174,0.013140082,0.0045769364,0.012278557,0.0,0.0,0.0
1172.9916,341.95007,76758782,0.9375,0.12765957,-77.5078,147.37357,0.013140082,0.0045769364,0.012278557,0.0,0.0,0.0
1171.93,345.20667,76758798,0.9375,0.12765957,-80.31016,178.49342,0.013140082,0.0045769364,0.012278557,0.0,0.0,0.0
1170.882,350.20215,76758815,0.925,0.10638297,-74.02793,295.77826,0.013140082,0.0045769364,0.012278557,0.0,0.0,0.0
1171.3132,355.92944,76758832,0.90000004,0.08510638,-35.103073,434.0205,0.013140082,0.0045769364,0.012278557,0.0,0.0,0.0
1172.6083,365.11584,76758848,0.875,0.08510638,53.24871,573.3575,0.013140082,0.0045769364,0.012278557,0.0,0.0,0.0
1175.4854,376.21155,76758865,0.83750004,0.08510638,161.60835,716.4953,0.013140082,0.0045769364,0.012278557,0.0,0.0,0.0
1178.6132,385.8391,76758882,0.85,0.10638297,249.9508,764.2789,0.013140082,0.0045769364,0.012278557,0.0,0.0,0.0
1182.5736,394.10693,76758899,0.83750004,0.12765957,287.4211,664.11475,0.013140082,0.0045769364,0.012278557,0.0,0.0,0.0
1186.418,402.0598,76758915,0.8625,0.12765957,301.9993,534.8922,0.013140082,0.0045769364,0.012278557,0.0,0.0,0.0
1190.0032,409.32117,76758932,0.90000004,0.11702127,274.57797,409.76065,0.013140082,0.0045769364,0.012278557,0.0,0.0,0.0
1195.9908,419.96472,76758949,0.9125,0.09574468,292.31384,453.2442,0.013140082,0.0045769364,0.012278557,0.0,0.0,0.0
1201.2874,431.22827,76758965,0.9125,0.08510638,338.3717,614.6623,0.013140082,0.0045769364,0.012278557,0.0,0.0,0.0
1204.7456,437.30408,76758982,0.9375,0.10638297,312.24396,588.7028,-0.0054879338,0.0036615431,0.009822845,0.0,0.0,0.0
1209.1035,445.05078,76758999,0.90000004,0.12765957,265.31555,487.07376,-0.0054879338,0.0036615431,0.009822845,0.0,0.0,0.0
1215.8593,457.94824,76759016,0.90000004,0.09574468,283.08066,518.545,-0.0054879338,0.0036615431,0.009822845,0.0,0.0,0.0
1220.6581,468.9397,76759032,0.90000004,0.08510638,326.58606,642.5615,-0.0054879338,0.0036615431,0.009822845,0.0,0.0,0.0
1222.3112,478.64563,76759049,0.9125,0.08510638,271.30658,740.3837,-0.0054879338,0.0036615431,0.009822845,0.0,0.0,0.0
1222.3401,484.50085,76759066,0.8875,0.08510638,56.21954,569.1553,-0.0054879338,0.0036615431,0.009822845,0.0,0.0,0.0
1221.0074,488.68274,76759082,0.85,0.08510638,-168.94437,228.9955,-0.0054879338,0.0036615431,0.009822845,0.0,0.0,0.0
1218.0714,492.41516,76759099,0.8125,0.08510638,-279.08875,51.75684,-0.0054879338,0.0036615431,0.009822845,0.0,0.0,0.0
1213.206,496.1068,76759116,0.77500004,0.10638297,-327.37885,63.841866,-0.0054879338,0.0036615431,0.009822845,0.0,0.0,0.0
1207.9213,500.75293,76759132,0.7625,0.12765957,-400.5479,156.92993,-0.0054879338,0.0036615431,0.009822845,0.0,0.0,0.0
1199.4812,514.50854,76759149,0.6875,0.12765957,-471.3604,422.0278,-0.0054879338,0.0036615431,0.009822845,0.0,0.0,0.0
1197.0881,517.8738,76759158,0.2375,0.09574468,-517.85535,612.6726,-0.0054879338,0.0036615431,0.009822845,0.0,0.0,0.0
1197.0881,517.8738,76759165,0.2375,0.09574468,-517.85535,612.6726,-0.0054879338,0.0036615431,0.009822845,0.0,0.0,0.0
