x,y,timestamp,pressure,fingerarea,velocityx,velocityy,accelx,accely,accelz,gyrox,gyroy,gyroz
138.93263,519.65076,8635050,0.77500004,0.09574468,0.0,0.0,-0.0013481043,0.005218148,0.03899479,0.0,0.0,0.0
138.93263,519.65076,8635069,0.8125,0.09574468,-0.017251797,-0.07159267,-0.0013481043,0.005218148,0.03899479,0.0,0.0,0.0
138.93263,519.65076,8635085,0.875,0.10638297,-0.003683928,-0.009756135,-0.0013481043,0.005218148,0.03899479,0.0,0.0,0.0
138.93263,519.65076,8635101,0.9125,0.10638297,0.01024112,0.037097167,-0.0013481043,0.005218148,0.03899479,0.0,0.0,0.0
138.93263,519.65076,8635119,0.925,0.10638297,-0.002192714,-0.0050182804,-0.0013481043,0.005218148,0.03899479,0.0,0.0,0.0
138.93263,519.65076,8635135,0.9375,0.12765957,-0.0036384328,-0.014531315,-0.0013481043,0.005218148,0.03899479,0.0,0.0,0.0
138.93263,519.65076,8635152,0.925,0.12765957,0.005261351,0.019102523,-0.0013481043,0.005218148,0.03899479,0.0,0.0,0.0
138.93263,519.65076,8635165,0.925,0.12765957,3.4316131E-4,0.0014216702,-0.0013481043,0.005218148,0.03899479,0.0,0.0,0.0
138.93263,519.65076,8635202,0.875,0.10638297,3.2240505E-4,0.0010905877,-0.0013481043,0.005218148,0.03899479,0.0,0.0,0.0
137.78156,502.25854,8635218,0.8125,0.08510638,-26.353695,-398.1845,-0.0013481043,0.005218148,0.03899479,0.0,0.0,0.0
136.31676,489.7666,8635235,0.7875,0.06382979,-89.75538,-1027.6677,-0.0013481043,0.005218148,0.03899479,0.0,0.0,0.0
134.76677,475.51392,8635252,0.8,0.09574468,-126.91078,-1274.7074,0.014921516,0.0041745305,0.047195435,0.0,0.0,0.0
133.24501,460.98157,8635269,0.8,0.10638297,-119.65589,-1087.8936,0.014921516,0.0041745305,0.047195435,0.0,0.0,0.0
132.20537,444.90088,8635285,0.8,0.06382979,-90.59712,-972.1766,0.014921516,0.0041745305,0.047195435,0.0,0.0,0.0
131.16669,430.53796,8635302,0.8,0.06382979,-55.524914,-881.5696,0.014921516,0.0041745305,0.047195435,0.0,0.0,0.0
130.6313,416.70483,8635319,0.7875,0.09574468,-37.398758,-903.27515,0.014921516,0.0041745305,0.047195435,0.0,0.0,0.0
130.4354,398.8158,8635335,0.7875,0.09574468,-12.366054,-907.99774,0.014921516,0.0041745305,0.047195435,0.0,0.0,0.0
130.06409,382.2119,8635352,0.7875,0.06382979,8.284965,-978.33215,0.014921516,0.0041745305,0.047195435,0.0,0.0,0.0
130.34467,364.15967,8635369,0.77500004,0.09574468,12.196678,-1074.9094,0.014921516,0.0041745305,0.047195435,0.0,0.0,0.0
130.90039,342.56946,8635386,0.77500004,0.09574468,31.506405,-1264.8167,0.014921516,0.0041745305,0.047195435,0.0,0.0,0.0
130.93524,326.6151,8635402,0.77500004,0.06382979,34.60921,-1185.898,0.014921516,0.0041745305,0.047195435,0.0,0.0,0.0
130.93524,312.87366,8635419,0.7875,0.10638297,21.590939,-995.19055,0.014921516,0.0041745305,0.047195435,0.0,0.0,0.0
130.3433,294.99963,8635436,0.8,0.09574468,-9.780418,-899.2814,0.014921516,0.0041745305,0.047195435,0.0,0.0,0.0
129.79573,281.56885,8635452,0.8,0.06382979,-46.548386,-799.6276,0.014921516,0.0041745305,0.047195435,0.0,0.0,0.0
129.93556,273.96106,8635469,0.8,0.06382979,-37.96135,-633.52966,0.014921516,0.0041745305,0.047195435,0.0,0.0,0.0
128.52426,267.99536,8635486,0.7875,0.08510638,-48.27948,-382.63904,0.014921516,0.0041745305,0.047195435,0.0,0.0,0.0
127.19229,262.89417,8635503,0.8,0.08510638,-81.148796,-101.087875,0.014921516,0.0041745305,0.047195435,0.0,0.0,0.0
126.15976,259.22314,8635519,0.8,0.09574468,-93.922485,-45.96219,0.014921516,0.0041745305,0.047195435,0.0,0.0,0.0
125.11421,256.9685,8635536,0.825,0.09574468,-87.15655,-69.34785,0.014921516,0.0041745305,0.047195435,0.0,0.0,0.0
124.074066,255.1195,8635553,0.8125,0.08510638,-61.162045,-36.32437,0.014921516,0.0041745305,0.047195435,0.0,0.0,0.0
123.43768,254.87683,8635569,0.8125,0.08510638,-44.68606,15.110747,0.014921516,0.0041745305,0.047195435,0.0,0.0,0.0
123.43768,254.87683,8635586,0.825,0.08510638,-21.229012,57.677216,0.014921516,0.0041745305,0.047195435,0.0,0.0,0.0
124.42081,258.34265,8635603,0.8,0.08510638,37.034958,142.3582,0.014921516,0.0041745305,0.047195435,0.0,0.0,0.0
128.53224,269.34937,8635620,0.8,0.08510638,178.17763,482.47644,0.014921516,0.0041745305,0.047195435,0.0,0.0,0.0
133.77063,282.48816,8635636,0.7625,0.10638297,331.34375,845.7342,0.014921516,0.0041745305,0.047195435,0.0,0.0,0.0
138.47246,296.3938,8635653,0.7375,0.10638297,406.94736,1090.0994,0.014921516,0.0041745305,0.047195435,0.0,0.0,0.0
146.74011,315.53943,8635670,0.725,0.08510638,490.53537,1263.3623,0.014921516,0.0041745305,0.047195435,0.0,0.0,0.0
152.05087,327.95178,8635686,0.71250004,0.09574468,471.4007,1147.1912,0.014921516,0.0041745305,0.047195435,0.0,0.0,0.0
157.31624,338.19995,8635703,0.725,0.12765957,402.87158,835.9241,0.014921516,0.0041745305,0.047195435,0.0,0.0,0.0
162.22636,345.57715,8635720,0.7375,0.09574468,316.3022,467.1411,0.014921516,0.0041745305,0.047195435,0.0,0.0,0.0
167.7133,352.06726,8635736,0.75,0.08510638,256.56998,205.30998,0.014921516,0.0041745305,0.047195435,0.0,0.0,0.0
173.76909,357.95422,8635753,0.77500004,0.07446808,302.6694,176.74164,0.014921516,0.0041745305,0.047195435,0.0,0.0,0.0
180.22893,361.9768,8635770,0.8125,0.08510638,375.76917,182.55426,0.014921516,0.0041745305,0.047195435,0.0,0.0,0.0
186.91466,364.90234,8635787,0.825,0.08510638,427.92603,149.71916,0.011937216,-0.012660384,0.037755966,0.0,0.0,0.0
192.73407,365.05115,8635803,0.825,0.08510638,413.11557,27.232265,0.011937216,-0.012660384,0.037755966,0.0,0.0,0.0
199.95102,364.15295,8635820,0.8125,0.11702127,402.8898,-108.43194,0.011937216,-0.012660384,0.037755966,0.0,0.0,0.0
207.85294,360.412,8635837,0.825,0.12765957,431.83896,-247.17099,0.011937216,-0.012660384,0.037755966,0.0,0.0,0.0
214.41556,355.7152,8635853,0.83750004,0.10638297,457.59402,-362.13672,0.011937216,-0.012660384,0.037755966,0.0,0.0,0.0
218.91827,350.15308,8635870,0.8125,0.10638297,384.94992,-436.15045,0.011937216,-0.012660384,0.037755966,0.0,0.0,0.0
226.16943,340.02295,8635887,0.8,0.08510638,344.1972,-557.22144,0.011937216,-0.012660384,0.037755966,0.0,0.0,0.0
234.31241,320.59863,8635904,0.7875,0.08510638,376.20532,-914.3574,0.011937216,-0.012660384,0.037755966,0.0,0.0,0.0
240.1275,302.98743,8635920,0.7875,0.10638297,456.23315,-1341.4393,0.011937216,-0.012660384,0.037755966,0.0,0.0,0.0
243.23889,286.43542,8635937,0.8,0.08510638,355.25882,-1419.4246,0.011937216,-0.012660384,0.037755966,0.0,0.0,0.0
244.72104,273.64697,8635954,0.7875,0.07446808,117.70318,-1126.9863,0.011937216,-0.012660384,0.037755966,0.0,0.0,0.0
245.24506,264.84924,8635970,0.77500004,0.08510638,-84.44332,-613.7313,0.011937216,-0.012660384,0.037755966,0.0,0.0,0.0
245.02411,257.54956,8635987,0.77500004,0.10638297,-139.95021,-269.83188,0.011937216,-0.012660384,0.037755966,0.0,0.0,0.0
244.46127,249.99365,8636004,0.7875,0.12765957,-109.55815,-213.0149,0.011937216,-0.012660384,0.037755966,0.0,0.0,0.0
244.39828,243.43042,8636021,0.7875,0.10638297,-86.325966,-255.40344,0.011937216,-0.012660384,0.037755966,0.0,0.0,0.0
243.36176,240.59521,8636037,0.825,0.12765957,-61.45791,-223.38643,0.011937216,-0.012660384,0.037755966,0.0,0.0,0.0
242.89877,238.77454,8636054,0.8625,0.12765957,-56.008934,-101.76546,0.011937216,-0.012660384,0.037755966,0.0,0.0,0.0
242.39896,237.99524,8636071,0.925,0.12765957,-42.050846,34.39731,0.011937216,-0.012660384,0.037755966,0.0,0.0,0.0
241.89911,237.99524,8636087,0.95,0.12765957,-36.747963,106.344505,0.011937216,-0.012660384,0.037755966,0.0,0.0,0.0
241.89911,239.0415,8636104,0.95,0.12765957,-11.65736,123.68508,0.011937216,-0.012660384,0.037755966,0.0,0.0,0.0
241.39926,243.20508,8636121,0.925,0.09574468,-0.060649004,206.59485,0.011937216,-0.012660384,0.037755966,0.0,0.0,0.0
241.39926,246.90845,8636138,0.8625,0.09574468,-5.5145254,305.20654,0.011937216,-0.012660384,0.037755966,0.0,0.0,0.0
242.19608,253.60156,8636154,0.8125,0.08510638,18.692081,386.24823,0.011937216,-0.012660384,0.037755966,0.0,0.0,0.0
244.07327,264.6941,8636171,0.7875,0.08510638,80.08222,603.4593,0.011937216,-0.012660384,0.037755966,0.0,0.0,0.0
246.63931,275.71252,8636188,0.77500004,0.08510638,178.94228,793.0199,0.011937216,-0.012660384,0.037755966,0.0,0.0,0.0
249.62714,288.2516,8636204,0.77500004,0.12765957,222.9967,888.1418,0.011937216,-0.012660384,0.037755966,0.0,0.0,0.0
252.75754,305.51062,8636221,0.75,0.08510638,237.94592,997.29535,0.011937216,-0.012660384,0.037755966,0.0,0.0,0.0
254.89313,320.61328,8636238,0.75,0.08510638,201.75035,1066.0621,0.011937216,-0.012660384,0.037755966,0.0,0.0,0.0
256.97388,332.6012,8636254,0.75,0.11702127,142.20093,982.85645,0.011937216,-0.012660384,0.037755966,0.0,0.0,0.0
259.63107,343.68347,8636271,0.75,0.12765957,122.44321,778.7766,0.011937216,-0.012660384,0.037755966,0.0,0.0,0.0
261.13034,354.76648,8636288,0.75,0.09574468,100.75272,579.3532,0.011937216,-0.012660384,0.037755966,0.0,0.0,0.0
263.23117,367.74695,8636305,0.75,0.08510638,106.85806,583.6891,0.011937216,-0.012660384,0.037755966,0.0,0.0,0.0
265.96658,377.75793,8636321,0.7375,0.08510638,134.96693,645.22656,-0.022450224,-0.010128289,0.046204567,0.0,0.0,0.0
268.35507,387.55066,8636338,0.75,0.10638297,155.67593,622.9725,-0.022450224,-0.010128289,0.046204567,0.0,0.0,0.0
271.2156,398.68542,8636355,0.725,0.10638297,173.2722,568.654,-0.022450224,-0.010128289,0.046204567,0.0,0.0,0.0
274.3296,410.15527,8636371,0.75,0.08510638,184.4422,610.7865,-0.022450224,-0.010128289,0.046204567,0.0,0.0,0.0
276.59305,422.12085,8636388,0.7375,0.06382979,173.49257,720.04266,-0.022450224,-0.010128289,0.046204567,0.0,0.0,0.0
278.17404,430.74146,8636405,0.75,0.06382979,130.25656,679.9035,-0.022450224,-0.010128289,0.046204567,0.0,0.0,0.0
280.23532,439.90173,8636422,0.75,0.08510638,93.57825,550.6206,-0.022450224,-0.010128289,0.046204567,0.0,0.0,0.0
282.82156,450.00513,8636438,0.75,0.10638297,97.86054,480.4361,-0.022450224,-0.010128289,0.046204567,0.0,0.0,0.0
285.41354,461.162,8636455,0.75,0.08510638,147.62305,582.862,-0.022450224,-0.010128289,0.046204567,0.0,0.0,0.0
287.0334,470.42407,8636472,0.7625,0.06382979,142.54483,627.2962,-0.022450224,-0.010128289,0.046204567,0.0,0.0,0.0
289.60403,477.5902,8636488,0.7625,0.06382979,137.41673,558.51746,-0.022450224,-0.010128289,0.046204567,0.0,0.0,0.0
291.0101,483.89917,8636505,0.7625,0.06382979,110.23819,400.8482,-0.022450224,-0.010128289,0.046204567,0.0,0.0,0.0
292.05637,488.2815,8636522,0.77500004,0.08510638,73.47178,237.56235,-0.022450224,-0.010128289,0.046204567,0.0,0.0,0.0
293.59317,491.59338,8636539,0.7875,0.08510638,64.46249,134.41106,-0.022450224,-0.010128289,0.046204567,0.0,0.0,0.0
294.38202,492.9956,8636555,0.7875,0.08510638,35.779137,48.86805,-0.022450224,-0.010128289,0.046204567,0.0,0.0,0.0
294.38202,492.9956,8636572,0.7625,0.08510638,18.611643,-48.20752,-0.022450224,-0.010128289,0.046204567,0.0,0.0,0.0
295.2134,493.58496,8636589,0.7,0.08510638,4.442275,-88.2394,-0.022450224,-0.010128289,0.046204567,2.9360124E-6,0.0,0.0
298.38074,495.66113,8636601,0.52500004,0.11702127,50.974163,-55.50444,-0.022450224,-0.010128289,0.046204567,2.9360124E-6,0.0,0.0
298.38074,495.66113,8636607,0.52500004,0.11702127,50.974163,-55.50444,-0.022450224,-0.010128289,0.046204567,2.9360124E-6,0.0,0.0
346.3651,425.46936,8636930,0.7,0.053191487,0.0,0.0,-0.017960176,-0.008102626,0.036963463,0.0,0.0,0.0
346.3651,425.46936,8636956,0.7875,0.06382979,-0.008855553,-0.0084803635,-0.017960176,-0.008102626,0.036963463,0.0,0.0,0.0
346.3651,425.46936,8636973,0.83750004,0.08510638,0.027986825,0.033061694,-0.017960176,-0.008102626,0.036963463,0.0,0.0,0.0
346.3651,425.46936,8636990,0.825,0.06382979,0.01119776,0.0117907515,-0.017960176,-0.008102626,0.036963463,0.0,0.0,0.0
346.3651,425.46936,8637006,0.7875,0.06382979,0.008428143,0.009813596,-0.017960176,-0.008102626,0.036963463,0.0,0.0,0.0
346.3651,425.46936,8637023,0.75,0.06382979,-0.026380196,-0.030439368,-0.017960176,-0.008102626,0.036963463,0.0,0.0,0.0
346.3651,425.46936,8637057,0.77500004,0.08510638,0.007413295,0.008734421,-0.017960176,-0.008102626,0.036963463,0.0,0.0,0.0
346.3651,425.46936,8637073,0.75,0.08510638,0.016829101,0.019061375,-0.017960176,-0.008102626,0.036963463,0.0,0.0,0.0
365.80426,436.72424,8637090,0.7625,0.09574468,720.291,420.00974,-0.017960176,-0.008102626,0.036963463,0.0,0.0,0.0
373.78247,438.77515,8637107,0.77500004,0.08510638,1037.3348,513.2977,-0.017960176,-0.008102626,0.036963463,0.0,0.0,0.0
379.5164,438.797,8637123,0.7875,0.08510638,581.1198,102.43544,-0.017960176,-0.008102626,0.036963463,0.0,0.0,0.0
384.19226,437.78784,8637140,0.8,0.08510638,365.4237,-67.23253,-0.017960176,-0.008102626,0.036963463,0.0,0.0,0.0
388.28415,435.9392,8637157,0.8125,0.08510638,112.88819,-253.04436,-0.017960176,-0.008102626,0.036963463,0.0,0.0,0.0
391.1446,434.09326,8637174,0.825,0.08510638,3.6630182,-296.21173,-0.017960176,-0.008102626,0.036963463,0.0,0.0,0.0
393.23254,432.2373,8637190,0.8125,0.08510638,89.92946,-183.23882,-0.017960176,-0.008102626,0.036963463,0.0,0.0,0.0
395.07538,430.39856,8637207,0.8125,0.08510638,57.412094,-136.4586,-0.017960176,-0.008102626,0.036963463,0.0,0.0,0.0
396.11078,428.09277,8637224,0.7875,0.08510638,25.396984,-118.03295,-0.017960176,-0.008102626,0.036963463,0.0,0.0,0.0
397.15134,424.39343,8637240,0.77500004,0.08510638,21.562244,-178.25214,-0.017960176,-0.008102626,0.036963463,0.0,0.0,0.0
398.1878,419.21655,8637257,0.77500004,0.09574468,32.79589,-278.8691,-0.017960176,-0.008102626,0.036963463,0.0,0.0,0.0
398.84802,413.66772,8637274,0.7625,0.10638297,32.05103,-377.89038,-0.017960176,-0.008102626,0.036963463,0.0,0.0,0.0
398.42767,408.1234,8637291,0.7875,0.10638297,8.132223,-416.18457,-0.017960176,-0.008102626,0.036963463,0.0,0.0,0.0
397.38953,402.58704,8637307,0.8,0.10638297,-55.392616,-390.9774,-0.017960176,-0.008102626,0.036963463,0.0,0.0,0.0
395.84814,399.7013,8637324,0.8,0.09574468,-119.3342,-280.91092,-0.017960176,-0.008102626,0.036963463,0.0,0.0,0.0
393.22525,396.00122,8637341,0.8125,0.09574468,-169.33916,-186.27866,-0.017960176,-0.008102626,0.036963463,0.0,0.0,0.0
389.53683,394.2323,8637357,0.825,0.10638297,-223.8453,-102.2427,-0.017960176,-0.008102626,0.036963463,0.0,0.0,0.0
384.25064,392.38086,8637374,0.825,0.10638297,-311.75055,-53.099995,-0.017960176,-0.008102626,0.036963463,0.0,0.0,0.0
379.04315,392.59485,8637391,0.825,0.11702127,-379.7266,2.1854541,-0.030368142,-0.07848209,-0.15442944,0.0,2.9360124E-6,0.0
371.91354,394.73828,8637407,0.85,0.12765957,-441.74756,100.66875,-0.030368142,-0.07848209,-0.15442944,0.0,2.9360124E-6,0.0
365.92758,396.57263,8637424,0.83750004,0.12765957,-446.06158,192.8044,-0.030368142,-0.07848209,-0.15442944,0.0,2.9360124E-6,0.0
361.53217,398.41626,8637441,0.8625,0.12765957,-373.1442,206.85898,-0.030368142,-0.07848209,-0.15442944,0.0,2.9360124E-6,0.0
358.41052,400.26587,8637458,0.83750004,0.10638297,-237.40451,162.63419,-0.030368142,-0.07848209,-0.15442944,0.0,0.0,0.0
355.15497,406.03052,8637474,0.8625,0.09574468,-126.53839,219.75145,-0.030368142,-0.07848209,-0.15442944,0.0,0.0,0.0
353.07297,410.69348,8637491,0.85,0.08510638,-71.93795,329.8334,-0.030368142,-0.07848209,-0.15442944,0.0,0.0,0.0
351.93054,416.22583,8637508,0.83750004,0.08510638,-52.943676,403.9715,-0.030368142,-0.07848209,-0.15442944,0.0,0.0,0.0
351.8633,422.62122,8637524,0.825,0.06382979,-4.0183253,428.22028,-0.030368142,-0.07848209,-0.15442944,0.0,0.0,0.0
351.8633,428.21362,8637541,0.8125,0.08510638,53.33888,396.47504,-0.030368142,-0.07848209,-0.15442944,0.0,0.0,0.0
352.36316,434.65955,8637558,0.8125,0.08510638,76.30621,389.14145,-0.030368142,-0.07848209,-0.15442944,0.0,0.0,0.0
353.45932,440.20007,8637575,0.8125,0.09574468,85.97708,376.4685,-0.030368142,-0.07848209,-0.15442944,0.0,0.0,0.0
354.49344,446.60327,8637591,0.77500004,0.10638297,88.09238,365.65036,-0.030368142,-0.07848209,-0.15442944,2.9360124E-6,0.0,0.0
356.7214,454.29138,8637608,0.7625,0.12765957,118.89534,403.37546,-0.030368142,-0.07848209,-0.15442944,2.9360124E-6,0.0,0.0
359.2861,460.36597,8637625,0.7625,0.10638297,162.21054,420.9289,-0.030368142,-0.07848209,-0.15442944,2.9360124E-6,0.0,0.0
362.1103,467.22986,8637641,0.7625,0.08510638,197.36974,423.69385,-0.030368142,-0.07848209,-0.15442944,2.9360124E-6,0.0,0.0
364.44308,474.11633,8637658,0.75,0.09574468,197.68059,417.75317,-0.030368142,-0.07848209,-0.15442944,0.0,0.0,0.0
366.52118,478.18018,8637675,0.7625,0.08510638,156.331,343.21252,-0.030368142,-0.07848209,-0.15442944,0.0,0.0,0.0
369.08902,481.8562,8637692,0.75,0.09574468,133.71355,227.69464,-0.030368142,-0.07848209,-0.15442944,0.0,0.0,0.0
372.09308,485.57532,8637708,0.7375,0.08510638,145.21016,139.39046,-0.030368142,-0.07848209,-0.15442944,0.0,0.0,0.0
375.19748,489.25415,8637725,0.75,0.08510638,181.16728,128.19417,-0.030368142,-0.07848209,-0.15442944,0.0,0.0,0.0
378.3208,492.07703,8637742,0.75,0.08510638,206.462,160.93387,-0.030368142,-0.07848209,-0.15442944,0.0,0.0,0.0
381.97272,493.93713,8637758,0.7625,0.09574468,219.6176,140.09433,-0.030368142,-0.07848209,-0.15442944,0.0,0.0,0.0
386.13223,495.78552,8637775,0.7875,0.09574468,245.08597,89.10623,-0.030368142,-0.07848209,-0.15442944,0.0,0.0,0.0
389.17783,495.66113,8637792,0.8125,0.09574468,237.8693,13.954255,-0.030368142,-0.07848209,-0.15442944,-5.0084418E-5,5.0084418E-5,0.0
391.6323,495.66113,8637809,0.825,0.09574468,192.86548,-41.735844,-0.030368142,-0.07848209,-0.15442944,-5.0084418E-5,5.0084418E-5,0.0
394.43332,495.66113,8637825,0.825,0.09574468,145.2791,-60.06447,-0.030368142,-0.07848209,-0.15442944,-5.0084418E-5,5.0084418E-5,0.0
396.30444,495.66113,8637842,0.8125,0.08510638,103.19047,-42.195797,-0.030368142,-0.07848209,-0.15442944,-5.0084418E-5,5.0084418E-5,0.0
398.37704,495.66113,8637859,0.8,0.07446808,105.13346,-8.941813,-0.030368142,-0.07848209,-0.15442944,0.0,0.0,0.0
400.46103,495.66113,8637875,0.7875,0.08510638,108.29349,0.011910503,-0.030368142,-0.07848209,-0.15442944,0.0,0.0,0.0
402.53918,495.66113,8637892,0.7875,0.08510638,108.814964,0.041344248,-0.030368142,-0.07848209,-0.15442944,0.0,0.0,0.0
404.61588,494.7727,8637909,0.7875,0.08510638,118.884315,-26.342089,-0.030368142,-0.07848209,-0.15442944,0.0,0.0,0.0
406.18494,494.02698,8637926,0.77500004,0.08510638,108.34901,-46.963345,-0.024294514,0.0012143552,0.012456894,0.0,0.0,0.0
407.75635,493.88416,8637942,0.77500004,0.08510638,89.793526,-53.009556,-0.024294514,0.0012143552,0.012456894,0.0,0.0,0.0
409.3478,492.10144,8637959,0.7625,0.08510638,85.71542,-72.08956,-0.024294514,0.0012143552,0.012456894,0.0,0.0,0.0
410.93192,491.21863,8637976,0.75,0.08510638,82.91963,-82.30061,-0.024294514,0.0012143552,0.012456894,0.0,0.0,0.0
412.43002,491.21863,8637992,0.75,0.08510638,90.558464,-50.022408,-0.024294514,0.0012143552,0.012456894,0.0,0.0,0.0
413.9677,490.10876,8638009,0.75,0.08510638,93.23027,-31.393465,-0.024294514,0.0012143552,0.012456894,0.0,0.0,0.0
415.5055,490.3302,8638026,0.7625,0.09574468,91.316025,-5.2423434,-0.024294514,0.0012143552,0.012456894,0.0,0.0,0.0
417.5476,489.0846,8638042,0.6875,0.09574468,89.95871,-18.44653,-0.024294514,0.0012143552,0.012456894,0.0,0.0,0.0
421.3407,488.5531,8638055,0.3,0.10638297,156.98877,-52.452797,-0.024294514,0.0012143552,0.012456894,0.0,0.0,0.0
421.3407,488.5531,8638063,0.3,0.10638297,156.98877,-52.452797,-0.024294514,0.0012143552,0.012456894,0.0,0.0,0.0
385.35242,272.64685,8638346,0.95,0.10638297,0.0,0.0,-0.024294514,0.0012143552,0.012456894,0.0,0.0,0.0
385.35242,272.64685,8638377,0.975,0.10638297,0.011944138,0.008121759,-0.024294514,0.0012143552,0.012456894,0.0,0.0,0.0
385.35242,272.64685,8638393,0.9375,0.10638297,-0.009470659,-0.008774387,-0.024294514,0.0012143552,0.012456894,0.0,0.0,0.0
385.35242,272.64685,8638410,0.85,0.08510638,0.0022841927,6.603139E-4,-0.024294514,0.0012143552,0.012456894,0.0,0.0,0.0
385.35242,272.64685,8638427,0.71250004,0.09574468,0.0021828613,0.0019684515,-0.024294514,0.0012143552,0.012456894,0.0,0.0,0.0
389.50375,300.6587,8638444,0.7,0.08510638,126.61247,833.6445,-0.024294514,0.0012143552,0.012456894,0.0,0.0,0.0
393.20862,315.2179,8638460,0.6625,0.053191487,248.14441,1372.5107,-0.0034356117,0.0089714825,-0.0060338974,3.1757827E-5,-2.1171883E-5,0.0
400.0839,329.04248,8638477,0.6375,0.09574468,389.19452,1470.2795,-0.0034356117,0.0089714825,-0.0060338974,3.1757827E-5,-2.1171883E-5,0.0
401.3472,339.28455,8638483,0.3,0.10638297,425.90613,1506.2404,-0.0034356117,0.0089714825,-0.0060338974,3.1757827E-5,-2.1171883E-5,0.0
401.3472,339.28455,8638490,0.3,0.10638297,425.90613,1506.2404,-0.0034356117,0.0089714825,-0.0060338974,3.1757827E-5,-2.1171883E-5,0.0
472.3241,478.77966,8638894,0.71250004,0.07446808,0.0,0.0,-0.0034356117,0.0089714825,-0.0060338974,0.0,0.0,0.0
472.3241,478.77966,8638911,0.725,0.07446808,-0.0021306833,-0.017929228,-0.0034356117,0.0089714825,-0.0060338974,0.0,0.0,0.0
472.3241,478.77966,8638928,0.7375,0.07446808,0.008384114,0.010660036,-0.0034356117,0.0089714825,-0.0060338974,0.0,0.0,0.0
472.3241,478.77966,8638945,0.75,0.08510638,0.019472746,0.023190983,-0.0034356117,0.0089714825,-0.0060338974,0.0,0.0,0.0
472.3241,478.77966,8638962,0.75,0.08510638,0.0070790155,0.0062442916,-0.0034356117,0.0089714825,-0.0060338974,0.0,0.0,0.0
472.3241,478.77966,8638978,0.7375,0.08510638,0.017365197,0.016615145,-0.018748492,-0.016822815,0.011172295,4.152149E-6,-4.152149E-6,0.0
472.3241,478.77966,8638994,0.7375,0.10638297,-0.030400958,-0.03132378,-0.018748492,-0.016822815,0.011172295,4.152149E-6,-4.152149E-6,0.0
473.69305,467.82922,8639012,0.75,0.12765957,29.250546,-233.85432,-0.018748492,-0.016822815,0.011172295,4.152149E-6,-4.152149E-6,0.0
476.5913,451.10388,8639028,0.7625,0.09574468,133.41191,-878.93994,-0.018748492,-0.016822815,0.011172295,4.152149E-6,-4.152149E-6,0.0
478.6493,436.62402,8639045,0.77500004,0.08510638,195.7438,-1261.3201,-0.018748492,-0.016822815,0.011172295,4.152149E-6,-4.152149E-6,0.0
479.78253,424.11,8639062,0.7625,0.09574468,173.45526,-1264.0917,-0.018748492,-0.016822815,0.011172295,0.0,0.0,0.0
481.32227,414.7975,8639079,0.77500004,0.12765957,105.647125,-838.7211,-0.018748492,-0.016822815,0.011172295,0.0,0.0,0.0
482.3628,405.54956,8639095,0.77500004,0.11702127,33.426037,-388.13226,-0.018748492,-0.016822815,0.011172295,0.0,0.0,0.0
483.40344,399.2605,8639112,0.8,0.11702127,40.627403,-351.18576,-0.018748492,-0.016822815,0.011172295,0.0,0.0,0.0
483.3205,393.66943,8639129,0.77500004,0.09574468,17.629883,-236.31697,-0.018748492,-0.016822815,0.011172295,0.0,0.0,0.0
483.3205,390.53394,8639145,0.77500004,0.09574468,-12.292545,-172.02628,-0.018748492,-0.016822815,0.011172295,0.0,0.0,0.0
483.3205,387.80017,8639162,0.825,0.09574468,-31.555965,-83.70476,-0.018748492,-0.016822815,0.011172295,0.0,0.0,0.0
483.3205,385.9629,8639179,0.825,0.09574468,-23.743898,-29.602108,-0.018748492,-0.016822815,0.011172295,0.0,0.0,0.0
483.3205,385.48682,8639195,0.83750004,0.09574468,-5.059638,10.864748,-0.018748492,-0.016822815,0.011172295,0.0,0.0,0.0
483.3205,385.48682,8639212,0.85,0.09574468,0.026707213,52.045033,-0.018748492,-0.016822815,0.011172295,0.0,0.0,0.0
483.3205,385.48682,8639227,0.83750004,0.09574468,-0.02098186,61.1252,-0.018748492,-0.016822815,0.011172295,0.0,0.0,0.0
483.71533,387.07715,8639246,0.8,0.10638297,7.6282525,92.40377,-0.018748492,-0.016822815,0.011172295,0.0,0.0,0.0
484.75256,388.9209,8639262,0.7875,0.10638297,40.268547,129.73314,-0.018748492,-0.016822815,0.011172295,0.0,0.0,0.0
486.26465,391.60876,8639279,0.7375,0.12765957,83.90199,165.62723,-0.018748492,-0.016822815,0.011172295,0.0,0.0,0.0
488.34473,395.30615,8639296,0.725,0.10638297,135.92601,236.74284,-0.018748492,-0.016822815,0.011172295,0.0,0.0,0.0
492.5299,400.8744,8639312,0.725,0.09574468,218.99057,322.7249,-0.018748492,-0.016822815,0.011172295,2.9360124E-6,0.0,0.0
497.20227,408.38586,8639329,0.71250004,0.07446808,310.9063,455.2925,-0.018748492,-0.016822815,0.011172295,2.9360124E-6,0.0,0.0
501.38782,415.82593,8639346,0.7,0.053191487,338.0055,531.97546,-0.018748492,-0.016822815,0.011172295,2.9360124E-6,0.0,0.0
506.98706,426.12683,8639363,0.7,0.053191487,349.04626,601.2435,-0.018748492,-0.016822815,0.011172295,2.9360124E-6,0.0,0.0
510.2544,430.27966,8639379,0.7,0.08510638,295.1047,526.5194,-0.018748492,-0.016822815,0.011172295,0.0,0.0,0.0
513.28375,434.7627,8639396,0.725,0.08510638,205.60785,328.43362,-0.018748492,-0.016822815,0.011172295,0.0,0.0,0.0
516.37775,438.91772,8639413,0.725,0.09574468,178.68755,209.61436,-0.018748492,-0.016822815,0.011172295,0.0,0.0,0.0
518.465,442.62817,8639429,0.725,0.12765957,122.88129,138.29692,-0.018748492,-0.016822815,0.011172295,0.0,0.0,0.0
520.542,445.66833,8639446,0.725,0.12765957,96.66133,141.53796,-0.018748492,-0.016822815,0.011172295,0.0,0.0,0.0
523.0919,450.66113,8639463,0.71250004,0.12765957,96.94086,187.30766,-0.018748492,-0.016822815,0.011172295,0.0,0.0,0.0
524.25226,453.7063,8639480,0.7,0.12765957,79.99219,204.63966,-0.018748492,-0.016822815,0.011172295,0.0,0.0,0.0
525.79333,459.16138,8639496,0.6875,0.10638297,83.85292,269.19308,-0.018748492,-0.016822815,0.011172295,0.0,0.0,0.0
526.3065,462.87402,8639513,0.675,0.08510638,42.580036,283.4887,0.017001204,-0.013458252,0.024938583,0.0,0.0,0.0
526.80634,466.5714,8639530,0.6875,0.08510638,6.6427207,252.62201,0.017001204,-0.013458252,0.024938583,0.0,0.0,0.0
526.80634,470.28027,8639546,0.7,0.07446808,-17.601622,215.11327,0.017001204,-0.013458252,0.024938583,0.0,0.0,0.0
525.651,474.00232,8639563,0.71250004,0.07446808,-57.55402,204.72736,0.017001204,-0.013458252,0.024938583,0.0,0.0,0.0
525.0989,475.5952,8639580,0.7,0.07446808,-77.93229,143.0657,0.017001204,-0.013458252,0.024938583,0.0,0.0,0.0
523.8644,478.28467,8639597,0.71250004,0.07446808,-86.68856,123.077065,0.017001204,-0.013458252,0.024938583,0.0,0.0,0.0
521.7876,480.1305,8639613,0.71250004,0.06382979,-116.26278,89.48904,0.017001204,-0.013458252,0.024938583,0.0,0.0,0.0
520.20544,481.98096,8639630,0.725,0.06382979,-130.86258,82.12839,0.017001204,-0.013458252,0.024938583,0.0,0.0,0.0
518.128,483.22217,8639647,0.71250004,0.06382979,-143.82065,83.72021,0.017001204,-0.013458252,0.024938583,0.0,2.9360124E-6,0.0
516.048,483.89905,8639663,0.725,0.06382979,-135.3992,33.133904,0.017001204,-0.013458252,0.024938583,0.0,2.9360124E-6,0.0
513.9702,484.99915,8639680,0.75,0.06382979,-129.28235,34.437702,0.017001204,-0.013458252,0.024938583,0.0,2.9360124E-6,0.0
512.35406,485.8877,8639697,0.7375,0.08510638,-124.19886,34.255924,0.017001204,-0.013458252,0.024938583,0.0,2.9360124E-6,0.0
510.8111,486.7766,8639714,0.75,0.08510638,-95.324745,39.248016,0.017001204,-0.013458252,0.024938583,0.0,0.0,0.0
509.2755,488.61816,8639730,0.75,0.08510638,-81.82727,79.88205,0.017001204,-0.013458252,0.024938583,0.0,0.0,0.0
508.8122,488.5531,8639747,0.6375,0.053191487,-51.201164,55.953354,0.017001204,-0.013458252,0.024938583,0.0,0.0,0.0
508.8122,488.5531,8639754,0.2875,0.08510638,-32.97889,40.38401,0.017001204,-0.013458252,0.024938583,0.0,0.0,0.0
508.8122,488.5531,8639761,0.2875,0.08510638,-32.97889,40.38401,0.017001204,-0.013458252,0.024938583,0.0,0.0,0.0
542.80115,413.91882,8639988,0.77500004,0.10638297,0.0,0.0,0.017001204,-0.013458252,0.024938583,0.0,0.0,0.0
542.80115,413.91882,8640014,0.7875,0.10638297,-0.028743643,-0.019006496,0.017001204,-0.013458252,0.024938583,0.0,0.0,0.0
542.80115,413.91882,8640035,0.8,0.10638297,-0.0061218916,-0.0039285077,0.013600964,0.04523337,0.06795025,0.0,0.0,0.0
542.80115,413.91882,8640081,0.7875,0.12765957,-0.0015123656,0.003064224,0.013600964,0.04523337,0.06795025,5.085323E-6,-5.085323E-6,0.0
542.80115,413.91882,8640098,0.8,0.12765957,0.011747083,0.014474408,0.013600964,0.04523337,0.06795025,5.085323E-6,-5.085323E-6,0.0
542.80115,413.91882,8640115,0.7875,0.12765957,0.105890915,0.082176246,0.013600964,0.04523337,0.06795025,5.085323E-6,-5.085323E-6,0.0
542.80115,413.91882,8640131,0.8125,0.12765957,0.0033517303,0.0033070685,0.013600964,0.04523337,0.06795025,0.0,0.0,0.0
542.80115,413.91882,8640148,0.8125,0.10638297,0.012061834,0.010463217,0.013600964,0.04523337,0.06795025,0.0,0.0,0.0
542.80115,413.91882,8640165,0.8,0.10638297,0.015589067,0.011398874,0.013600964,0.04523337,0.06795025,0.0,0.0,0.0
542.80115,413.91882,8640176,0.8125,0.10638297,0.04630759,0.034134213,0.013600964,0.04523337,0.06795025,0.0,0.0,0.0
542.80115,413.91882,8640198,0.8125,0.10638297,0.01018899,0.008008265,0.013600964,0.04523337,0.06795025,0.0,0.0,0.0
542.80115,413.91882,8640209,0.8125,0.09574468,0.045863986,0.035054136,0.013600964,0.04523337,0.06795025,0.0,0.0,0.0
560.0467,402.9784,8640232,0.8,0.09574468,581.4884,-367.9761,0.013600964,0.04523337,0.06795025,0.0,0.0,0.0
566.0684,400.13232,8640248,0.8125,0.10638297,817.8684,-488.2747,0.013600964,0.04523337,0.06795025,0.0,0.0,0.0
569.14355,398.81433,8640265,0.825,0.10638297,578.7774,-318.47073,0.013600964,0.04523337,0.06795025,0.0,3.355443E-6,0.0
571.45245,398.81433,8640282,0.8,0.10638297,138.87524,0.30830607,0.013600964,0.04523337,0.06795025,0.0,3.355443E-6,0.0
573.0405,398.81433,8640298,0.8,0.12765957,-117.16894,170.65971,0.013600964,0.04523337,0.06795025,0.0,3.355443E-6,0.0
574.6177,398.81433,8640315,0.7625,0.12765957,-6.126022,78.34965,0.013600964,0.04523337,0.06795025,0.0,3.355443E-6,0.0
575.7422,399.61707,8640332,0.7625,0.12765957,26.51869,55.352062,0.013600964,0.04523337,0.06795025,0.0,0.0,0.0
577.2819,401.47278,8640348,0.7375,0.12765957,47.762783,85.916084,0.013600964,0.04523337,0.06795025,0.0,0.0,0.0
579.396,405.2235,8640365,0.725,0.10638297,91.26546,184.04962,0.013600964,0.04523337,0.06795025,0.0,0.0,0.0
581.4444,410.78027,8640382,0.71250004,0.09574468,127.71211,329.7218,0.013600964,0.04523337,0.06795025,0.0,0.0,0.0
582.91724,417.50208,8640399,0.7,0.07446808,133.17091,450.01035,0.013600964,0.04523337,0.06795025,0.0,2.9360124E-6,0.0
583.96277,426.13574,8640415,0.7,0.08510638,98.821205,555.723,0.013600964,0.04523337,0.06795025,0.0,2.9360124E-6,0.0
583.78784,433.59204,8640432,0.7,0.08510638,20.405148,597.1595,0.013600964,0.04523337,0.06795025,0.0,2.9360124E-6,0.0
583.0609,439.1194,8640449,0.71250004,0.10638297,-62.687607,483.66263,0.013600964,0.04523337,0.06795025,0.0,0.0,0.0
582.02374,444.6504,8640465,0.71250004,0.12765957,-101.10487,356.5503,0.013600964,0.04523337,0.06795025,0.0,0.0,0.0
580.1781,451.63025,8640482,0.71250004,0.12765957,-129.8102,293.79446,0.013600964,0.04523337,0.06795025,0.0,0.0,0.0
578.4435,458.41187,8640499,0.7,0.09574468,-147.99881,356.06943,0.013600964,0.04523337,0.06795025,0.0,0.0,0.0
575.62854,464.85132,8640516,0.71250004,0.08510638,-165.3138,417.5489,0.013600964,0.04523337,0.06795025,0.0,0.0,0.0
572.9649,471.9431,8640532,0.71250004,0.08510638,-187.007,424.19473,0.013600964,0.04523337,0.06795025,0.0,0.0,0.0
570.42035,477.66333,8640549,0.7,0.06382979,-182.89763,380.94644,0.013600964,0.04523337,0.06795025,0.0,0.0,0.0
567.7776,482.36108,8640566,0.6875,0.053191487,-176.86893,315.11905,0.013600964,0.04523337,0.06795025,0.0,0.0,0.0
565.6944,486.0641,8640582,0.7,0.053191487,-150.41324,236.49603,-0.03711923,-0.0198133,-0.025639534,0.0,0.0,0.0
563.6142,488.71313,8640599,0.71250004,0.053191487,-119.41892,142.79942,-0.03711923,-0.0198133,-0.025639534,0.0,0.0,0.0
561.5218,490.573,8640616,0.71250004,0.07446808,-112.779205,63.918827,-0.03711923,-0.0198133,-0.025639534,0.0,0.0,0.0
559.9225,491.55017,8640633,0.7375,0.08510638,-92.4312,14.169141,-0.03711923,-0.0198133,-0.025639534,0.0,0.0,0.0
558.57666,492.10718,8640649,0.7625,0.08510638,-86.34883,-7.3320775,-0.03711923,-0.0198133,-0.025639534,0.0,0.0,0.0
557.5536,492.10718,8640666,0.7625,0.08510638,-60.464344,-28.127878,-0.03711923,-0.0198133,-0.025639534,0.0,0.0,0.0
556.54663,492.10718,8640682,0.77500004,0.08510638,-45.711502,-38.479256,-0.03711923,-0.0198133,-0.025639534,0.0,0.0,0.0
556.7966,492.10718,8640699,0.7875,0.08510638,-5.6020274,-33.123287,-0.03711923,-0.0198133,-0.025639534,0.0,0.0,0.0
556.7966,491.38965,8640733,0.77500004,0.08510638,31.40624,-14.579427,-0.03711923,-0.0198133,-0.025639534,0.0,0.0,0.0
556.7966,489.886,8640747,0.77500004,0.08510638,32.91378,-59.880337,-0.03711923,-0.0198133,-0.025639534,0.0,0.0,0.0
556.7966,488.58557,8640766,0.77500004,0.06382979,6.36479,-103.46881,-0.03711923,-0.0198133,-0.025639534,0.0,0.0,0.0
556.7966,486.7422,8640783,0.77500004,0.06382979,-0.0027596615,-129.04851,-0.03711923,-0.0198133,-0.025639534,0.0,0.0,0.0
556.7966,484.8938,8640800,0.7875,0.06382979,-0.012346066,-116.07205,-0.03711923,-0.0198133,-0.025639534,0.0,0.0,0.0
558.5006,483.0404,8640816,0.7875,0.08510638,50.780785,-121.2489,-0.03711923,-0.0198133,-0.025639534,0.0,0.0,0.0
560.59735,481.17676,8640833,0.8,0.08510638,115.68664,-124.75354,-0.03711923,-0.0198133,-0.025639534,0.0,0.0,0.0
564.09485,479.31238,8640850,0.8,0.08510638,209.62892,-110.82291,-0.03711923,-0.0198133,-0.025639534,0.0,0.0,0.0
568.157,479.6681,8640867,0.825,0.08510638,279.08762,-53.369236,-0.03711923,-0.0198133,-0.025639534,0.0,0.0,0.0
572.24207,479.6681,8640883,0.7875,0.08510638,313.6993,20.499092,-0.03711923,-0.0198133,-0.025639534,0.0,0.0,0.0
576.17474,480.19202,8640900,0.77500004,0.08510638,302.6053,62.187378,-0.03711923,-0.0198133,-0.025639534,0.0,0.0,0.0
580.1013,482.02808,8640917,0.8,0.09574468,261.11,112.52696,-0.03711923,-0.0198133,-0.025639534,9.7376505E-6,-9.7376505E-6,0.0
583.7704,483.88074,8640933,0.8,0.09574468,217.38443,141.74792,-0.03711923,-0.0198133,-0.025639534,9.7376505E-6,-9.7376505E-6,0.0
587.9413,486.6228,8640950,0.7625,0.09574468,220.92949,190.23538,-0.03711923,-0.0198133,-0.025639534,9.7376505E-6,-9.7376505E-6,0.0
593.0374,490.1543,8640967,0.7625,0.08510638,264.9007,225.05573,-0.03711923,-0.0198133,-0.025639534,9.7376505E-6,-9.7376505E-6,0.0
597.75543,492.98328,8640983,0.77500004,0.08510638,308.88812,232.79282,-0.03711923,-0.0198133,-0.025639534,0.0,0.0,0.0
602.9013,495.71436,8641000,0.7625,0.09574468,329.10855,207.5121,-0.03711923,-0.0198133,-0.025639534,0.0,0.0,0.0
609.1313,498.45166,8641017,0.7875,0.09574468,361.82623,175.31508,-0.03711923,-0.0198133,-0.025639534,0.0,0.0,0.0
615.9508,500.3031,8641034,0.77500004,0.09574468,400.57678,122.69192,-0.03711923,-0.0198133,-0.025639534,0.0,0.0,0.0
622.27167,500.10364,8641050,0.7875,0.09574468,416.96127,33.549145,-0.03711923,-0.0198133,-0.025639534,0.0,0.0,0.0
626.5309,500.9922,8641067,0.77500004,0.10638297,364.51813,-5.725601,-0.03711923,-0.0198133,-0.025639534,0.0,0.0,0.0
630.68475,500.9922,8641084,0.7875,0.10638297,251.47658,-37.5197,-0.03711923,-0.0198133,-0.025639534,0.0,0.0,0.0
634.0738,500.9922,8641100,0.7625,0.11702127,174.94965,-28.8576,-0.03711923,-0.0198133,-0.025639534,0.0,0.0,0.0
637.9275,500.10364,8641117,0.75,0.11702127,158.97849,-42.341557,-0.029695382,1.4933944E-4,0.043488503,1.2456443E-5,-1.2456443E-5,0.0
641.3144,498.59607,8641134,0.71250004,0.09574468,179.50583,-88.07436,-0.029695382,1.4933944E-4,0.043488503,1.2456443E-5,-1.2456443E-5,0.0
644.0231,496.76746,8641151,0.71250004,0.08510638,174.33322,-125.22147,-0.029695382,1.4933944E-4,0.043488503,1.2456443E-5,-1.2456443E-5,0.0
646.6223,494.9016,8641167,0.6875,0.08510638,151.27866,-153.15514,-0.029695382,1.4933944E-4,0.043488503,1.2456443E-5,-1.2456443E-5,0.0
648.1963,493.05835,8641184,0.675,0.08510638,101.70102,-146.3959,-0.029695382,1.4933944E-4,0.043488503,0.0,0.0,0.0
649.2732,491.20667,8641201,0.38750002,0.08510638,49.39755,-123.951126,-0.029695382,1.4933944E-4,0.043488503,0.0,0.0,0.0
649.2732,491.20667,8641208,0.38750002,0.08510638,49.39755,-123.951126,-0.029695382,1.4933944E-4,0.043488503,0.0,0.0,0.0
540.30194,446.79346,8641434,0.7625,0.09574468,0.0,0.0,-0.029695382,1.4933944E-4,0.043488503,0.0,2.9360124E-6,0.0
540.30194,446.79346,8641451,0.77500004,0.10638297,-0.20802912,-0.1791072,-0.029695382,1.4933944E-4,0.043488503,4.152149E-6,-4.152149E-6,0.0
540.30194,446.79346,8641468,0.7875,0.08510638,-0.007916279,-0.00437204,-0.029695382,1.4933944E-4,0.043488503,4.152149E-6,-4.152149E-6,0.0
540.30194,446.79346,8641485,0.7375,0.08510638,0.017043924,0.013386124,-0.029695382,1.4933944E-4,0.043488503,4.152149E-6,-4.152149E-6,0.0
540.30194,446.79346,8641501,0.71250004,0.07446808,0.02583032,0.02162518,-0.029695382,1.4933944E-4,0.043488503,4.152149E-6,-4.152149E-6,0.0
564.0683,444.12793,8641518,0.71250004,0.07446808,791.8273,-93.43872,-0.029695382,1.4933944E-4,0.043488503,0.0,0.0,0.0
573.9156,444.12793,8641535,0.71250004,0.08510638,1257.912,-107.11286,-0.029695382,1.4933944E-4,0.043488503,0.0,0.0,0.0
584.932,444.12793,8641552,0.6875,0.09574468,1201.8644,-53.164474,-0.029695382,1.4933944E-4,0.043488503,0.0,0.0,0.0
600.71484,445.01648,8641568,0.65000004,0.08510638,1000.203,32.207706,-0.029695382,1.4933944E-4,0.043488503,0.0,0.0,0.0
621.8554,442.88684,8641585,0.4625,0.09574468,855.62024,45.08191,-0.029695382,1.4933944E-4,0.043488503,0.0,0.0,0.0
625.7742,442.35095,8641586,0.2375,0.11702127,976.76385,14.942325,-0.029695382,1.4933944E-4,0.043488503,0.0,0.0,0.0
625.7742,442.35095,8641594,0.2375,0.11702127,976.76385,14.942325,-0.029695382,1.4933944E-4,0.043488503,0.0,0.0,0.0
724.24207,408.5879,8642182,0.7625,0.10638297,0.0,0.0,0.024243694,-0.031880558,-0.029209137,0.0,0.0,0.0
724.24207,408.5879,8642206,0.77500004,0.10638297,-6.943699E-4,-6.180493E-4,-0.036605045,-0.009504437,-0.007368088,0.0,0.0,0.0
724.24207,408.5879,8642237,0.7625,0.10638297,0.0018901802,3.421918E-4,-0.036605045,-0.009504437,-0.007368088,0.0,0.0,0.0
724.24207,408.5879,8642253,0.7625,0.10638297,-0.020178061,-0.011644175,-0.036605045,-0.009504437,-0.007368088,4.152149E-6,-4.152149E-6,0.0
724.24207,408.5879,8642270,0.75,0.10638297,-0.024577122,-0.014849636,-0.036605045,-0.009504437,-0.007368088,4.152149E-6,-4.152149E-6,0.0
724.24207,408.5879,8642287,0.77500004,0.12765957,-0.019858258,-0.01109131,-0.036605045,-0.009504437,-0.007368088,4.152149E-6,-4.152149E-6,0.0
724.24207,408.5879,8642304,0.7625,0.12765957,-0.0035643051,-4.4270192E-4,-0.036605045,-0.009504437,-0.007368088,4.152149E-6,-4.152149E-6,0.0
701.91974,407.69934,8642320,0.7625,0.12765957,-776.7103,-33.335598,-0.036605045,-0.009504437,-0.007368088,0.0,2.9360124E-6,0.0
694.25195,407.99548,8642337,0.7875,0.10638297,-985.4579,-26.29745,-0.036605045,-0.009504437,-0.007368088,0.0,2.9360124E-6,0.0
688.218,409.84448,8642354,0.7875,0.09574468,-862.44415,52.632027,-0.036605045,-0.009504437,-0.007368088,0.0,2.9360124E-6,0.0
683.76306,411.6942,8642370,0.7875,0.08510638,-403.57538,136.87332,-0.036605045,-0.009504437,-0.007368088,0.0,2.9360124E-6,0.0
680.1057,414.05286,8642387,0.7625,0.08510638,64.19521,190.25041,-0.036605045,-0.009504437,-0.007368088,0.0,0.0,0.0
676.7725,416.8628,8642404,0.77500004,0.08510638,-101.84311,195.4394,-0.036605045,-0.009504437,-0.007368088,0.0,0.0,0.0
672.9257,421.85583,8642421,0.7625,0.06382979,-124.008965,240.34814,-0.036605045,-0.009504437,-0.007368088,0.0,0.0,0.0
669.09503,428.4281,8642437,0.7625,0.06382979,-191.1303,378.2563,-0.036605045,-0.009504437,-0.007368088,0.0,0.0,0.0
666.8319,433.9751,8642454,0.75,0.08510638,-195.2689,447.13858,-0.036605045,-0.009504437,-0.007368088,0.0,0.0,0.0
665.77673,439.60217,8642471,0.725,0.08510638,-114.95518,439.41187,-0.036605045,-0.009504437,-0.007368088,0.0,0.0,0.0
665.2613,445.19006,8642487,0.7,0.10638297,-11.168141,366.20303,-0.036605045,-0.009504437,-0.007368088,0.0,0.0,0.0
665.2613,452.58582,8642504,0.7,0.10638297,59.644314,375.17365,-0.036605045,-0.009504437,-0.007368088,0.0,0.0,0.0
666.96576,459.9613,8642521,0.7,0.08510638,106.06438,446.5851,-0.036605045,-0.009504437,-0.007368088,0.0,0.0,0.0
669.0763,466.29504,8642538,0.7,0.08510638,154.85172,465.7925,-0.036605045,-0.009504437,-0.007368088,0.0,0.0,0.0
671.1958,471.9463,8642554,0.675,0.053191487,188.48868,404.8796,-0.036605045,-0.009504437,-0.007368088,0.0,0.0,0.0
673.92175,476.4043,8642571,0.675,0.06382979,201.02478,273.65436,-0.036605045,-0.009504437,-0.007368088,0.0,0.0,0.0
676.0407,479.70715,8642588,0.6875,0.06382979,169.18665,187.90295,-0.036605045,-0.009504437,-0.007368088,0.0,0.0,0.0
679.95386,483.39746,8642604,0.6875,0.06382979,184.20888,144.80545,-0.036605045,-0.009504437,-0.007368088,0.0,0.0,0.0
683.277,485.60425,8642621,0.71250004,0.07446808,223.00514,116.18815,-0.036605045,-0.009504437,-0.007368088,0.0,0.0,0.0
686.3614,487.4319,8642638,0.71250004,0.08510638,224.59991,77.17531,-0.036605045,-0.009504437,-0.007368088,0.0,0.0,0.0
689.0507,488.5531,8642655,0.7,0.08510638,205.74942,59.888763,-0.036605045,-0.009504437,-0.007368088,0.0,0.0,0.0
690.7084,488.5531,8642671,0.71250004,0.09574468,133.02356,-4.4688168,-0.036605045,-0.009504437,-0.007368088,0.0,0.0,0.0
691.74896,488.5531,8642688,0.7,0.08510638,55.585526,-49.31642,-0.036605045,-0.009504437,-0.007368088,0.0,0.0,0.0
693.28827,487.6006,8642705,0.7,0.08510638,38.789196,-70.39257,-0.036605045,-0.009504437,-0.007368088,0.0,0.0,0.0
695.3873,484.7577,8642721,0.675,0.08510638,61.24136,-143.42703,-0.029284034,-0.023603559,-0.005894661,0.0,0.0,0.0
700.2246,477.0476,8642738,0.6875,0.10638297,184.43732,-335.35614,-0.029284034,-0.023603559,-0.005894661,0.0,0.0,0.0
705.1173,467.4619,8642755,0.6875,0.10638297,311.83487,-596.1195,-0.029284034,-0.023603559,-0.005894661,0.0,0.0,0.0
709.7704,456.73682,8642771,0.71250004,0.08510638,354.38394,-752.9733,-0.029284034,-0.023603559,-0.005894661,0.0,0.0,0.0
715.4306,442.5796,8642788,0.7,0.06382979,401.33868,-954.6879,-0.029284034,-0.023603559,-0.005894661,0.0,0.0,0.0
718.28406,432.844,8642805,0.7,0.06382979,296.35608,-877.8872,-0.029284034,-0.023603559,-0.005894661,0.0,0.0,0.0
719.5549,425.58716,8642822,0.725,0.08510638,143.49274,-646.5564,-0.029284034,-0.023603559,-0.005894661,0.0,0.0,0.0
719.7435,420.67126,8642838,0.725,0.09574468,-22.717188,-329.50763,-0.029284034,-0.023603559,-0.005894661,0.0,0.0,0.0
719.35297,416.97278,8642855,0.725,0.09574468,-140.75453,-31.992453,-0.029284034,-0.023603559,-0.005894661,0.0,0.0,0.0
718.3141,414.04333,8642872,0.7375,0.10638297,-128.86938,-44.805088,-0.029284034,-0.023603559,-0.005894661,0.0,0.0,0.0
717.279,412.20337,8642888,0.75,0.10638297,-124.19779,-26.767122,-0.029284034,-0.023603559,-0.005894661,0.0,0.0,0.0
716.23785,410.35278,8642905,0.7375,0.10638297,-101.269066,-40.550346,-0.029284034,-0.023603559,-0.005894661,0.0,0.0,0.0
715.20917,410.36487,8642922,0.75,0.09574468,-82.1689,-1.5873173,-0.029284034,-0.023603559,-0.005894661,0.0,0.0,0.0
715.245,410.36487,8642945,0.7375,0.09574468,-21.540724,49.175385,-0.029284034,-0.023603559,-0.005894661,0.0,0.0,0.0
715.245,414.48303,8642972,0.725,0.08510638,26.331753,165.2956,-0.029284034,-0.023603559,-0.005894661,0.0,0.0,0.0
716.6503,421.58044,8642989,0.6625,0.06382979,68.44125,347.83444,-0.029284034,-0.023603559,-0.005894661,0.0,0.0,0.0
718.23175,428.9796,8643005,0.6625,0.053191487,109.99501,556.2378,-0.029284034,-0.023603559,-0.005894661,0.0,0.0,0.0
720.53357,436.6952,8643022,0.6625,0.07446808,157.25406,576.93604,-0.029284034,-0.023603559,-0.005894661,0.0,0.0,0.0
723.2201,444.66736,8643039,0.65000004,0.08510638,188.74309,589.7103,-0.029284034,-0.023603559,-0.005894661,0.0,0.0,0.0
727.5421,454.1881,8643056,0.675,0.08510638,236.66345,554.81036,-0.029284034,-0.023603559,-0.005894661,0.0,0.0,0.0
730.9323,462.05774,8643072,0.6875,0.09574468,274.967,550.72144,-0.029284034,-0.023603559,-0.005894661,0.0,0.0,0.0
734.54535,468.66248,8643089,0.6875,0.08510638,270.2174,488.79965,-0.029284034,-0.023603559,-0.005894661,0.0,0.0,0.0
738.15,472.4823,8643106,0.675,0.07446808,235.9235,322.81686,-0.029284034,-0.023603559,-0.005894661,0.0,0.0,0.0
742.2937,476.16528,8643122,0.7,0.08510638,229.67712,159.70633,-0.029284034,-0.023603559,-0.005894661,0.0,0.0,0.0
746.4706,479.87756,8643139,0.75,0.08510638,245.00865,97.77577,-0.029284034,-0.023603559,-0.005894661,0.0,0.0,0.0
751.2802,481.6394,8643156,0.7375,0.09574468,283.03806,85.363815,-0.029284034,-0.023603559,-0.005894661,0.0,0.0,0.0
756.6186,483.48486,8643173,0.725,0.08510638,312.40927,71.91035,-0.029284034,-0.023603559,-0.005894661,0.0,0.0,0.0
762.53046,484.1106,8643189,0.725,0.08510638,348.58688,37.03774,-0.029284034,-0.023603559,-0.005894661,2.9360124E-6,0.0,0.0
766.5862,484.1106,8643206,0.7,0.06382979,343.222,-27.144333,-0.029284034,-0.023603559,-0.005894661,2.9360124E-6,0.0,0.0
770.7493,484.1106,8643223,0.675,0.053191487,289.83395,-48.27677,-0.029284034,-0.023603559,-0.005894661,2.9360124E-6,0.0,0.0
775.7821,483.06628,8643239,0.6625,0.053191487,246.33553,-68.20269,-0.029284034,-0.023603559,-0.005894661,2.9360124E-6,0.0,0.0
779.88574,479.96863,8643256,0.625,0.07446808,252.4442,-153.93748,-0.03942723,-0.034882814,0.043284416,0.0,0.0,0.0
784.22253,474.33704,8643267,0.25,0.12765957,272.1778,-257.4965,-0.03942723,-0.034882814,0.043284416,0.0,0.0,0.0
784.22253,474.33704,8643274,0.25,0.12765957,272.1778,-257.4965,-0.03942723,-0.034882814,0.043284416,0.0,0.0,0.0
719.7435,294.85938,8643582,0.825,0.10638297,0.0,0.0,-0.03942723,-0.034882814,0.043284416,2.9360124E-6,0.0,0.0
719.7435,294.85938,8643606,0.85,0.10638297,-0.16963048,-0.07142509,-0.03942723,-0.034882814,0.043284416,0.0,0.0,0.0
719.7435,294.85938,8643622,0.83750004,0.10638297,-0.006946574,-0.003937984,-0.03942723,-0.034882814,0.043284416,0.0,0.0,0.0
719.7435,294.85938,8643640,0.75,0.10638297,0.051758323,0.021821428,-0.03942723,-0.034882814,0.043284416,0.0,0.0,0.0
719.7435,294.85938,8643657,0.6875,0.08510638,-0.012885573,-0.0061293547,-0.03942723,-0.034882814,0.043284416,0.0,0.0,0.0
725.4741,320.54272,8643674,0.625,0.053191487,179.09949,799.829,-0.03942723,-0.034882814,0.043284416,0.0,0.0,0.0
727.74097,337.50757,8643686,0.38750002,0.10638297,301.49744,1496.693,-0.03942723,-0.034882814,0.043284416,0.0,0.0,0.0
727.74097,337.50757,8643693,0.38750002,0.10638297,301.49744,1496.693,-0.03942723,-0.034882814,0.043284416,0.0,0.0,0.0
810.2141,475.2256,8644289,0.65000004,0.08510638,0.0,0.0,-0.0075417818,0.004093766,0.0026273727,0.0,0.0,0.0
810.2141,475.2256,8644309,0.675,0.08510638,-0.13765976,-0.07431964,-0.0075417818,0.004093766,0.0026273727,0.0,0.0,0.0
810.2141,475.2256,8644326,0.675,0.09574468,-0.019029872,-0.011764483,-0.030033424,-0.012724996,0.03410244,0.0,0.0,0.0
810.2141,475.2256,8644342,0.6875,0.09574468,-0.067877464,-0.041424852,-0.030033424,-0.012724996,0.03410244,0.0,0.0,0.0
810.2141,475.2256,8644359,0.7,0.08510638,-0.02315353,-0.009828818,-0.030033424,-0.012724996,0.03410244,0.0,0.0,0.0
810.2141,475.2256,8644376,0.7,0.08510638,-0.036510434,-0.018946363,-0.030033424,-0.012724996,0.03410244,0.0,0.0,0.0
810.2141,475.2256,8644392,0.6875,0.08510638,-0.14110261,-0.083416685,-0.030033424,-0.012724996,0.03410244,0.0,0.0,0.0
810.2141,475.2256,8644408,0.7,0.10638297,0.087295614,0.049756106,-0.030033424,-0.012724996,0.03410244,0.0,0.0,0.0
827.16125,444.85938,8644442,0.71250004,0.06382979,514.89734,-897.48175,-0.030033424,-0.012724996,0.03410244,0.0,0.0,0.0
831.5271,429.66333,8644459,0.7375,0.08510638,587.65967,-1298.6045,-0.030033424,-0.012724996,0.03410244,0.0,0.0,0.0
833.94714,419.06897,8644476,0.725,0.09574468,375.2084,-1184.0623,-0.030033424,-0.012724996,0.03410244,0.0,0.0,0.0
834.2063,409.70337,8644493,0.725,0.10638297,73.74073,-794.94147,-0.030033424,-0.012724996,0.03410244,0.0,0.0,0.0
832.82227,402.23206,8644509,0.725,0.09574468,-198.46875,-284.74686,-0.030033424,-0.012724996,0.03410244,0.0,0.0,0.0
830.74786,396.7008,8644526,0.725,0.08510638,-255.00641,-182.94597,-0.030033424,-0.012724996,0.03410244,0.0,0.0,0.0
828.395,392.5199,8644543,0.7375,0.08510638,-241.61308,-182.33275,-0.030033424,-0.012724996,0.03410244,0.0,0.0,0.0
824.96844,388.82678,8644559,0.7375,0.08510638,-241.07611,-126.76324,-0.030033424,-0.012724996,0.03410244,0.0,0.0,0.0
820.84454,385.76843,8644576,0.75,0.09574468,-264.0331,-96.478615,-0.030033424,-0.012724996,0.03410244,0.0,0.0,0.0
817.0837,384.59827,8644593,0.75,0.09574468,-284.71738,-72.3305,-0.030033424,-0.012724996,0.03410244,0.0,0.0,0.0
813.9324,384.59827,8644610,0.75,0.09574468,-259.95856,10.925114,-0.030033424,-0.012724996,0.03410244,0.0,0.0,0.0
811.51337,384.59827,8644626,0.7375,0.09574468,-178.2852,72.58573,-0.030033424,-0.012724996,0.03410244,0.0,0.0,0.0
809.78613,384.59827,8644643,0.725,0.09574468,-106.73652,91.73351,-0.030033424,-0.012724996,0.03410244,0.0,0.0,0.0
808.14813,387.5005,8644660,0.71250004,0.11702127,-60.85949,114.850334,-0.030033424,-0.012724996,0.03410244,0.0,0.0,0.0
808.8541,389.28882,8644676,0.725,0.11702127,3.9585245,156.09964,-0.030033424,-0.012724996,0.03410244,0.0,0.0,0.0
809.9014,391.1505,8644693,0.71250004,0.12765957,82.48835,181.59822,-0.030033424,-0.012724996,0.03410244,0.0,0.0,0.0
812.38837,392.89465,8644710,0.71250004,0.12765957,167.6497,168.60437,-0.030033424,-0.012724996,0.03410244,0.0,0.0,0.0
816.3411,394.7444,8644727,0.7375,0.10638297,262.98407,126.38396,-0.030033424,-0.012724996,0.03410244,0.0,0.0,0.0
820.20496,396.5879,8644743,0.75,0.10638297,317.309,97.05109,-0.030033424,-0.012724996,0.03410244,0.0,0.0,0.0
823.85095,398.43286,8644760,0.75,0.10638297,293.49332,106.82656,-0.030033424,-0.012724996,0.03410244,0.0,0.0,0.0
826.34973,400.27222,8644777,0.7625,0.10638297,226.44975,107.86772,-0.030033424,-0.012724996,0.03410244,0.0,0.0,0.0
828.4089,401.21387,8644793,0.7375,0.10638297,133.8325,82.94384,-0.030033424,-0.012724996,0.03410244,0.0,0.0,0.0
830.50464,403.07654,8644810,0.725,0.10638297,85.84632,76.07054,-0.030033424,-0.012724996,0.03410244,0.0,0.0,0.0
832.06464,404.01892,8644827,0.71250004,0.08510638,62.4805,62.913635,-0.030033424,-0.012724996,0.03410244,0.0,0.0,0.0
833.6863,405.88647,8644844,0.7,0.08510638,68.78951,78.079956,-0.030033424,-0.012724996,0.03410244,0.0,0.0,0.0
835.7455,407.73462,8644860,0.6875,0.08510638,98.77766,109.37835,-0.0080267405,-0.0101799965,0.027281761,0.0,0.0,0.0
837.8201,409.5785,8644877,0.675,0.08510638,114.055,122.32634,-0.0080267405,-0.0101799965,0.027281761,0.0,0.0,0.0
840.3005,414.08972,8644894,0.675,0.08510638,145.45764,205.30641,-0.0080267405,-0.0101799965,0.027281761,0.0,0.0,0.0
841.9856,418.22412,8644910,0.65000004,0.053191487,136.3564,265.58676,-0.0080267405,-0.0101799965,0.027281761,0.0,0.0,0.0
844.0492,422.53052,8644927,0.6625,0.06382979,124.203575,310.259,-0.0080267405,-0.0101799965,0.027281761,0.0,0.0,0.0
845.9187,427.12622,8644944,0.6625,0.06382979,111.71358,329.16138,-0.0080267405,-0.0101799965,0.027281761,0.0,0.0,0.0
847.2098,430.3767,8644961,0.6875,0.07446808,86.554214,254.36417,-0.0080267405,-0.0101799965,0.027281761,0.0,0.0,0.0
849.2908,435.037,8644977,0.6875,0.08510638,97.98525,246.45435,-0.0080267405,-0.0101799965,0.027281761,0.0,0.0,0.0
851.031,439.97058,8644994,0.675,0.08510638,101.27789,261.37265,-0.0080267405,-0.0101799965,0.027281761,0.0,2.9360124E-6,0.0
852.9386,443.6631,8645011,0.6875,0.10638297,111.22178,266.74384,-0.0080267405,-0.0101799965,0.027281761,0.0,2.9360124E-6,0.0
855.017,447.3578,8645027,0.6875,0.12765957,126.19899,245.65938,-0.0080267405,-0.0101799965,0.027281761,0.0,2.9360124E-6,0.0
857.10034,451.14844,8645044,0.6875,0.12765957,125.17228,216.00464,-0.0080267405,-0.0101799965,0.027281761,0.0,2.9360124E-6,0.0
859.67114,453.86963,8645061,0.6875,0.12765957,139.48476,164.816,-0.0080267405,-0.0101799965,0.027281761,2.9360124E-6,0.0,0.0
863.8213,457.56628,8645077,0.6875,0.10638297,208.61641,176.80472,-0.0080267405,-0.0101799965,0.027281761,2.9360124E-6,0.0,0.0
866.9232,461.27905,8645094,0.7,0.08510638,238.04417,199.04558,-0.0080267405,-0.0101799965,0.027281761,2.9360124E-6,0.0,0.0
870.6272,464.94812,8645111,0.6875,0.08510638,253.73573,220.12791,-0.0080267405,-0.0101799965,0.027281761,2.9360124E-6,0.0,0.0
874.777,468.63623,8645128,0.675,0.08510638,255.86276,238.828,-0.0080267405,-0.0101799965,0.027281761,0.0,0.0,0.0
880.1684,472.1056,8645144,0.6,0.053191487,252.06483,210.48044,-0.0080267405,-0.0101799965,0.027281761,0.0,0.0,0.0
888.1887,475.2256,8645157,0.3,0.08510638,410.5215,224.7472,-0.0080267405,-0.0101799965,0.027281761,0.0,0.0,0.0
888.1887,475.2256,8645165,0.3,0.08510638,410.5215,224.7472,-0.0080267405,-0.0101799965,0.027281761,0.0,0.0,0.0
917.17926,408.5879,8645366,0.6625,0.12765957,0.0,0.0,-0.0080267405,-0.0101799965,0.027281761,0.0,2.9360124E-6,0.0
917.17926,408.5879,8645395,0.7,0.12765957,0.08463217,0.038928,-0.006421393,0.007856011,0.0058250427,0.0,3.355443E-6,0.0
917.17926,408.5879,8645431,0.71250004,0.12765957,-0.0012326343,3.377885E-4,-0.006421393,0.007856011,0.0058250427,0.0,3.355443E-6,0.0
917.17926,408.5879,8645456,0.7,0.11702127,-0.026371032,-0.011974922,-0.006421393,0.007856011,0.0058250427,2.9360124E-6,0.0,0.0
917.17926,408.5879,8645479,0.71250004,0.10638297,0.032391265,0.013896325,-0.006421393,0.007856011,0.0058250427,2.9360124E-6,0.0,0.0
917.17926,408.5879,8645495,0.725,0.10638297,-0.010762611,-0.0047153938,-0.006421393,0.007856011,0.0058250427,2.9360124E-6,0.0,0.0
917.17926,408.5879,8645507,0.71250004,0.08510638,-5.7437015E-4,9.072279E-4,-0.006421393,0.007856011,0.0058250427,2.9360124E-6,0.0,0.0
917.17926,408.5879,8645529,0.7375,0.08510638,-0.04250457,-0.018934285,-0.006421393,0.007856011,0.0058250427,0.0,2.9360124E-6,0.0
917.17926,408.5879,8645545,0.725,0.06382979,0.03197309,0.015113008,-0.006421393,0.007856011,0.0058250427,0.0,2.9360124E-6,0.0
917.17926,408.5879,8645557,0.71250004,0.06382979,0.017847963,0.009483351,-0.006421393,0.007856011,0.0058250427,0.0,2.9360124E-6,0.0
905.2317,423.7577,8645579,0.6875,0.06382979,-313.6765,398.3087,-0.006421393,0.007856011,0.0058250427,0.0,2.9360124E-6,0.0
899.7773,431.5249,8645596,0.6875,0.07446808,-595.8893,772.5213,-0.006421393,0.007856011,0.0058250427,0.0,0.0,0.0
896.40155,439.42505,8645612,0.6875,0.08510638,-554.97766,837.47363,-0.006421393,0.007856011,0.0058250427,0.0,0.0,0.0
896.1861,443.5177,8645629,0.6875,0.09574468,-143.45607,464.07605,-0.006421393,0.007856011,0.0058250427,0.0,0.0,0.0
896.1861,447.85986,8645646,0.675,0.10638297,130.9109,172.43396,-0.006421393,0.007856011,0.0058250427,0.0,0.0,0.0
897.0888,452.49585,8645662,0.6625,0.10638297,265.4353,41.079506,-0.006421393,0.007856011,0.0058250427,0.0,0.0,0.0
898.1283,454.68835,8645679,0.65000004,0.10638297,166.41447,126.8762,-0.006421393,0.007856011,0.0058250427,0.0,0.0,0.0
900.14856,458.27954,8645696,0.675,0.09574468,136.8533,152.06145,-0.006421393,0.007856011,0.0058250427,0.0,0.0,0.0
903.72797,462.86523,8645712,0.675,0.08510638,200.86507,206.83128,-0.006421393,0.007856011,0.0058250427,0.0,0.0,0.0
908.4727,466.59875,8645729,0.6625,0.09574468,287.555,225.51796,-0.006421393,0.007856011,0.0058250427,0.0,0.0,0.0
913.72363,470.28064,8645746,0.675,0.09574468,357.61676,249.62901,-0.006421393,0.007856011,0.0058250427,0.0,0.0,0.0
918.9566,472.83655,8645763,0.675,0.08510638,386.28638,215.57927,-0.006421393,0.007856011,0.0058250427,0.0,0.0,0.0
923.5176,474.71033,8645779,0.675,0.08510638,353.22568,119.83386,-0.006421393,0.007856011,0.0058250427,0.0,0.0,0.0
928.7439,475.2256,8645796,0.6875,0.08510638,321.52585,42.89353,-0.006421393,0.007856011,0.0058250427,0.0,0.0,0.0
933.70233,474.76868,8645813,0.675,0.08510638,301.3596,-48.52766,-0.006421393,0.007856011,0.0058250427,0.0,0.0,0.0
938.1256,472.93213,8645829,0.6625,0.07446808,280.8157,-133.96835,-0.006421393,0.007856011,0.0058250427,0.0,0.0,0.0
944.0126,468.9995,8645846,0.65000004,0.08510638,296.83966,-229.61998,-0.006421393,0.007856011,0.0058250427,0.0,0.0,0.0
950.4213,463.45032,8645863,0.6625,0.10638297,355.8799,-365.2596,-0.006421393,0.007856011,0.0058250427,0.0,0.0,0.0
956.1687,456.3861,8645880,0.6625,0.10638297,391.43616,-471.57895,-0.006421393,0.007856011,0.0058250427,0.0,0.0,0.0
961.3921,448.9585,8645896,0.6875,0.08510638,375.06723,-541.5564,-0.006421393,0.007856011,0.0058250427,0.0,0.0,0.0
965.64526,441.5056,8645913,0.6875,0.08510638,303.16873,-554.52,-0.006421393,0.007856011,0.0058250427,0.0,0.0,0.0
970.3065,430.47913,8645930,0.7,0.09574468,238.39568,-613.78796,-0.0051371143,-0.025715172,-0.027339935,0.0,0.0,0.0
971.7368,424.17944,8645946,0.6875,0.09574468,151.12926,-573.4954,-0.0051371143,-0.025715172,-0.027339935,0.0,0.0,0.0
972.1614,418.63757,8645963,0.71250004,0.11702127,30.317917,-431.74625,-0.0051371143,-0.025715172,-0.027339935,0.0,0.0,0.0
971.4946,413.02917,8645980,0.71250004,0.12765957,-86.62709,-298.9649,-0.0051371143,-0.025715172,-0.027339935,0.0,0.0,0.0
970.41187,410.8092,8645997,0.725,0.12765957,-155.23628,-143.96465,-0.0051371143,-0.025715172,-0.027339935,0.0,0.0,0.0
966.604,406.94653,8646013,0.725,0.10638297,-212.68274,-129.4692,-0.0051371143,-0.025715172,-0.027339935,0.0,0.0,0.0
960.6221,403.36182,8646030,0.7375,0.10638297,-343.88663,-146.57973,-0.0051371143,-0.025715172,-0.027339935,0.0,0.0,0.0
953.5177,400.04553,8646047,0.7375,0.10638297,-494.318,-173.89478,-0.0051371143,-0.025715172,-0.027339935,0.0,0.0,0.0
947.2463,398.1991,8646063,0.75,0.09574468,-537.4341,-161.70793,-0.0051371143,-0.025715172,-0.027339935,0.0,0.0,0.0
941.2969,396.3711,8646080,0.75,0.09574468,-466.55286,-93.26399,-0.0051371143,-0.025715172,-0.027339935,0.0,0.0,0.0
936.4801,395.26025,8646097,0.7375,0.10638297,-349.26395,-46.104763,-0.0051371143,-0.025715172,-0.027339935,0.0,0.0,0.0
932.2885,395.26025,8646114,0.75,0.10638297,-247.8847,6.189783,-0.0051371143,-0.025715172,-0.027339935,0.0,0.0,0.0
929.1814,395.26025,8646130,0.75,0.11702127,-177.96613,34.893246,-0.0051371143,-0.025715172,-0.027339935,0.0,0.0,0.0
924.46515,395.26025,8646147,0.75,0.11702127,-179.00887,46.936913,-0.0051371143,-0.025715172,-0.027339935,0.0,0.0,0.0
921.4169,395.26025,8646164,0.7625,0.12765957,-186.77815,36.64669,-0.0051371143,-0.025715172,-0.027339935,0.0,0.0,0.0
918.27026,396.39087,8646180,0.7625,0.12765957,-186.48355,35.264732,-0.0051371143,-0.025715172,-0.027339935,0.0,0.0,0.0
916.9293,396.1488,8646196,0.7375,0.12765957,-132.39204,31.472708,-0.0051371143,-0.025715172,-0.027339935,4.7453127E-6,-4.7453127E-6,0.0
914.97784,400.062,8646214,0.71250004,0.12765957,-77.45739,128.50868,-0.0051371143,-0.025715172,-0.027339935,4.7453127E-6,-4.7453127E-6,0.0
914.18024,403.21936,8646230,0.7,0.12765957,-31.478739,221.98705,-0.0051371143,-0.025715172,-0.027339935,4.7453127E-6,-4.7453127E-6,0.0
915.239,406.9159,8646247,0.675,0.11702127,30.207792,284.7151,-0.0051371143,-0.025715172,-0.027339935,4.7453127E-6,-4.7453127E-6,0.0
917.3083,409.7057,8646264,0.675,0.09574468,132.14644,261.73206,-0.0051371143,-0.025715172,-0.027339935,0.0,0.0,0.0
921.4406,414.02124,8646281,0.675,0.08510638,264.43494,213.8687,-0.0051371143,-0.025715172,-0.027339935,0.0,0.0,0.0
926.6463,418.8733,8646297,0.6875,0.06382979,371.1085,274.13583,-0.0051371143,-0.025715172,-0.027339935,0.0,0.0,0.0
931.8255,422.5559,8646314,0.7,0.06382979,414.16486,281.84015,-0.0051371143,-0.025715172,-0.027339935,0.0,0.0,0.0
937.00116,425.40833,8646331,0.7,0.06382979,393.35004,243.37575,-0.0051371143,-0.025715172,-0.027339935,0.0,0.0,0.0
942.2281,426.3579,8646347,0.7,0.053191487,360.85294,113.9721,-0.0051371143,-0.025715172,-0.027339935,0.0,0.0,0.0
949.0498,426.3579,8646364,0.7,0.06382979,362.94022,-25.26779,-0.0051371143,-0.025715172,-0.027339935,0.0,0.0,0.0
954.628,424.4171,8646381,0.7,0.08510638,383.68808,-136.4147,-0.0051371143,-0.025715172,-0.027339935,0.0,0.0,0.0
960.4812,421.33533,8646398,0.6875,0.08510638,377.1453,-228.449,-0.0051371143,-0.025715172,-0.027339935,0.0,0.0,0.0
965.1245,417.67822,8646414,0.6875,0.11702127,321.91406,-293.11212,-0.0051371143,-0.025715172,-0.027339935,0.0,0.0,0.0
971.1139,412.813,8646431,0.6875,0.12765957,306.38278,-337.6342,-0.0051371143,-0.025715172,-0.027339935,0.0,0.0,0.0
976.6615,406.80798,8646448,0.6875,0.12765957,332.12604,-389.29398,-0.0051371143,-0.025715172,-0.027339935,0.0,0.0,0.0
980.23364,399.9474,8646464,0.71250004,0.09574468,299.5734,-457.71463,0.0038903083,0.011427879,0.010128021,0.0,0.0,0.0
982.79565,394.44885,8646481,0.7375,0.08510638,184.35388,-439.36703,0.0038903083,0.011427879,0.010128021,0.0,0.0,0.0
984.8738,388.9077,8646498,0.7375,0.06382979,65.21713,-379.67236,0.0038903083,0.011427879,0.010128021,0.0,0.0,0.0
986.42224,384.3346,8646515,0.7375,0.06382979,17.560286,-282.47644,0.0038903083,0.011427879,0.010128021,0.0,0.0,0.0
987.08203,381.30896,8646531,0.75,0.08510638,14.5057,-193.43849,0.0038903083,0.011427879,0.010128021,0.0,0.0,0.0
987.1565,378.40002,8646548,0.7375,0.08510638,-9.134145,-147.90384,0.0038903083,0.011427879,0.010128021,0.0,0.0,0.0
987.1565,376.54736,8646565,0.75,0.08510638,-36.97926,-87.68059,0.0038903083,0.011427879,0.010128021,0.0,0.0,0.0
987.7274,375.71326,8646581,0.75,0.08510638,-26.544321,-34.69875,0.0038903083,0.011427879,0.010128021,0.0,0.0,0.0
989.47864,375.71326,8646615,0.7625,0.08510638,53.062088,56.514595,0.0038903083,0.011427879,0.010128021,0.0,0.0,0.0
990.52466,377.81836,8646632,0.75,0.08510638,83.63783,120.195786,0.0038903083,0.011427879,0.010128021,0.0,0.0,0.0
993.08716,380.92444,8646648,0.7375,0.08510638,138.99687,201.28978,0.0038903083,0.011427879,0.010128021,0.0,0.0,0.0
995.9448,385.08643,8646665,0.7375,0.09574468,181.70392,278.24033,0.0038903083,0.011427879,0.010128021,0.0,0.0,0.0
1000.0548,390.11,8646682,0.725,0.10638297,263.53055,358.35132,0.0038903083,0.011427879,0.010128021,0.0,0.0,0.0
1004.3567,395.9082,8646698,0.71250004,0.10638297,293.97015,389.82516,0.0038903083,0.011427879,0.010128021,0.0,0.0,0.0
1008.26,401.67578,8646715,0.71250004,0.09574468,301.0511,408.29828,0.0038903083,0.011427879,0.010128021,0.0,0.0,0.0
1012.8368,408.17297,8646732,0.7,0.08510638,291.28687,418.44788,0.0038903083,0.011427879,0.010128021,0.0,0.0,0.0
1018.9264,419.7478,8646749,0.7,0.09574468,317.37433,552.91943,0.0038903083,0.011427879,0.010128021,0.0,0.0,0.0
1022.14,427.23438,8646765,0.6875,0.08510638,311.84445,636.55615,0.0038903083,0.011427879,0.010128021,0.0,0.0,0.0
1024.7207,431.8247,8646782,0.6875,0.09574468,210.60559,486.0108,0.0038903083,0.011427879,0.010128021,0.0,0.0,0.0
1027.3048,437.30676,8646799,0.6875,0.09574468,128.29869,327.17563,0.0038903083,0.011427879,0.010128021,0.0,0.0,0.0
1029.3916,442.12585,8646815,0.7,0.11702127,64.76336,181.35832,0.0038903083,0.011427879,0.010128021,0.0,0.0,0.0
1030.2734,445.4823,8646832,0.6875,0.12765957,38.065765,136.4128,0.0038903083,0.011427879,0.010128021,0.0,0.0,0.0
1030.6423,449.35962,8646849,0.7,0.12765957,19.8154,179.74097,0.0038903083,0.011427879,0.010128021,0.0,0.0,0.0
1031.1422,452.53613,8646865,0.7,0.12765957,-13.92226,179.60382,0.0038903083,0.011427879,0.010128021,0.0,0.0,0.0
1030.8717,454.86328,8646882,0.7,0.12765957,-32.18214,150.51863,0.0038903083,0.011427879,0.010128021,0.0,0.0,0.0
1029.828,457.12622,8646899,0.71250004,0.12765957,-63.717976,117.76024,0.0038903083,0.011427879,0.010128021,0.0,0.0,0.0
1028.7906,458.344,8646916,0.7,0.11702127,-93.488335,74.79863,0.0038903083,0.011427879,0.010128021,0.0,0.0,0.0
1026.8606,460.81677,8646932,0.7,0.11702127,-123.02167,69.441574,0.0038903083,0.011427879,0.010128021,0.0,0.0,0.0
1021.15186,464.3064,8646949,0.71250004,0.10638297,-228.45142,135.20454,0.0038903083,0.011427879,0.010128021,0.0,0.0,0.0
1011.9264,469.72986,8646966,0.725,0.08510638,-466.03806,255.84625,0.0038903083,0.011427879,0.010128021,0.0,0.0,0.0
1003.569,472.57825,8646982,0.725,0.08510638,-659.53107,310.96393,-0.004887753,-0.006857723,-0.007897377,2.9360124E-6,0.0,0.0
997.90234,474.42615,8646999,0.7375,0.08510638,-619.58044,222.94154,-0.004887753,-0.006857723,-0.007897377,2.9360124E-6,0.0,0.0
994.37537,476.2793,8647016,0.71250004,0.08510638,-384.4592,100.66684,-0.004887753,-0.006857723,-0.007897377,2.9360124E-6,0.0,0.0
991.87573,476.11414,8647033,0.4375,0.08510638,-124.83174,-17.619001,-0.004887753,-0.006857723,-0.007897377,2.9360124E-6,0.0,0.0
991.87573,476.11414,8647039,0.4375,0.08510638,-124.83174,-17.619001,-0.004887753,-0.006857723,-0.007897377,2.9360124E-6,0.0,0.0
