x,y,timestamp,pressure,fingerarea,velocityx,velocityy,accelx,accely,accelz,gyrox,gyroy,gyroz
143.931,559.6334,8649537,0.83750004,0.10638297,0.0,0.0,0.037549976,0.02957511,-0.04009819,0.0,0.0,0.0
143.931,559.6334,8649556,0.90000004,0.10638297,0.056970872,0.20911187,0.037549976,0.02957511,-0.04009819,0.0,0.0,0.0
143.931,559.6334,8649573,0.95,0.10638297,-0.008415701,-0.035083704,0.037549976,0.02957511,-0.04009819,0.0,0.0,0.0
143.931,559.6334,8649589,0.9875,0.10638297,0.0032450403,0.012168004,0.037549976,0.02957511,-0.04009819,0.0,0.0,0.0
143.931,559.6334,8649639,1.0,0.10638297,-7.205894E-4,-7.2947965E-4,0.037549976,0.02957511,-0.04009819,0.0,0.0,0.0
143.931,559.6334,8649656,1.0125,0.10638297,0.009762378,0.03510657,0.014039982,0.007660091,-7.8201294E-5,0.0,0.0,0.0
143.931,559.6334,8649673,1.0375,0.10638297,0.00680702,0.029875418,0.014039982,0.007660091,-7.8201294E-5,0.0,0.0,0.0
143.931,559.6334,8649686,1.0375,0.10638297,0.0076237344,0.032749236,0.014039982,0.007660091,-7.8201294E-5,0.0,0.0,0.0
143.931,559.6334,8649706,0.9875,0.08510638,0.013665361,0.051453896,0.014039982,0.007660091,-7.8201294E-5,0.0,0.0,0.0
142.73518,536.251,8649723,0.95,0.08510638,-31.418255,-614.42163,0.014039982,0.007660091,-7.8201294E-5,0.0,0.0,0.0
143.56332,522.86755,8649740,0.95,0.12765957,-21.145159,-1192.6204,0.014039982,0.007660091,-7.8201294E-5,0.0,0.0,0.0
145.09781,504.53503,8649756,0.975,0.09574468,41.42791,-1552.2689,0.014039982,0.007660091,-7.8201294E-5,0.0,0.0,0.0
146.64426,482.97107,8649773,0.9875,0.09574468,107.54453,-1666.0665,0.014039982,0.007660091,-7.8201294E-5,0.0,0.0,0.0
147.68472,465.81738,8649790,0.96250004,0.12765957,140.23924,-1263.7058,0.014039982,0.007660091,-7.8201294E-5,0.0,0.0,0.0
148.42953,447.63452,8649806,0.9875,0.09574468,92.840836,-1047.7484,0.014039982,0.007660091,-7.8201294E-5,0.0,0.0,0.0
149.26073,429.9419,8649823,0.9875,0.09574468,34.135998,-1057.3136,0.014039982,0.007660091,-7.8201294E-5,0.0,0.0,0.0
150.30408,413.25024,8649840,0.96250004,0.12765957,31.674917,-959.3354,0.014039982,0.007660091,-7.8201294E-5,0.0,0.0,0.0
151.74973,391.99377,8649857,0.975,0.09574468,58.86951,-1077.2003,0.014039982,0.007660091,-7.8201294E-5,0.0,0.0,0.0
154.27618,372.25745,8649873,1.0,0.09574468,116.880844,-1212.3483,0.014039982,0.007660091,-7.8201294E-5,0.0,0.0,0.0
156.9002,352.7854,8649890,0.96250004,0.12765957,174.66571,-1253.1978,0.014039982,0.007660091,-7.8201294E-5,0.0,0.0,0.0
158.46384,332.3308,8649907,0.9875,0.08510638,168.30534,-1266.2511,0.014039982,0.007660091,-7.8201294E-5,0.0,0.0,0.0
161.70068,314.95972,8649923,0.96250004,0.10638297,170.28612,-1151.8331,0.014039982,0.007660091,-7.8201294E-5,0.0,0.0,0.0
164.87065,296.43005,8649940,0.96250004,0.10638297,180.33879,-1072.337,0.014039982,0.007660091,-7.8201294E-5,0.0,0.0,0.0
167.34772,278.38135,8649957,0.95,0.08510638,185.64125,-1068.8126,0.014039982,0.007660091,-7.8201294E-5,0.0,0.0,0.0
170.48946,263.52332,8649974,0.95,0.09574468,201.25874,-975.3846,0.014039982,0.007660091,-7.8201294E-5,0.0,0.0,0.0
173.61348,251.93835,8649990,0.96250004,0.12765957,189.84525,-759.8624,0.014039982,0.007660091,-7.8201294E-5,0.0,0.0,0.0
175.95786,242.71643,8650007,0.975,0.10638297,167.08037,-505.38968,0.014039982,0.007660091,-7.8201294E-5,0.0,0.0,0.0
178.03334,235.47156,8650024,0.96250004,0.09574468,133.77397,-316.01147,0.014039982,0.007660091,-7.8201294E-5,0.0,0.0,0.0
179.76706,230.53992,8650040,0.975,0.08510638,94.50819,-195.83391,0.014039982,0.007660091,-7.8201294E-5,0.0,0.0,0.0
180.80463,228.42493,8650057,0.975,0.08510638,54.23676,-73.926605,0.014039982,0.007660091,-7.8201294E-5,0.0,0.0,0.0
181.843,226.5791,8650074,1.0,0.08510638,34.424973,33.057922,0.014039982,0.007660091,-7.8201294E-5,0.0,0.0,0.0
182.41847,225.55615,8650091,0.9875,0.08510638,24.057241,67.48234,0.014039982,0.007660091,-7.8201294E-5,0.0,0.0,0.0
182.91832,225.55615,8650107,0.9375,0.09574468,11.678633,62.089222,0.014039982,0.007660091,-7.8201294E-5,0.0,0.0,0.0
184.49722,227.47424,8650124,0.875,0.10638297,40.15328,103.85929,0.014039982,0.007660091,-7.8201294E-5,0.0,0.0,0.0
188.75586,234.15588,8650141,0.90000004,0.12765957,155.6459,297.7562,0.014039982,0.007660091,-7.8201294E-5,0.0,0.0,0.0
196.77493,249.51758,8650157,0.90000004,0.09574468,375.42197,720.8352,0.014039982,0.007660091,-7.8201294E-5,0.0,0.0,0.0
204.06488,264.3274,8650174,0.90000004,0.09574468,563.93634,1108.8186,0.014039982,0.007660091,-7.8201294E-5,0.0,0.0,0.0
209.7269,277.65332,8650191,0.8625,0.12765957,579.12665,1242.2731,-0.060768012,-0.08187193,-0.21606255,0.0,0.0,0.0
219.10706,295.21582,8650208,0.8625,0.10638297,514.05383,1116.623,-0.060768012,-0.08187193,-0.21606255,0.0,0.0,0.0
225.3642,305.84094,8650224,0.83750004,0.08510638,463.24033,888.6194,-0.060768012,-0.08187193,-0.21606255,0.0,0.0,0.0
233.44324,318.35803,8650241,0.83750004,0.08510638,456.99432,704.15,-0.060768012,-0.08187193,-0.21606255,0.0,0.0,0.0
242.27121,329.14697,8650258,0.8125,0.10638297,514.53156,632.5454,-0.060768012,-0.08187193,-0.21606255,0.0,0.0,0.0
251.36014,339.0686,8650274,0.8,0.12765957,531.304,521.917,-0.060768012,-0.08187193,-0.21606255,0.0,0.0,0.0
261.77222,347.6797,8650291,0.83750004,0.12765957,604.17334,468.37216,-0.060768012,-0.08187193,-0.21606255,0.0,0.0,0.0
270.38177,352.4115,8650308,0.825,0.09574468,632.5351,384.12393,-0.060768012,-0.08187193,-0.21606255,0.0,0.0,0.0
279.86664,354.38513,8650324,0.875,0.10638297,585.1192,128.43561,-0.060768012,-0.08187193,-0.21606255,0.0,0.0,0.0
288.3375,353.3999,8650341,0.90000004,0.10638297,535.23486,-103.91042,-0.060768012,-0.08187193,-0.21606255,0.0,0.0,0.0
298.7364,345.71667,8650358,0.90000004,0.10638297,549.7153,-438.19345,-0.060768012,-0.08187193,-0.21606255,0.0,0.0,0.0
307.55298,333.21765,8650375,0.9125,0.09574468,559.07874,-787.5608,-0.060768012,-0.08187193,-0.21606255,0.0,0.0,0.0
316.12042,317.20825,8650391,0.925,0.12765957,550.934,-1123.5653,-0.060768012,-0.08187193,-0.21606255,0.0,0.0,0.0
325.7104,296.67847,8650408,0.95,0.09574468,544.9891,-1419.2882,-0.060768012,-0.08187193,-0.21606255,0.0,0.0,0.0
333.3816,276.61243,8650425,0.9375,0.08510638,490.26932,-1482.6158,-0.060768012,-0.08187193,-0.21606255,0.0,0.0,0.0
337.45673,263.8119,8650441,0.95,0.09574468,354.60458,-1220.2692,-0.060768012,-0.08187193,-0.21606255,0.0,0.0,0.0
338.7007,256.063,8650458,0.9375,0.10638297,97.39364,-681.22955,-0.060768012,-0.08187193,-0.21606255,0.0,0.0,0.0
338.86755,250.37537,8650475,0.9375,0.10638297,-107.13453,-195.23886,-0.060768012,-0.08187193,-0.21606255,0.0,0.0,0.0
338.86755,246.3263,8650492,0.9375,0.10638297,-170.80603,11.132853,-0.060768012,-0.08187193,-0.21606255,0.0,0.0,0.0
337.92334,244.31335,8650508,0.95,0.10638297,-149.68198,52.330437,-0.060768012,-0.08187193,-0.21606255,0.0,0.0,0.0
337.38464,242.46729,8650525,0.9875,0.10638297,-99.099,25.026722,-0.060768012,-0.08187193,-0.21606255,0.0,0.0,0.0
336.33847,242.43774,8650542,1.0125,0.12765957,-81.66389,47.753654,-0.060768012,-0.08187193,-0.21606255,0.0,0.0,0.0
335.29892,243.45032,8650558,0.975,0.10638297,-79.68634,97.25789,-0.060768012,-0.08187193,-0.21606255,0.0,0.0,0.0
334.2535,246.40234,8650575,0.9125,0.09574468,-76.270004,177.75366,-0.060768012,-0.08187193,-0.21606255,0.0,0.0,0.0
332.58548,257.78467,8650592,0.875,0.08510638,-85.25605,467.9585,-0.060768012,-0.08187193,-0.21606255,0.0,0.0,0.0
331.8698,273.27417,8650609,0.8625,0.09574468,-86.19061,897.5847,-0.060768012,-0.08187193,-0.21606255,0.0,0.0,0.0
330.14243,294.38928,8650625,0.825,0.12765957,-82.54031,1397.3983,-0.060768012,-0.08187193,-0.21606255,0.0,0.0,0.0
328.6034,315.60583,8650642,0.825,0.08510638,-93.5421,1646.2092,-0.060768012,-0.08187193,-0.21606255,0.0,0.0,0.0
327.87112,333.76807,8650659,0.8,0.10638297,-79.81347,1495.2262,-0.060768012,-0.08187193,-0.21606255,0.0,0.0,0.0
328.37097,356.6737,8650675,0.8125,0.10638297,-17.726948,1368.2299,-0.060768012,-0.08187193,-0.21606255,0.0,0.0,0.0
328.37097,376.53772,8650692,0.8,0.07446808,37.102837,1278.9597,-0.060768012,-0.08187193,-0.21606255,0.0,0.0,0.0
328.8708,396.19592,8650709,0.8,0.12765957,75.24855,1188.4916,-0.060768012,-0.08187193,-0.21606255,0.0,0.0,0.0
330.26373,417.31934,8650726,0.7875,0.08510638,75.52414,1199.0659,0.0073855873,0.038502455,0.027150154,0.0,0.0,0.0
330.3703,433.50317,8650742,0.7875,0.08510638,59.24198,1099.7762,0.0073855873,0.038502455,0.027150154,0.0,0.0,0.0
331.4135,448.30103,8650759,0.7875,0.10638297,58.786594,931.19183,0.0073855873,0.038502455,0.027150154,0.0,0.0,0.0
333.526,461.98425,8650776,0.8,0.08510638,92.000084,784.0111,0.0073855873,0.038502455,0.027150154,0.0,0.0,0.0
336.0672,473.6195,8650792,0.7875,0.06382979,143.5973,613.4746,0.0073855873,0.038502455,0.027150154,0.0,0.0,0.0
338.82617,480.75464,8650809,0.8,0.06382979,188.92026,443.11026,0.0073855873,0.038502455,0.027150154,0.0,0.0,0.0
340.95737,484.81018,8650826,0.7625,0.08510638,198.23256,256.82138,0.0073855873,0.038502455,0.027150154,0.0,0.0,0.0
344.8206,490.25012,8650842,0.7,0.09574468,190.9591,73.50854,0.0073855873,0.038502455,0.027150154,0.0,0.0,0.0
352.86298,506.32324,8650855,0.55,0.12765957,303.56213,277.08966,0.0073855873,0.038502455,0.027150154,0.0,0.0,0.0
352.86298,506.32324,8650862,0.55,0.12765957,303.56213,277.08966,0.0073855873,0.038502455,0.027150154,0.0,0.0,0.0
400.84738,435.24292,8651120,0.8625,0.08510638,0.0,0.0,0.0073855873,0.038502455,0.027150154,0.0,0.0,0.0
400.84738,435.24292,8651143,0.95,0.08510638,-0.06730133,-0.07213012,0.0073855873,0.038502455,0.027150154,0.0,0.0,0.0
400.84738,435.24292,8651160,0.9875,0.08510638,-3.2003268E-4,-0.0017322196,0.0073855873,0.038502455,0.027150154,0.0,0.0,0.0
400.84738,435.24292,8651177,0.975,0.08510638,0.029833628,0.031885065,0.0073855873,0.038502455,0.027150154,0.0,0.0,0.0
400.84738,435.24292,8651193,0.9125,0.08510638,0.009234244,0.0115198465,0.0073855873,0.038502455,0.027150154,2.9360124E-6,0.0,0.0
400.84738,435.24292,8651210,0.875,0.08510638,-0.028783059,-0.029780116,0.0073855873,0.038502455,0.027150154,2.9360124E-6,0.0,0.0
400.84738,435.24292,8651222,0.85,0.08510638,0.021589333,0.023404948,0.0073855873,0.038502455,0.027150154,2.9360124E-6,0.0,0.0
426.40802,444.07788,8651244,0.85,0.11702127,597.44226,206.50266,0.0073855873,0.038502455,0.027150154,2.9360124E-6,0.0,0.0
431.77634,444.12793,8651260,0.8625,0.09574468,1069.6666,324.57666,0.02190847,0.030801952,0.021719933,0.0,0.0,0.0
440.41043,444.12793,8651277,0.8875,0.09574468,1030.3021,200.2999,0.02190847,0.030801952,0.021719933,0.0,0.0,0.0
447.93274,442.70618,8651294,0.9125,0.08510638,651.5607,-42.94036,0.02190847,0.030801952,0.021719933,0.0,0.0,0.0
453.68268,440.26074,8651310,0.9125,0.08510638,259.58084,-245.37425,0.02190847,0.030801952,0.021719933,0.0,0.0,0.0
457.43787,436.59473,8651327,0.90000004,0.08510638,64.19991,-334.29764,0.02190847,0.030801952,0.021719933,0.0,0.0,0.0
460.15887,432.87805,8651344,0.90000004,0.08510638,87.30753,-304.6683,0.02190847,0.030801952,0.021719933,0.0,0.0,0.0
462.69617,426.7461,8651360,0.9125,0.08510638,36.970425,-341.1172,0.02190847,0.030801952,0.021719933,0.0,0.0,0.0
464.32538,421.03406,8651377,0.8875,0.10638297,30.559267,-403.45303,0.02190847,0.030801952,0.021719933,0.0,0.0,0.0
464.82654,415.57166,8651394,0.90000004,0.10638297,20.21063,-404.39142,0.02190847,0.030801952,0.021719933,0.0,0.0,0.0
463.18317,410.99768,8651411,0.9125,0.10638297,-66.082405,-367.94907,0.02190847,0.030801952,0.021719933,0.0,0.0,0.0
460.982,408.17822,8651427,0.925,0.10638297,-167.72552,-236.3536,0.02190847,0.030801952,0.021719933,0.0,0.0,0.0
456.4217,404.765,8651444,0.95,0.10638297,-286.06998,-145.43822,0.02190847,0.030801952,0.021719933,0.0,0.0,0.0
449.8291,403.25684,8651461,0.95,0.12765957,-412.46622,-95.316154,0.02190847,0.030801952,0.021719933,0.0,0.0,0.0
442.4176,404.56482,8651477,0.9375,0.12765957,-533.9886,32.36764,0.02190847,0.030801952,0.021719933,0.0,0.0,0.0
435.42444,407.7815,8651494,0.9375,0.11702127,-556.22186,188.99084,0.02190847,0.030801952,0.021719933,0.0,0.0,0.0
429.28226,411.4707,8651511,0.96250004,0.11702127,-481.6208,346.58606,0.02190847,0.030801952,0.021719933,0.0,0.0,0.0
424.44153,416.04956,8651528,0.96250004,0.09574468,-344.5007,391.50885,0.02190847,0.030801952,0.021719933,0.0,0.0,0.0
418.46985,425.24158,8651544,0.95,0.08510638,-283.03424,479.81204,0.02190847,0.030801952,0.021719933,0.0,0.0,0.0
414.56516,434.7163,8651561,0.9375,0.08510638,-252.12804,630.0412,0.02190847,0.030801952,0.021719933,0.0,0.0,0.0
412.40863,441.28918,8651578,0.925,0.10638297,-165.07977,646.1891,0.02190847,0.030801952,0.021719933,0.0,0.0,0.0
411.84378,449.53613,8651594,0.875,0.12765957,-43.082047,546.4751,0.02190847,0.030801952,0.021719933,0.0,0.0,0.0
411.84378,460.68262,8651611,0.83750004,0.10638297,71.57292,555.0536,0.02190847,0.030801952,0.021719933,0.0,0.0,0.0
413.01224,471.68298,8651628,0.85,0.08510638,136.45903,637.0546,0.02190847,0.030801952,0.021719933,0.0,0.0,0.0
414.59348,482.55823,8651645,0.83750004,0.08510638,153.96613,754.78394,0.02190847,0.030801952,0.021719933,0.0,0.0,0.0
417.33328,491.20312,8651661,0.825,0.09574468,192.31992,699.5213,0.02190847,0.030801952,0.021719933,0.0,0.0,0.0
420.16418,495.86975,8651678,0.8,0.12765957,216.46838,428.80594,0.02190847,0.030801952,0.021719933,0.0,0.0,0.0
425.2922,501.3944,8651695,0.8,0.12765957,278.292,195.6459,0.02190847,0.030801952,0.021719933,0.0,0.0,0.0
433.8765,508.32922,8651711,0.8125,0.10638297,435.79645,195.04216,0.02190847,0.030801952,0.021719933,0.0,0.0,0.0
444.36047,514.2522,8651728,0.8125,0.08510638,650.614,315.57886,0.02190847,0.030801952,0.021719933,0.0,0.0,0.0
455.80896,517.6282,8651745,0.825,0.09574468,824.05054,336.63693,0.02190847,0.030801952,0.021719933,0.0,0.0,0.0
465.78766,518.7622,8651762,0.8125,0.10638297,813.8174,157.30727,0.02190847,0.030801952,0.021719933,0.0,0.0,0.0
485.19006,517.2656,8651778,0.77500004,0.10638297,872.10895,-82.20822,0.02190847,0.030801952,0.021719933,0.0,0.0,0.0
506.9464,509.16968,8651795,0.71250004,0.08510638,1259.729,-401.6249,0.0015267767,0.024641573,0.06537628,0.0,0.0,0.0
525.6978,497.20654,8651812,0.58750004,0.09574468,1443.3717,-766.9667,0.0015267767,0.024641573,0.06537628,0.0,0.0,0.0
528.8057,494.7727,8651819,0.3125,0.08510638,1393.5503,-848.27264,0.0015267767,0.024641573,0.06537628,0.0,0.0,0.0
528.8057,494.7727,8651827,0.3125,0.08510638,1393.5503,-848.27264,0.0015267767,0.024641573,0.06537628,0.0,0.0,0.0
461.8275,317.07202,8652093,0.9125,0.08510638,0.0,0.0,0.0015267767,0.024641573,0.06537628,0.0,0.0,0.0
461.8275,317.07202,8652112,0.9375,0.08510638,0.06471051,0.040100668,0.0015267767,0.024641573,0.06537628,0.0,0.0,0.0
461.8275,317.07202,8652129,0.9375,0.08510638,0.019357279,0.012961183,0.0015267767,0.024641573,0.06537628,0.0,0.0,0.0
461.8275,317.07202,8652146,0.8875,0.08510638,-0.0012989639,-0.0013538672,0.0015267767,0.024641573,0.06537628,0.0,0.0,0.0
460.50342,328.25208,8652163,0.85,0.09574468,-36.73117,310.00427,0.0015267767,0.024641573,0.06537628,0.0,0.0,0.0
460.2096,347.16345,8652179,0.75,0.10638297,-73.13387,1054.9834,0.0015267767,0.024641573,0.06537628,0.0,0.0,0.0
463.8418,367.76965,8652196,0.675,0.08510638,44.310364,1617.2361,0.0015267767,0.024641573,0.06537628,0.0,0.0,0.0
465.32635,372.15918,8652206,0.26250002,0.11702127,128.93643,1604.1876,0.0015267767,0.024641573,0.06537628,0.0,0.0,0.0
465.32635,372.15918,8652213,0.26250002,0.11702127,128.93643,1604.1876,0.0015267767,0.024641573,0.06537628,0.0,0.0,0.0
605.2808,400.5913,8652624,0.71250004,0.10638297,0.0,0.0,0.017221421,0.019713253,0.020300865,0.0,0.0,0.0
605.2808,400.5913,8652647,0.8,0.12765957,-0.09660499,-0.06384912,0.017221421,0.019713253,0.020300865,0.0,0.0,0.0
605.2808,400.5913,8652664,0.875,0.10638297,-0.0484681,-0.03187596,0.017221421,0.019713253,0.020300865,0.0,0.0,0.0
605.2808,400.5913,8652669,0.8875,0.12765957,0.044194236,0.029352281,0.017221421,0.019713253,0.020300865,0.0,0.0,0.0
605.2808,400.5913,8652713,0.875,0.12765957,0.0,0.0,0.017221421,0.019713253,0.020300865,0.0,0.0,0.0
605.2808,400.5913,8652747,0.8875,0.12765957,-0.048798025,-0.03185642,0.017221421,0.019713253,0.020300865,0.0,0.0,0.0
605.2808,400.5913,8652764,0.9125,0.12765957,0.012700845,0.009996874,0.017221421,0.019713253,0.020300865,0.0,0.0,0.0
605.2808,400.5913,8652781,0.925,0.12765957,-0.0036743241,-0.0014822466,0.017221421,0.019713253,0.020300865,0.0,0.0,0.0
605.2808,400.5913,8652797,0.925,0.12765957,0.012719567,0.007669786,0.017221421,0.019713253,0.020300865,2.9360124E-6,0.0,0.0
605.2808,400.5913,8652814,0.9125,0.12765957,-0.04698934,-0.032791533,0.017221421,0.019713253,0.020300865,2.9360124E-6,0.0,0.0
605.2808,400.5913,8652830,0.9125,0.12765957,-0.01737817,-0.012479831,0.017221421,0.019713253,0.020300865,2.9360124E-6,0.0,0.0
605.2808,400.5913,8652848,0.90000004,0.12765957,-0.03924588,-0.026389746,0.017221421,0.019713253,0.020300865,2.9360124E-6,0.0,0.0
605.2808,400.5913,8652862,0.8625,0.11702127,-0.037733685,-0.023364834,0.045777135,0.031770587,2.4032593E-4,0.0,0.0,0.0
605.2808,400.5913,8652881,0.85,0.09574468,-0.020193188,-0.013663216,0.045777135,0.031770587,2.4032593E-4,0.0,0.0,0.0
593.75684,422.86304,8652898,0.825,0.08510638,-396.58453,762.75916,0.045777135,0.031770587,2.4032593E-4,0.0,0.0,0.0
590.14624,430.24243,8652915,0.8125,0.09574468,-474.6236,926.4766,0.045777135,0.031770587,2.4032593E-4,0.0,0.0,0.0
587.6111,436.59924,8652931,0.825,0.09574468,-355.20502,755.39465,0.045777135,0.031770587,2.4032593E-4,0.0,0.0,0.0
584.5443,442.9994,8652948,0.825,0.10638297,-213.22552,494.1652,0.045777135,0.031770587,2.4032593E-4,0.0,0.0,0.0
582.0035,448.18835,8652965,0.83750004,0.12765957,-21.042154,100.39461,0.045777135,0.031770587,2.4032593E-4,0.0,0.0,0.0
579.18604,453.19653,8652981,0.8625,0.12765957,-131.27551,241.20169,0.045777135,0.031770587,2.4032593E-4,0.0,0.0,0.0
576.07086,457.4193,8652998,0.85,0.09574468,-173.18321,236.5748,0.045777135,0.031770587,2.4032593E-4,0.0,0.0,0.0
573.22906,461.12012,8653015,0.85,0.09574468,-187.12895,205.83514,0.045777135,0.031770587,2.4032593E-4,0.0,0.0,0.0
571.15027,464.8153,8653032,0.8625,0.08510638,-163.41585,191.66544,0.045777135,0.031770587,2.4032593E-4,0.0,0.0,0.0
569.4329,468.50696,8653048,0.875,0.08510638,-114.557755,186.20915,0.045777135,0.031770587,2.4032593E-4,0.0,0.0,0.0
568.3975,471.4856,8653065,0.8875,0.08510638,-51.66127,180.09088,0.045777135,0.031770587,2.4032593E-4,0.0,0.0,0.0
568.29285,473.33057,8653082,0.8875,0.08510638,-2.7856112,146.67966,0.045777135,0.031770587,2.4032593E-4,0.0,0.0,0.0
568.29285,474.33704,8653098,0.8875,0.08510638,34.319714,70.00022,0.045777135,0.031770587,2.4032593E-4,0.0,0.0,0.0
568.29285,474.33704,8653111,0.925,0.08510638,45.899563,0.5508459,0.045777135,0.031770587,2.4032593E-4,0.0,0.0,0.0
568.29285,474.33704,8653131,0.9375,0.08510638,39.362614,-64.419624,0.045777135,0.031770587,2.4032593E-4,0.0,0.0,0.0
568.29285,473.27576,8653149,0.9125,0.08510638,12.681632,-84.22503,0.045777135,0.031770587,2.4032593E-4,0.0,0.0,0.0
568.9248,471.43677,8653165,0.875,0.08510638,15.029288,-125.97006,0.045777135,0.031770587,2.4032593E-4,0.0,0.0,0.0
571.91974,468.44812,8653182,0.825,0.12765957,99.91256,-177.43127,0.045777135,0.031770587,2.4032593E-4,0.0,0.0,0.0
577.791,457.45337,8653199,0.8625,0.11702127,271.72424,-432.17395,0.045777135,0.031770587,2.4032593E-4,0.0,0.0,0.0
587.2876,437.4618,8653215,0.9125,0.09574468,565.4868,-1020.14075,0.045777135,0.031770587,2.4032593E-4,0.0,0.0,0.0
592.16046,424.13538,8653232,0.9125,0.11702127,621.9468,-1331.9377,0.045777135,0.031770587,2.4032593E-4,0.0,0.0,0.0
595.2501,414.61194,8653249,0.90000004,0.12765957,409.73834,-1125.415,0.045777135,0.031770587,2.4032593E-4,0.0,0.0,0.0
597.1529,408.16345,8653266,0.925,0.12765957,122.92804,-583.58405,0.045777135,0.031770587,2.4032593E-4,0.0,0.0,0.0
597.28345,406.08362,8653282,0.95,0.12765957,-85.91613,-45.813072,0.045777135,0.031770587,2.4032593E-4,0.0,0.0,0.0
597.28345,404.24,8653299,0.975,0.12765957,-129.68542,169.24704,0.045777135,0.031770587,2.4032593E-4,0.0,0.0,0.0
597.28345,402.8125,8653313,0.9875,0.12765957,-99.736404,136.47472,0.045777135,0.031770587,2.4032593E-4,0.0,0.0,0.0
597.28345,403.25684,8653332,0.975,0.12765957,-77.62116,144.63701,0.045777135,0.031770587,2.4032593E-4,0.0,0.0,0.0
597.84924,404.2627,8653349,0.925,0.12765957,-4.531506,94.25902,0.045777135,0.031770587,2.4032593E-4,0.0,0.0,0.0
598.8895,408.07812,8653366,0.875,0.10638297,47.713444,195.33665,0.045777135,0.031770587,2.4032593E-4,0.0,0.0,0.0
601.6986,415.39954,8653382,0.85,0.08510638,130.47397,402.06628,0.045777135,0.031770587,2.4032593E-4,0.0,0.0,0.0
605.49384,425.59314,8653399,0.8,0.06382979,226.41315,634.4266,0.02062171,0.041416466,0.03219223,0.0,0.0,0.0
609.7275,434.2622,8653416,0.7875,0.08510638,318.53674,762.84186,0.02062171,0.041416466,0.03219223,0.0,0.0,0.0
614.5662,443.75195,8653433,0.7625,0.10638297,346.64835,713.90564,0.02062171,0.041416466,0.03219223,0.0,0.0,0.0
620.0054,453.95947,8653449,0.7625,0.10638297,342.24963,605.17896,0.02062171,0.041416466,0.03219223,0.0,0.0,0.0
624.6458,462.55786,8653466,0.75,0.08510638,347.49374,579.7829,0.02062171,0.041416466,0.03219223,0.0,0.0,0.0
630.0641,471.51062,8653483,0.7375,0.07446808,329.00793,558.09467,0.02062171,0.041416466,0.03219223,0.0,0.0,0.0
636.289,480.7317,8653499,0.7375,0.08510638,350.78247,543.1526,0.02062171,0.041416466,0.03219223,0.0,0.0,0.0
642.062,488.25903,8653516,0.725,0.09574468,364.16385,466.90002,0.02062171,0.041416466,0.03219223,0.0,0.0,0.0
647.2541,497.41492,8653533,0.71250004,0.12765957,359.9835,470.79114,0.02062171,0.041416466,0.03219223,0.0,0.0,0.0
649.8384,504.80212,8653550,0.71250004,0.12765957,262.06854,492.21667,0.02062171,0.041416466,0.03219223,0.0,0.0,0.0
650.8478,510.31323,8653566,0.6875,0.10638297,79.69922,379.33362,0.02062171,0.041416466,0.03219223,0.0,0.0,0.0
650.147,516.94446,8653583,0.6875,0.09574468,-75.34327,328.2366,0.02062171,0.041416466,0.03219223,0.0,0.0,0.0
648.40906,523.5875,8653600,0.71250004,0.09574468,-182.92339,318.15546,0.02062171,0.041416466,0.03219223,0.0,0.0,0.0
642.0303,528.13184,8653616,0.6875,0.07446808,-326.4652,297.13983,0.02062171,0.041416466,0.03219223,0.0,0.0,0.0
632.1706,533.8081,8653633,0.75,0.06382979,-590.79285,333.6622,0.02062171,0.041416466,0.03219223,0.0,0.0,0.0
622.0333,536.1311,8653650,0.77500004,0.06382979,-790.62354,226.1281,0.02062171,0.041416466,0.03219223,0.0,0.0,0.0
613.5896,537.4208,8653667,0.8125,0.06382979,-793.63403,79.603745,0.02062171,0.041416466,0.03219223,0.0,0.0,0.0
606.6763,536.7977,8653683,0.83750004,0.08510638,-583.4145,-70.59124,0.02062171,0.041416466,0.03219223,0.0,0.0,0.0
601.70935,535.8336,8653700,0.85,0.09574468,-332.90182,-177.12038,0.02062171,0.041416466,0.03219223,0.0,0.0,0.0
598.4975,534.88245,8653717,0.85,0.09574468,-155.20251,-161.07338,0.02062171,0.041416466,0.03219223,0.0,0.0,0.0
596.8138,533.032,8653733,0.83750004,0.09574468,-35.645187,-149.98093,0.02062171,0.041416466,0.03219223,0.0,0.0,0.0
595.7719,531.17993,8653750,0.675,0.09574468,24.647705,-140.60622,0.02062171,0.041416466,0.03219223,0.0,0.0,0.0
595.28406,530.31274,8653758,0.35,0.11702127,47.712875,-137.25546,0.02062171,0.041416466,0.03219223,0.0,0.0,0.0
595.28406,530.31274,8653765,0.35,0.11702127,47.712875,-137.25546,0.02062171,0.041416466,0.03219223,0.0,0.0,0.0
658.26355,446.79346,8654049,0.85,0.08510638,0.0,0.0,0.01649737,-0.014866799,-0.006246567,0.0,0.0,0.0
658.26355,446.79346,8654068,0.875,0.08510638,0.040515423,0.027076866,0.01649737,-0.014866799,-0.006246567,0.0,0.0,0.0
658.26355,446.79346,8654084,0.8625,0.08510638,-0.042571817,-0.031423327,0.01649737,-0.014866799,-0.006246567,0.0,0.0,0.0
658.26355,446.79346,8654101,0.85,0.08510638,-0.047625262,-0.03352822,0.01649737,-0.014866799,-0.006246567,0.0,0.0,0.0
658.26355,446.79346,8654109,0.8625,0.08510638,0.03921566,0.026001617,0.01649737,-0.014866799,-0.006246567,0.0,0.0,0.0
675.8561,428.49182,8654185,0.875,0.08510638,639.3405,-568.244,0.01649737,-0.014866799,-0.006246567,0.0,0.0,0.0
681.5917,423.8092,8654201,0.875,0.08510638,158.70245,-90.56324,0.01649737,-0.014866799,-0.006246567,0.0,0.0,0.0
685.91003,420.95776,8654218,0.875,0.11702127,153.68002,-54.652294,0.01649737,-0.014866799,-0.006246567,0.0,0.0,0.0
690.04456,420.13843,8654235,0.875,0.09574468,163.89827,40.888,0.01649737,-0.014866799,-0.006246567,0.0,0.0,0.0
692.4763,420.13843,8654251,0.8625,0.09574468,112.37524,107.8127,0.01649737,-0.014866799,-0.006246567,0.0,0.0,0.0
695.32153,421.3645,8654268,0.83750004,0.09574468,82.63483,159.19926,0.01649737,-0.014866799,-0.006246567,0.0,0.0,0.0
698.3186,423.47693,8654285,0.825,0.09574468,112.61881,188.2518,0.01649737,-0.014866799,-0.006246567,0.0,0.0,0.0
701.44885,427.1864,8654302,0.8,0.08510638,149.00224,247.8622,0.01649737,-0.014866799,-0.006246567,0.0,0.0,0.0
704.83887,432.25366,8654318,0.7875,0.08510638,203.2601,327.65662,0.01649737,-0.014866799,-0.006246567,0.0,0.0,0.0
709.75836,442.02026,8654335,0.7625,0.09574468,259.27496,505.48227,0.01649737,-0.014866799,-0.006246567,0.0,0.0,0.0
713.2961,452.92603,8654352,0.75,0.10638297,275.79767,712.5535,0.01649737,-0.014866799,-0.006246567,0.0,0.0,0.0
714.7452,465.73047,8654368,0.75,0.08510638,203.22514,879.81757,0.01649737,-0.014866799,-0.006246567,0.0,0.0,0.0
714.3182,477.11475,8654385,0.75,0.06382979,39.334473,914.2499,0.01649737,-0.014866799,-0.006246567,0.0,0.0,0.0
712.85144,487.10168,8654402,0.7625,0.08510638,-136.8837,751.12714,0.01649737,-0.014866799,-0.006246567,0.0,0.0,0.0
710.7253,493.94067,8654419,0.77500004,0.10638297,-227.1844,519.81775,0.01649737,-0.014866799,-0.006246567,0.0,0.0,0.0
707.5394,500.4734,8654435,0.77500004,0.12765957,-246.98276,340.31958,0.01649737,-0.014866799,-0.006246567,0.0,0.0,0.0
704.48816,506.7859,8654452,0.77500004,0.12765957,-250.28146,264.8126,-0.0028021038,-0.011893421,-0.0049972534,0.0,0.0,0.0
700.9043,511.17493,8654469,0.7875,0.11702127,-255.3332,232.56401,-0.0028021038,-0.011893421,-0.0049972534,0.0,0.0,0.0
698.368,513.7711,8654485,0.7875,0.11702127,-221.43683,161.13597,-0.0028021038,-0.011893421,-0.0049972534,0.0,0.0,0.0
695.8439,516.45874,8654502,0.7875,0.08510638,-172.14546,100.63695,-0.0028021038,-0.011893421,-0.0049972534,0.0,0.0,0.0
693.26886,519.19165,8654519,0.7625,0.08510638,-130.4207,61.31447,-0.0028021038,-0.011893421,-0.0049972534,0.0,0.0,0.0
691.1907,521.0388,8654535,0.7875,0.08510638,-119.93908,92.17081,-0.0028021038,-0.011893421,-0.0049972534,0.0,0.0,0.0
689.10974,523.4602,8654552,0.7875,0.08510638,-120.392075,113.6322,-0.0028021038,-0.011893421,-0.0049972534,0.0,0.0,0.0
687.89886,524.09326,8654569,0.7875,0.08510638,-90.77671,86.08614,-0.0028021038,-0.011893421,-0.0049972534,0.0,0.0,0.0
685.963,524.09326,8654586,0.7875,0.08510638,-69.53254,3.4747047,-0.0028021038,-0.011893421,-0.0049972534,0.0,0.0,0.0
684.3188,524.9818,8654602,0.7875,0.08510638,-84.35524,-19.192245,-0.0028021038,-0.011893421,-0.0049972534,0.0,0.0,0.0
683.2828,524.9818,8654619,0.825,0.08510638,-77.7975,-27.757957,-0.0028021038,-0.011893421,-0.0049972534,0.0,0.0,0.0
682.2391,524.9818,8654636,0.825,0.08510638,-61.182205,-18.096392,-0.0028021038,-0.011893421,-0.0049972534,0.0,0.0,0.0
681.7559,524.9818,8654652,0.825,0.08510638,-34.29816,-1.8936104,-0.0028021038,-0.011893421,-0.0049972534,0.0,0.0,0.0
681.7559,523.9131,8654669,0.825,0.09574468,5.8419995,-39.159557,-0.0028021038,-0.011893421,-0.0049972534,0.0,0.0,0.0
681.7559,522.0465,8654686,0.8125,0.12765957,20.604538,-96.24812,-0.0028021038,-0.011893421,-0.0049972534,0.0,0.0,0.0
684.4033,515.4492,8654703,0.8125,0.12765957,90.95135,-252.89003,-0.0028021038,-0.011893421,-0.0049972534,0.0,0.0,0.0
686.18085,510.5177,8654719,0.8625,0.10638297,157.30911,-403.88354,-0.0028021038,-0.011893421,-0.0049972534,0.0,0.0,0.0
688.26086,506.31067,8654736,0.8875,0.09574468,188.23218,-438.23477,-0.0028021038,-0.011893421,-0.0049972534,0.0,0.0,0.0
690.3353,502.62317,8654753,0.875,0.09574468,175.55853,-321.566,-0.0028021038,-0.011893421,-0.0049972534,0.0,0.0,0.0
692.40546,499.52356,8654769,0.8875,0.09574468,132.8299,-183.79752,-0.0028021038,-0.011893421,-0.0049972534,0.0,0.0,0.0
695.1725,497.69543,8654786,0.875,0.09574468,128.67735,-84.66244,-0.0028021038,-0.011893421,-0.0049972534,0.0,0.0,0.0
698.44965,496.54968,8654803,0.8875,0.09574468,180.40921,-43.947777,-0.0028021038,-0.011893421,-0.0049972534,0.0,0.0,0.0
702.0783,496.54968,8654820,0.875,0.08510638,229.13731,14.801473,-0.0028021038,-0.011893421,-0.0049972534,0.0,0.0,0.0
705.69745,498.30408,8654836,0.875,0.10638297,249.89127,106.37308,-0.0028021038,-0.011893421,-0.0049972534,0.0,0.0,0.0
709.8562,500.15222,8654853,0.85,0.09574468,259.48248,169.71841,-0.0028021038,-0.011893421,-0.0049972534,0.0,0.0,0.0
714.5923,502.00403,8654870,0.825,0.10638297,275.79718,190.71759,-0.0028021038,-0.011893421,-0.0049972534,0.0,0.0,0.0
721.06226,505.8506,8654886,0.7875,0.10638297,346.30606,220.76457,-0.0028021038,-0.011893421,-0.0049972534,0.0,0.0,0.0
727.94006,509.59766,8654903,0.7625,0.10638297,426.8672,251.64613,-0.0028021038,-0.011893421,-0.0049972534,0.0,0.0,0.0
734.5374,513.20215,8654920,0.75,0.12765957,473.9035,268.54053,-0.0028021038,-0.011893421,-0.0049972534,0.0,0.0,0.0
742.0343,515.60767,8654937,0.71250004,0.11702127,486.6767,232.65857,-0.0028021038,-0.011893421,-0.0049972534,0.0,0.0,0.0
752.64075,517.4551,8654953,0.6875,0.11702127,556.23035,130.90414,-0.0028021038,-0.011893421,-0.0049972534,0.0,0.0,0.0
764.2765,519.3037,8654970,0.675,0.09574468,702.2696,68.5589,-0.0028021038,-0.011893421,-0.0049972534,0.0,0.0,0.0
774.37024,519.062,8654987,0.6375,0.08510638,753.01636,10.199852,-0.0028021038,-0.011893421,-0.0049972534,0.0,0.0,0.0
783.1325,517.19507,8655003,0.5125,0.10638297,689.523,-94.032295,0.013758317,-0.009514719,0.044002533,0.0,0.0,0.0
783.7227,516.9852,8655005,0.3125,0.10638297,657.8609,-108.31283,0.013758317,-0.009514719,0.044002533,0.0,0.0,0.0
783.7227,516.9852,8655013,0.3125,0.10638297,657.8609,-108.31283,0.013758317,-0.009514719,0.044002533,0.0,0.0,0.0
682.25574,469.0061,8655247,0.83750004,0.09574468,0.0,0.0,0.013758317,-0.009514719,0.044002533,0.0,0.0,0.0
682.25574,469.0061,8655271,0.85,0.10638297,0.016615536,0.01544947,0.013758317,-0.009514719,0.044002533,0.0,0.0,0.0
682.25574,469.0061,8655287,0.83750004,0.10638297,0.03484478,0.024811976,0.013758317,-0.009514719,0.044002533,0.0,0.0,0.0
682.25574,469.0061,8655304,0.83750004,0.11702127,0.0106058745,0.0075551015,0.013758317,-0.009514719,0.044002533,0.0,0.0,0.0
682.25574,469.0061,8655321,0.825,0.09574468,0.03196815,0.02085667,0.013758317,-0.009514719,0.044002533,0.0,0.0,0.0
708.0841,472.8568,8655338,0.7625,0.08510638,861.92645,127.66747,0.013758317,-0.009514719,0.044002533,0.0,0.0,0.0
718.5499,474.7096,8655354,0.75,0.07446808,1216.6952,190.86002,0.013758317,-0.009514719,0.044002533,0.0,0.0,0.0
731.23737,476.55798,8655371,0.6875,0.08510638,1169.2456,185.5359,0.013758317,-0.009514719,0.044002533,0.0,0.0,0.0
751.1946,479.29504,8655388,0.6375,0.08510638,982.4203,150.33324,0.013758317,-0.009514719,0.044002533,0.0,0.0,0.0
759.7305,479.6681,8655399,0.175,0.07446808,1052.6909,133.311,0.013758317,-0.009514719,0.044002533,0.0,0.0,0.0
759.7305,479.6681,8655406,0.175,0.07446808,1052.6909,133.311,0.013758317,-0.009514719,0.044002533,0.0,0.0,0.0
852.70026,428.1349,8655698,0.7,0.07446808,0.0,0.0,0.027006652,0.008388221,-0.028798103,0.0,0.0,0.0
852.70026,428.1349,8655722,0.8125,0.08510638,0.02527314,0.00883052,0.027006652,0.008388221,-0.028798103,0.0,0.0,0.0
852.70026,428.1349,8655739,0.83750004,0.08510638,0.02931392,0.016436879,0.027006652,0.008388221,-0.028798103,0.0,0.0,0.0
852.70026,428.1349,8655750,0.85,0.08510638,-0.02406038,-0.01182216,0.027006652,0.008388221,-0.028798103,0.0,0.0,0.0
852.70026,428.1349,8655770,0.8625,0.08510638,-0.014922215,-0.008135041,0.027006652,0.008388221,-0.028798103,0.0,0.0,0.0
852.70026,428.1349,8655802,0.85,0.08510638,0.077720135,0.038890835,0.027006652,0.008388221,-0.028798103,0.0,0.0,0.0
852.70026,428.1349,8655839,0.825,0.08510638,0.056097813,0.03002767,0.027006652,0.008388221,-0.028798103,0.0,0.0,0.0
833.092,435.46143,8655856,0.83750004,0.08510638,-722.9657,270.94125,0.027006652,0.008388221,-0.028798103,0.0,0.0,0.0
825.7095,439.0929,8655872,0.83750004,0.08510638,-1102.8165,446.93503,0.027006652,0.008388221,-0.028798103,0.0,0.0,0.0
819.7615,442.84827,8655889,0.825,0.11702127,-798.9295,381.2264,0.027006652,0.008388221,-0.028798103,0.0,0.0,0.0
814.6045,446.5149,8655906,0.825,0.12765957,-199.82321,210.02254,0.027006652,0.008388221,-0.028798103,0.0,0.0,0.0
809.86597,451.07422,8655922,0.7875,0.12765957,-117.94461,213.29155,0.027006652,0.008388221,-0.028798103,0.0,0.0,0.0
804.6712,456.61462,8655939,0.77500004,0.10638297,-101.548546,262.70023,0.027006652,0.008388221,-0.028798103,0.0,0.0,0.0
798.35913,466.97827,8655956,0.7875,0.08510638,-304.9677,484.05704,0.027006652,0.008388221,-0.028798103,0.0,0.0,0.0
793.8662,478.83252,8655973,0.77500004,0.06382979,-331.65396,731.3685,0.027006652,0.008388221,-0.028798103,0.0,0.0,0.0
791.46844,485.67017,8655989,0.77500004,0.08510638,-249.05032,743.3494,0.027006652,0.008388221,-0.028798103,0.0,0.0,0.0
790.2206,492.08582,8656006,0.75,0.08510638,-107.11009,568.91455,0.027006652,0.008388221,-0.028798103,0.0,0.0,0.0
790.4275,498.1737,8656023,0.725,0.10638297,48.312687,357.5935,0.027006652,0.008388221,-0.028798103,0.0,0.0,0.0
791.6938,504.45264,8656039,0.71250004,0.10638297,150.23918,225.24388,0.027006652,0.008388221,-0.028798103,0.0,0.0,0.0
794.2833,511.38074,8656056,0.6875,0.10638297,201.87572,355.274,0.027006652,0.008388221,-0.028798103,0.0,0.0,0.0
796.84973,516.3301,8656073,0.675,0.10638297,236.11754,367.12314,-0.02639468,-0.01728943,-0.00703907,0.0,0.0,0.0
802.2443,521.5757,8656090,0.6625,0.09574468,288.6745,310.4156,-0.02639468,-0.01728943,-0.00703907,0.0,0.0,0.0
812.13116,524.09326,8656106,0.65000004,0.08510638,481.80878,218.43835,-0.02639468,-0.01728943,-0.00703907,0.0,0.0,0.0
825.93176,519.18713,8656123,0.675,0.10638297,797.00977,-79.870316,-0.02639468,-0.01728943,-0.00703907,0.0,0.0,0.0
836.98773,510.05298,8656140,0.6625,0.08510638,972.5313,-505.32214,-0.02639468,-0.01728943,-0.00703907,0.0,0.0,0.0
846.3783,499.89514,8656156,0.71250004,0.07446808,840.29626,-845.12006,-0.02639468,-0.01728943,-0.00703907,0.0,0.0,0.0
853.6187,488.80383,8656173,0.7375,0.09574468,563.59216,-965.3834,-0.02639468,-0.01728943,-0.00703907,0.0,0.0,0.0
859.19946,478.77722,8656190,0.7625,0.11702127,310.06805,-848.5112,-0.02639468,-0.01728943,-0.00703907,0.0,0.0,0.0
863.8958,469.292,8656207,0.77500004,0.12765957,178.09549,-664.18854,-0.02639468,-0.01728943,-0.00703907,0.0,0.0,0.0
864.8703,462.74768,8656223,0.7875,0.12765957,65.908485,-505.022,-0.02639468,-0.01728943,-0.00703907,0.0,0.0,0.0
865.1962,457.17346,8656240,0.8125,0.11702127,-49.377018,-336.37283,-0.02639468,-0.01728943,-0.00703907,0.0,0.0,0.0
864.4413,451.65283,8656257,0.8125,0.09574468,-140.1278,-232.1045,-0.02639468,-0.01728943,-0.00703907,0.0,0.0,0.0
863.4012,448.0453,8656273,0.825,0.09574468,-170.93184,-187.85686,-0.02639468,-0.01728943,-0.00703907,0.0,0.0,0.0
862.36414,446.20178,8656290,0.8625,0.09574468,-143.33397,-98.30176,-0.02639468,-0.01728943,-0.00703907,0.0,0.0,0.0
861.3355,444.3733,8656307,0.85,0.09574468,-104.33755,-42.84528,-0.02639468,-0.01728943,-0.00703907,0.0,0.0,0.0
860.28546,442.5067,8656323,0.85,0.09574468,-75.788345,-6.4822865,-0.02639468,-0.01728943,-0.00703907,0.0,0.0,0.0
859.24677,442.35095,8656340,0.8625,0.09574468,-62.18182,-3.8402982,-0.02639468,-0.01728943,-0.00703907,0.0,0.0,0.0
858.2056,442.35095,8656357,0.8625,0.10638297,-62.045918,8.387114,-0.02639468,-0.01728943,-0.00703907,0.0,0.0,0.0
857.1666,445.13086,8656374,0.8125,0.12765957,-62.644764,117.505745,-0.02639468,-0.01728943,-0.00703907,0.0,0.0,0.0
857.1988,449.8335,8656390,0.8,0.12765957,-32.654198,271.97012,-0.02639468,-0.01728943,-0.00703907,0.0,0.0,0.0
857.8231,457.4519,8656407,0.7875,0.11702127,17.903011,457.0483,-0.02639468,-0.01728943,-0.00703907,0.0,0.0,0.0
859.698,465.45203,8656424,0.77500004,0.09574468,89.74985,570.0737,-0.02639468,-0.01728943,-0.00703907,0.0,0.0,0.0
863.69666,473.89282,8656440,0.7625,0.09574468,205.12299,630.58997,-0.02639468,-0.01728943,-0.00703907,0.0,0.0,0.0
867.1528,479.59204,8656457,0.7625,0.07446808,303.22275,542.3275,-0.02639468,-0.01728943,-0.00703907,0.0,0.0,0.0
869.7306,483.7141,8656474,0.77500004,0.08510638,280.82196,355.78934,-0.02639468,-0.01728943,-0.00703907,0.0,0.0,0.0
874.19965,489.27075,8656491,0.7375,0.08510638,251.11575,245.78397,-0.02639468,-0.01728943,-0.00703907,0.0,0.0,0.0
879.4144,494.2202,8656507,0.7625,0.09574468,268.85654,208.59947,-0.02639468,-0.01728943,-0.00703907,0.0,0.0,0.0
884.5702,497.88623,8656524,0.77500004,0.09574468,332.85422,215.50891,-0.02639468,-0.01728943,-0.00703907,0.0,0.0,0.0
888.8611,499.95825,8656541,0.7875,0.10638297,348.83804,173.3465,-0.02639468,-0.01728943,-0.00703907,0.0,0.0,0.0
891.60876,500.9922,8656557,0.77500004,0.09574468,252.03242,55.601665,-0.02639468,-0.01728943,-0.00703907,0.0,0.0,0.0
893.6902,500.9922,8656574,0.7375,0.09574468,124.969215,-48.90608,-0.02639468,-0.01728943,-0.00703907,0.0,0.0,0.0
895.23224,500.9922,8656591,0.7,0.07446808,47.67449,-80.05319,-0.02639468,-0.01728943,-0.00703907,0.0,0.0,0.0
897.3615,499.05908,8656608,0.6625,0.08510638,37.92574,-123.59136,-0.037115745,-0.013831526,0.058368683,0.0,0.0,0.0
900.4725,495.14978,8656624,0.15,0.06382979,108.676414,-208.5783,-0.037115745,-0.013831526,0.058368683,0.0,0.0,0.0
900.4725,495.14978,8656631,0.15,0.06382979,108.676414,-208.5783,-0.037115745,-0.013831526,0.058368683,0.0,0.0,0.0
839.7045,312.62952,8656849,0.875,0.08510638,0.0,0.0,-0.037115745,-0.013831526,0.058368683,0.0,0.0,0.0
839.7045,312.62952,8656875,0.95,0.08510638,0.015656922,0.004530106,-0.037115745,-0.013831526,0.058368683,0.0,0.0,0.0
839.7045,312.62952,8656892,0.9375,0.08510638,0.036379628,0.016259076,-0.037115745,-0.013831526,0.058368683,0.0,0.0,0.0
839.7045,312.62952,8656908,0.875,0.08510638,0.05563132,0.01997378,-0.037115745,-0.013831526,0.058368683,0.0,0.0,0.0
839.7045,312.62952,8656925,0.8125,0.08510638,0.064324364,0.025732774,-0.037115745,-0.013831526,0.058368683,0.0,0.0,0.0
841.5233,325.5619,8656942,0.77500004,0.08510638,33.116966,235.60403,-0.037115745,-0.013831526,0.058368683,0.0,0.0,0.0
845.3332,340.07678,8656958,0.71250004,0.10638297,168.20221,905.1565,-0.037115745,-0.013831526,0.058368683,0.0,0.0,0.0
848.98395,353.6161,8656975,0.675,0.09574468,284.01117,1239.0345,-0.037115745,-0.013831526,0.058368683,0.0,0.0,0.0
854.68335,368.56165,8656992,0.625,0.08510638,397.7126,1324.8152,-0.037115745,-0.013831526,0.058368683,0.0,0.0,0.0
854.69965,368.60522,8656992,0.38750002,0.09574468,388.9397,1259.8378,-0.037115745,-0.013831526,0.058368683,0.0,0.0,0.0
854.69965,368.60522,8657000,0.38750002,0.09574468,388.9397,1259.8378,-0.037115745,-0.013831526,0.058368683,0.0,0.0,0.0
940.67163,508.10022,8657484,0.7625,0.10638297,0.0,0.0,0.018307403,-0.0030652285,-0.0013046265,0.0,0.0,0.0
940.67163,508.10022,8657510,0.7875,0.10638297,0.08326974,0.04442631,0.018307403,-0.0030652285,-0.0013046265,0.0,0.0,0.0
940.67163,508.10022,8657527,0.7875,0.09574468,0.018483786,0.011502811,0.018307403,-0.0030652285,-0.0013046265,0.0,0.0,0.0
940.67163,508.10022,8657543,0.8,0.09574468,0.077281535,0.039972126,0.018307403,-0.0030652285,-0.0013046265,2.9360124E-6,0.0,0.0
940.67163,508.10022,8657560,0.8,0.08510638,0.022979245,0.014264973,0.018307403,-0.0030652285,-0.0013046265,2.9360124E-6,0.0,0.0
940.67163,508.10022,8657577,0.7875,0.08510638,-0.026625123,-0.014575651,0.018307403,-0.0030652285,-0.0013046265,2.9360124E-6,0.0,0.0
952.4777,489.193,8657593,0.7875,0.08510638,333.7309,-522.18524,0.018307403,-0.0030652285,-0.0013046265,2.9360124E-6,0.0,0.0
960.63416,468.4635,8657610,0.8,0.12765957,689.2612,-1306.8656,0.018307403,-0.0030652285,-0.0013046265,0.0,0.0,0.0
962.1647,455.81055,8657627,0.83750004,0.10638297,602.5261,-1548.2869,0.018307403,-0.0030652285,-0.0013046265,0.0,0.0,0.0
961.72327,443.0785,8657644,0.85,0.08510638,205.40977,-1243.946,0.018307403,-0.0030652285,-0.0013046265,0.0,0.0,0.0
959.213,432.71765,8657660,0.85,0.08510638,-249.84415,-712.4871,0.018307403,-0.0030652285,-0.0013046265,0.0,0.0,0.0
956.66895,427.2511,8657677,0.8625,0.08510638,-460.8592,-265.9267,0.014645923,0.02954781,-0.017044067,0.0,0.0,0.0
951.86334,421.59058,8657694,0.8625,0.09574468,-378.544,-177.87363,0.014645923,0.02954781,-0.017044067,0.0,0.0,0.0
946.66565,417.11462,8657710,0.875,0.09574468,-373.7326,-133.10516,0.014645923,0.02954781,-0.017044067,0.0,0.0,0.0
940.9019,414.5338,8657727,0.8875,0.10638297,-406.13214,-60.50095,0.014645923,0.02954781,-0.017044067,0.0,0.0,0.0
936.2288,412.61096,8657744,0.8875,0.10638297,-380.09412,-46.72153,0.014645923,0.02954781,-0.017044067,0.0,0.0,0.0
934.95197,413.0304,8657761,0.8875,0.10638297,-212.77881,32.851734,0.014645923,0.02954781,-0.017044067,0.0,0.0,0.0
933.9119,413.0304,8657777,0.875,0.10638297,-40.3259,95.4041,0.014645923,0.02954781,-0.017044067,0.0,0.0,0.0
933.1741,413.0304,8657794,0.83750004,0.10638297,50.93873,79.19949,0.014645923,0.02954781,-0.017044067,0.0,0.0,0.0
933.8208,413.0304,8657811,0.8,0.09574468,80.591125,43.20414,0.014645923,0.02954781,-0.017044067,0.0,0.0,0.0
939.15814,415.18103,8657827,0.8125,0.08510638,201.54295,56.426723,0.014645923,0.02954781,-0.017044067,0.0,0.0,0.0
945.52704,417.28247,8657844,0.83750004,0.08510638,417.97568,137.26013,0.014645923,0.02954781,-0.017044067,0.0,0.0,0.0
952.8304,419.96716,8657861,0.825,0.08510638,581.5017,196.28728,0.014645923,0.02954781,-0.017044067,0.0,0.0,0.0
958.64954,421.90967,8657878,0.83750004,0.08510638,565.00775,199.79378,0.014645923,0.02954781,-0.017044067,0.0,0.0,0.0
963.8712,423.766,8657894,0.825,0.09574468,416.31512,147.37827,0.014645923,0.02954781,-0.017044067,0.0,0.0,0.0
968.4645,425.6034,8657911,0.83750004,0.09574468,290.65012,105.5239,0.014645923,0.02954781,-0.017044067,0.0,0.0,0.0
971.39246,428.33984,8657928,0.825,0.09574468,198.32422,130.96596,0.014645923,0.02954781,-0.017044067,0.0,0.0,0.0
974.22974,432.36316,8657944,0.8,0.09574468,120.43499,184.92824,0.014645923,0.02954781,-0.017044067,0.0,0.0,0.0
976.24414,435.73816,8657961,0.7625,0.08510638,75.81046,227.4753,0.014645923,0.02954781,-0.017044067,0.0,0.0,0.0
978.6271,441.82104,8657978,0.7375,0.10638297,82.07478,335.02924,0.014645923,0.02954781,-0.017044067,0.0,0.0,0.0
979.9331,447.36682,8657995,0.75,0.12765957,92.56917,396.25803,0.014645923,0.02954781,-0.017044067,0.0,0.0,0.0
980.1588,452.9049,8658011,0.75,0.12765957,43.130684,410.81128,0.014645923,0.02954781,-0.017044067,0.0,0.0,0.0
980.1588,458.39563,8658028,0.7625,0.10638297,-33.277737,372.46082,0.014645923,0.02954781,-0.017044067,0.0,0.0,0.0
980.54504,463.06934,8658045,0.7625,0.10638297,-56.287037,293.1023,0.014645923,0.02954781,-0.017044067,0.0,0.0,0.0
982.0797,468.72742,8658061,0.7875,0.08510638,12.984061,308.29736,0.014645923,0.02954781,-0.017044067,0.0,0.0,0.0
983.1156,474.11206,8658078,0.77500004,0.08510638,78.941765,303.58905,0.014645923,0.02954781,-0.017044067,0.0,0.0,0.0
984.0619,478.27026,8658095,0.77500004,0.07446808,97.51991,279.596,0.014645923,0.02954781,-0.017044067,0.0,0.0,0.0
986.307,483.6223,8658111,0.7625,0.06382979,110.05063,279.33966,0.014645923,0.02954781,-0.017044067,0.0,0.0,0.0
987.8362,486.20728,8658128,0.7625,0.08510638,112.69922,224.3975,0.014645923,0.02954781,-0.017044067,0.0,0.0,0.0
991.2096,489.9342,8658145,0.75,0.08510638,161.8725,191.06245,0.014645923,0.02954781,-0.017044067,0.0,0.0,0.0
995.23645,493.51318,8658162,0.77500004,0.09574468,241.44461,181.5434,0.014645923,0.02954781,-0.017044067,0.0,0.0,0.0
1000.6727,498.1637,8658178,0.77500004,0.09574468,331.57452,225.6742,0.014645923,0.02954781,-0.017044067,0.0,0.0,0.0
1005.6157,500.53247,8658195,0.75,0.10638297,379.9343,221.96283,-0.0042832643,-0.016361743,-0.013635635,0.0,0.0,0.0
1010.5663,502.3844,8658212,0.75,0.12765957,352.74442,136.91286,-0.0042832643,-0.016361743,-0.013635635,0.0,0.0,0.0
1014.42444,502.76917,8658228,0.7,0.12765957,279.8821,24.799547,-0.0042832643,-0.016361743,-0.013635635,0.0,0.0,0.0
1023.1448,502.76917,8658240,0.45000002,0.12765957,351.85507,-31.466286,-0.0042832643,-0.016361743,-0.013635635,0.0,0.0,0.0
1023.1448,502.76917,8658247,0.45000002,0.12765957,351.85507,-31.466286,-0.0042832643,-0.016361743,-0.013635635,0.0,0.0,0.0
1073.1285,423.69238,8658456,0.71250004,0.08510638,0.0,0.0,-0.0042832643,-0.016361743,-0.013635635,0.0,0.0,0.0
1073.1285,423.69238,8658479,0.7875,0.08510638,0.093101844,0.038689114,-0.0042832643,-0.016361743,-0.013635635,0.0,0.0,0.0
1073.1285,423.69238,8658496,0.85,0.08510638,-0.045882102,-0.017819028,-0.0042832643,-0.016361743,-0.013635635,0.0,0.0,0.0
1073.1285,423.69238,8658513,0.8625,0.08510638,-0.07177751,-0.026149863,-0.0042832643,-0.016361743,-0.013635635,0.0,0.0,0.0
1073.1285,423.69238,8658529,0.8625,0.08510638,0.035165135,0.013645977,-0.0042832643,-0.016361743,-0.013635635,0.0,0.0,0.0
1073.1285,423.69238,8658546,0.83750004,0.08510638,-0.055040635,-0.02183865,-0.0042832643,-0.016361743,-0.013635635,0.0,0.0,0.0
1073.1285,423.69238,8658559,0.8625,0.08510638,0.030251445,0.0106672915,-0.0042832643,-0.016361743,-0.013635635,0.0,0.0,0.0
1073.1285,423.69238,8658578,0.83750004,0.08510638,0.10097781,0.039962787,-0.0042832643,-0.016361743,-0.013635635,0.0,0.0,0.0
1073.1285,423.69238,8658593,0.825,0.08510638,-0.01243243,-0.0041906387,-0.0042832643,-0.016361743,-0.013635635,0.0,0.0,0.0
1073.1285,423.69238,8658613,0.8125,0.08510638,-0.034889076,-0.013658362,-0.0042832643,-0.016361743,-0.013635635,0.0,0.0,0.0
1073.1285,423.69238,8658629,0.8125,0.08510638,0.0352031,0.0146939615,-0.0042832643,-0.016361743,-0.013635635,0.0,0.0,0.0
1055.6846,439.1964,8658646,0.7875,0.09574468,-608.3246,540.7162,-0.0042832643,-0.016361743,-0.013635635,0.0,0.0,0.0
1050.1094,444.45557,8658663,0.77500004,0.12765957,-831.0506,744.263,-0.0042832643,-0.016361743,-0.013635635,0.0,0.0,0.0
1045.1354,453.68433,8658680,0.75,0.12765957,-615.9012,702.945,-0.0042832643,-0.016361743,-0.013635635,0.0,0.0,0.0
1041.8687,462.99402,8658696,0.725,0.10638297,-219.47902,583.76715,-0.0042832643,-0.016361743,-0.013635635,0.0,0.0,0.0
1041.1389,473.9475,8658713,0.725,0.08510638,50.407116,564.7391,-0.0042832643,-0.016361743,-0.013635635,0.0,0.0,0.0
1040.1377,481.4563,8658730,0.7375,0.07446808,35.104877,642.6587,-0.0042832643,-0.016361743,-0.013635635,0.0,0.0,0.0
1040.1393,487.88,8658746,0.7375,0.08510638,71.38548,498.96954,0.0125733875,-0.013089389,0.021091461,0.0,0.0,0.0
1041.222,493.43896,8658763,0.7375,0.08510638,110.0622,308.92242,0.0125733875,-0.013089389,0.021091461,0.0,0.0,0.0
1042.8711,496.75647,8658780,0.725,0.09574468,127.764046,174.144,0.0125733875,-0.013089389,0.021091461,0.0,0.0,0.0
1044.9398,499.75208,8658797,0.725,0.10638297,156.18365,89.14587,0.0125733875,-0.013089389,0.021091461,0.0,0.0,0.0
1048.425,503.46973,8658813,0.7375,0.10638297,209.41158,108.73426,0.0125733875,-0.013089389,0.021091461,0.0,0.0,0.0
1052.8181,507.16406,8658830,0.7375,0.10638297,270.3255,166.88083,0.0125733875,-0.013089389,0.021091461,0.0,0.0,0.0
1058.7402,510.36902,8658847,0.7375,0.10638297,371.15753,212.92511,0.0125733875,-0.013089389,0.021091461,0.0,0.0,0.0
1063.6974,512.2107,8658863,0.7375,0.12765957,403.93658,167.91193,0.0125733875,-0.013089389,0.021091461,0.0,0.0,0.0
1068.9028,512.5427,8658880,0.75,0.12765957,375.2391,51.143272,0.0125733875,-0.013089389,0.021091461,0.0,0.0,0.0
1077.4778,510.24854,8658897,0.7375,0.12765957,398.651,-99.73593,0.0125733875,-0.013089389,0.021091461,0.0,0.0,0.0
1090.3295,503.28186,8658914,0.7625,0.09574468,628.1563,-342.34705,0.0125733875,-0.013089389,0.021091461,0.0,0.0,0.0
1100.8569,494.1433,8658930,0.75,0.08510638,822.9406,-607.108,0.0125733875,-0.013089389,0.021091461,0.0,0.0,0.0
1109.7094,484.896,8658947,0.7875,0.08510638,766.439,-756.32465,0.0125733875,-0.013089389,0.021091461,0.0,0.0,0.0
1116.9336,475.70874,8658964,0.77500004,0.10638297,559.4131,-748.75244,0.0125733875,-0.013089389,0.021091461,0.0,0.0,0.0
1119.8013,469.39368,8658980,0.7875,0.12765957,244.61853,-577.77094,0.0125733875,-0.013089389,0.021091461,0.0,0.0,0.0
1122.5345,461.53625,8658997,0.8,0.12765957,44.256226,-422.66217,0.0125733875,-0.013089389,0.021091461,0.0,0.0,0.0
1122.6124,454.17883,8659014,0.8125,0.10638297,-72.65226,-378.3958,0.0125733875,-0.013089389,0.021091461,0.0,0.0,0.0
1120.4878,448.71814,8659031,0.8125,0.08510638,-187.53844,-357.90503,0.0125733875,-0.013089389,0.021091461,0.0,0.0,0.0
1114.626,442.36072,8659047,0.825,0.08510638,-330.2744,-363.283,0.0125733875,-0.013089389,0.021091461,0.0,0.0,0.0
1105.8346,434.99133,8659064,0.83750004,0.08510638,-576.27484,-382.84064,0.0125733875,-0.013089389,0.021091461,0.0,0.0,0.0
1097.2188,429.19983,8659081,0.8625,0.09574468,-719.68945,-375.74078,0.0125733875,-0.013089389,0.021091461,0.0,0.0,0.0
1087.9858,425.11877,8659097,0.8625,0.09574468,-721.86633,-323.38474,0.0125733875,-0.013089389,0.021091461,0.0,0.0,0.0
1079.579,422.12695,8659114,0.85,0.08510638,-631.7392,-194.61806,0.0125733875,-0.013089389,0.021091461,0.0,0.0,0.0
1072.0503,421.02686,8659131,0.85,0.08510638,-509.13474,-42.90115,0.0125733875,-0.013089389,0.021091461,0.0,0.0,0.0
1065.7322,421.02686,8659148,0.8625,0.08510638,-416.05984,61.09285,0.0125733875,-0.013089389,0.021091461,0.0,0.0,0.0
1062.0083,421.02686,8659164,0.8625,0.08510638,-254.75017,93.41369,0.0125733875,-0.013089389,0.021091461,0.0,0.0,0.0
1059.5414,421.02686,8659181,0.8625,0.08510638,-118.61929,84.54993,0.0125733875,-0.013089389,0.021091461,0.0,0.0,0.0
1057.4338,423.15906,8659198,0.85,0.08510638,-34.760452,95.95354,0.0125733875,-0.013089389,0.021091461,0.0,0.0,0.0
1056.4761,426.03052,8659214,0.7875,0.08510638,13.75217,156.01192,0.0125733875,-0.013089389,0.021091461,0.0,0.0,0.0
1057.3523,429.80066,8659231,0.7625,0.08510638,58.96508,251.25548,0.0125733875,-0.013089389,0.021091461,0.0,0.0,0.0
1060.215,432.8429,8659248,0.75,0.08510638,148.85405,282.2489,0.0125733875,-0.013089389,0.021091461,0.0,0.0,0.0
1066.9658,439.75293,8659265,0.725,0.10638297,359.61102,351.55255,0.0125733875,-0.013089389,0.021091461,0.0,0.0,0.0
1075.9579,446.13977,8659281,0.71250004,0.12765957,594.1868,429.16357,-0.02194129,-0.0024715066,-0.015127182,0.0,0.0,0.0
1087.1658,451.49182,8659298,0.7,0.12765957,786.23444,456.26447,-0.02194129,-0.0024715066,-0.015127182,0.0,0.0,0.0
1100.117,453.01306,8659315,0.7,0.10638297,898.05914,295.24112,-0.02194129,-0.0024715066,-0.015127182,0.0,0.0,0.0
1114.6611,450.8817,8659331,0.7,0.09574468,951.1107,-42.50213,-0.02194129,-0.0024715066,-0.015127182,0.0,0.0,0.0
1129.662,444.57727,8659348,0.725,0.09574468,1004.53,-382.289,-0.02194129,-0.0024715066,-0.015127182,0.0,0.0,0.0
1142.9955,436.22058,8659365,0.7375,0.07446808,987.7973,-654.1763,-0.02194129,-0.0024715066,-0.015127182,0.0,0.0,0.0
1150.2793,428.81494,8659381,0.8,0.08510638,695.0096,-709.9403,-0.02194129,-0.0024715066,-0.015127182,0.0,0.0,0.0
1154.3408,422.37976,8659398,0.825,0.09574468,313.24683,-606.651,-0.02194129,-0.0024715066,-0.015127182,0.0,0.0,0.0
1156.3846,417.8579,8659415,0.825,0.10638297,-19.464756,-396.78415,-0.02194129,-0.0024715066,-0.015127182,0.0,0.0,0.0
1157.7938,411.11304,8659432,0.83750004,0.10638297,-154.36005,-296.1872,-0.02194129,-0.0024715066,-0.015127182,0.0,0.0,0.0
1157.601,405.6599,8659448,0.83750004,0.10638297,-157.81604,-284.23004,-0.02194129,-0.0024715066,-0.015127182,0.0,0.0,0.0
1156.3802,402.8639,8659465,0.83750004,0.12765957,-124.78893,-257.78006,-0.02194129,-0.0024715066,-0.015127182,0.0,0.0,0.0
1155.3387,401.01245,8659482,0.875,0.12765957,-138.2005,-144.20169,-0.02194129,-0.0024715066,-0.015127182,0.0,0.0,0.0
1154.2953,399.1577,8659498,0.875,0.10638297,-132.36842,-21.379478,-0.02194129,-0.0024715066,-0.015127182,0.0,0.0,0.0
1153.6023,397.92578,8659515,0.875,0.12765957,-84.48504,-0.8617688,-0.02194129,-0.0024715066,-0.015127182,0.0,0.0,0.0
1153.6023,397.92578,8659532,0.875,0.12765957,-24.833612,13.013964,-0.02194129,-0.0024715066,-0.015127182,0.0,0.0,0.0
1153.6023,397.92578,8659549,0.85,0.10638297,14.650183,35.60562,-0.02194129,-0.0024715066,-0.015127182,0.0,0.0,0.0
1154.061,398.7411,8659565,0.8125,0.10638297,37.77896,67.122025,-0.02194129,-0.0024715066,-0.015127182,0.0,0.0,0.0
1157.1097,403.2683,8659582,0.7875,0.09574468,120.62446,191.95032,-0.02194129,-0.0024715066,-0.015127182,0.0,0.0,0.0
1161.2784,408.82593,8659599,0.77500004,0.08510638,241.17148,344.62103,-0.02194129,-0.0024715066,-0.015127182,0.0,0.0,0.0
1166.0576,416.349,8659615,0.7625,0.06382979,346.08368,505.76346,-0.02194129,-0.0024715066,-0.015127182,0.0,0.0,0.0
1171.7465,425.7362,8659632,0.7375,0.08510638,417.188,637.7867,-0.02194129,-0.0024715066,-0.015127182,0.0,0.0,0.0
1177.491,433.85168,8659649,0.7375,0.11702127,420.40033,649.3889,-0.02194129,-0.0024715066,-0.015127182,0.0,0.0,0.0
1182.926,442.94336,8659666,0.7375,0.12765957,377.7258,598.8368,-0.02194129,-0.0024715066,-0.015127182,0.0,0.0,0.0
1185.5647,448.474,8659682,0.75,0.12765957,271.7172,466.27704,-0.02194129,-0.0024715066,-0.015127182,0.0,0.0,0.0
1187.365,454.47192,8659699,0.7375,0.12765957,126.102394,355.90378,-0.02194129,-0.0024715066,-0.015127182,0.0,0.0,0.0
1188.4034,459.45447,8659716,0.7375,0.11702127,13.663973,285.48428,-0.02194129,-0.0024715066,-0.015127182,0.0,0.0,0.0
1188.591,463.74524,8659732,0.7375,0.09574468,-54.78935,209.56122,-0.02194129,-0.0024715066,-0.015127182,0.0,0.0,0.0
1188.206,467.02478,8659749,0.7625,0.09574468,-81.496635,161.9407,-0.02194129,-0.0024715066,-0.015127182,0.0,0.0,0.0
1187.6615,469.76965,8659766,0.7875,0.09574468,-81.029205,127.36702,-0.02194129,-0.0024715066,-0.015127182,0.0,0.0,0.0
1186.154,471.6162,8659783,0.77500004,0.08510638,-99.36931,87.32819,-0.02194129,-0.0024715066,-0.015127182,0.0,0.0,0.0
1184.0582,472.58032,8659799,0.77500004,0.08510638,-135.82925,34.38929,-0.03355303,-0.0019772053,0.019898415,0.0,0.0,0.0
1178.8256,476.30505,8659816,0.7875,0.06382979,-251.51643,83.048325,-0.03355303,-0.0019772053,0.019898415,0.0,0.0,0.0
1169.1605,481.05603,8659833,0.8,0.06382979,-484.30872,213.05057,-0.03355303,-0.0019772053,0.019898415,0.0,0.0,0.0
1159.3113,484.61963,8659849,0.8,0.08510638,-697.8286,291.6618,-0.03355303,-0.0019772053,0.019898415,0.0,0.0,0.0
1151.0342,487.12463,8659866,0.8125,0.09574468,-739.3389,276.4789,-0.03355303,-0.0019772053,0.019898415,0.0,0.0,0.0
1144.6779,488.9154,8659883,0.825,0.09574468,-601.3095,164.96002,-0.03355303,-0.0019772053,0.019898415,0.0,0.0,0.0
1139.1332,490.76282,8659899,0.825,0.09574468,-354.88754,56.450268,-0.03355303,-0.0019772053,0.019898415,0.0,0.0,0.0
1136.0452,491.21863,8659916,0.83750004,0.08510638,-184.30081,18.680038,-0.03355303,-0.0019772053,0.019898415,0.0,0.0,0.0
1134.3005,491.21863,8659933,0.83750004,0.08510638,-58.748913,-18.211035,-0.03355303,-0.0019772053,0.019898415,0.0,0.0,0.0
1133.2622,492.10718,8659950,0.825,0.09574468,38.22853,-16.947258,-0.03355303,-0.0019772053,0.019898415,0.0,0.0,0.0
1133.109,492.10718,8659961,0.52500004,0.11702127,68.15514,-19.878464,-0.03355303,-0.0019772053,0.019898415,0.0,0.0,0.0
1133.109,492.10718,8659967,0.52500004,0.11702127,68.15514,-19.878464,-0.03355303,-0.0019772053,0.019898415,0.0,0.0,0.0
