x,y,timestamp,pressure,fingerarea,velocityx,velocityy,accelx,accely,accelz,gyrox,gyroy,gyroz
143.931,530.31274,8665812,1.0,0.08510638,0.0,0.0,-0.014712438,-0.027059942,-0.029753685,0.0,0.0,0.0
143.931,530.31274,8665832,1.075,0.10638297,-0.023199175,-0.08496016,-0.014712438,-0.027059942,-0.029753685,0.0,0.0,0.0
143.931,530.31274,8665848,1.0500001,0.10638297,-0.0038928005,-0.0162725,-0.014712438,-0.027059942,-0.029753685,0.0,0.0,0.0
143.931,530.31274,8665865,1.0375,0.12765957,0.00724217,0.028079435,-0.014712438,-0.027059942,-0.029753685,0.0,0.0,0.0
142.43149,506.40503,8665882,1.0,0.10638297,-68.25648,-954.9178,-0.014712438,-0.027059942,-0.029753685,2.9360124E-6,0.0,0.0
144.09325,476.76086,8665898,1.025,0.11702127,-10.3216305,-1902.9779,-0.014712438,-0.027059942,-0.029753685,2.9360124E-6,0.0,0.0
146.6797,447.2444,8665915,1.0375,0.11702127,118.86427,-2524.6465,-0.014712438,-0.027059942,-0.029753685,2.9360124E-6,0.0,0.0
147.42987,416.04028,8665932,1.0500001,0.11702127,165.36504,-2631.9707,-0.014712438,-0.027059942,-0.029753685,0.0,0.0,0.0
146.97845,384.54297,8665949,1.0625,0.09574468,95.65111,-2000.2677,-0.014712438,-0.027059942,-0.029753685,0.0,0.0,0.0
145.41989,356.9226,8665965,1.0875,0.12765957,-58.1265,-1810.1498,-0.014712438,-0.027059942,-0.029753685,0.0,0.0,0.0
144.93068,332.78687,8665982,1.0625,0.09574468,-143.082,-1617.1436,-0.014712438,-0.027059942,-0.029753685,0.0,0.0,0.0
144.43085,315.8922,8665999,1.075,0.11702127,-108.27688,-1198.1351,-0.014712438,-0.027059942,-0.029753685,0.0,0.0,0.0
143.931,305.11353,8666015,1.075,0.12765957,-45.519302,-687.0596,-0.014712438,-0.027059942,-0.029753685,0.0,0.0,0.0
143.43117,299.23523,8666032,1.075,0.12765957,-13.134819,-172.94891,-0.014712438,-0.027059942,-0.029753685,0.0,0.0,0.0
143.23012,296.27905,8666049,1.1,0.12765957,-0.2900314,106.18951,-0.014712438,-0.027059942,-0.029753685,0.0,0.0,0.0
142.69595,294.85938,8666066,1.1125001,0.12765957,-16.473686,205.67259,-0.014712438,-0.027059942,-0.029753685,0.0,0.0,0.0
142.43149,294.85938,8666082,1.0500001,0.12765957,-21.162344,178.72105,-0.014712438,-0.027059942,-0.029753685,0.0,0.0,0.0
142.74359,296.85754,8666099,1.025,0.12765957,-6.9052505,197.50595,-0.014712438,-0.027059942,-0.029753685,0.0,0.0,0.0
145.34146,306.9818,8666116,0.975,0.09574468,73.34555,424.4897,-0.014712438,-0.027059942,-0.029753685,0.0,0.0,0.0
152.01654,324.53088,8666132,0.96250004,0.09574468,290.04993,932.7267,-0.014712438,-0.027059942,-0.029753685,0.0,0.0,0.0
158.78084,336.50415,8666149,0.95,0.12765957,483.4093,1210.9073,-0.014712438,-0.027059942,-0.029753685,0.0,0.0,0.0
171.53003,353.00305,8666166,0.95,0.09574468,714.34326,1239.6086,-0.014712438,-0.027059942,-0.029753685,0.0,0.0,0.0
186.68938,367.97717,8666183,0.9125,0.08510638,986.13995,1085.9948,-0.014712438,-0.027059942,-0.029753685,0.0,0.0,0.0
203.0206,379.07422,8666199,0.9125,0.08510638,1114.3156,809.8297,-0.027769953,-0.0056479573,0.024197578,0.0,0.0,0.0
220.78702,386.28015,8666216,0.9375,0.08510638,1211.6598,571.1033,-0.027769953,-0.0056479573,0.024197578,0.0,0.0,0.0
237.50882,387.69128,8666233,0.95,0.08510638,1177.268,197.24602,-0.027769953,-0.0056479573,0.024197578,0.0,0.0,0.0
249.39667,383.70972,8666248,0.9875,0.09574468,982.62213,-227.61073,-0.027769953,-0.0056479573,0.024197578,0.0,0.0,0.0
260.13113,373.1825,8666266,0.975,0.08510638,775.067,-668.77136,-0.027769953,-0.0056479573,0.024197578,0.0,0.0,0.0
270.15466,360.14404,8666283,1.0125,0.10638297,523.7882,-1065.967,-0.027769953,-0.0056479573,0.024197578,0.0,0.0,0.0
278.22324,346.6842,8666299,1.025,0.09574468,418.1181,-1159.8446,-0.027769953,-0.0056479573,0.024197578,0.0,0.0,0.0
288.03665,320.67126,8666316,1.025,0.08510638,430.199,-1454.4341,-0.027769953,-0.0056479573,0.024197578,0.0,0.0,0.0
291.9565,306.40063,8666333,1.0500001,0.10638297,310.97256,-1412.6902,-0.027769953,-0.0056479573,0.024197578,0.0,0.0,0.0
294.1886,296.60742,8666350,1.0500001,0.10638297,137.479,-1042.4639,-0.027769953,-0.0056479573,0.024197578,0.0,0.0,0.0
294.88187,289.84375,8666366,1.0375,0.10638297,-42.66536,-504.02863,-0.027769953,-0.0056479573,0.024197578,0.0,0.0,0.0
294.39575,286.88733,8666383,1.0500001,0.09574468,-177.23122,16.299778,-0.027769953,-0.0056479573,0.024197578,0.0,0.0,0.0
293.3572,285.04126,8666400,1.0500001,0.09574468,-181.2562,172.75395,-0.027769953,-0.0056479573,0.024197578,0.0,0.0,0.0
292.31854,284.1974,8666416,1.075,0.09574468,-148.19244,129.67485,-0.027769953,-0.0056479573,0.024197578,0.0,0.0,0.0
291.27652,284.1974,8666433,1.0625,0.10638297,-122.812836,128.39462,-0.027769953,-0.0056479573,0.024197578,0.0,0.0,0.0
289.56357,285.37024,8666450,1.0125,0.10638297,-102.8523,123.25647,-0.027769953,-0.0056479573,0.024197578,0.0,0.0,0.0
288.67142,289.77258,8666467,0.975,0.10638297,-85.91103,204.32661,-0.027769953,-0.0056479573,0.024197578,0.0,0.0,0.0
288.58945,300.08167,8666483,0.96250004,0.09574468,-51.064926,504.8984,-0.027769953,-0.0056479573,0.024197578,0.0,0.0,0.0
289.91034,316.42212,8666500,0.95,0.08510638,37.455902,936.36523,-0.027769953,-0.0056479573,0.024197578,0.0,0.0,0.0
291.48605,332.55652,8666517,0.925,0.09574468,129.79091,1274.2041,-0.027769953,-0.0056479573,0.024197578,0.0,0.0,0.0
294.16882,351.53735,8666533,0.9125,0.10638297,189.39365,1387.8777,-0.027769953,-0.0056479573,0.024197578,0.0,0.0,0.0
297.41986,371.81982,8666550,0.90000004,0.08510638,231.98636,1346.487,-0.027769953,-0.0056479573,0.024197578,0.0,0.0,0.0
300.13452,389.50842,8666567,0.875,0.09574468,229.85417,1266.8573,-0.027769953,-0.0056479573,0.024197578,0.0,0.0,0.0
302.74744,409.5056,8666584,0.8625,0.10638297,203.04529,1197.0935,-0.027769953,-0.0056479573,0.024197578,0.0,0.0,0.0
304.87363,428.0952,8666600,0.8625,0.08510638,158.01021,1170.8763,-0.027769953,-0.0056479573,0.024197578,0.0,0.0,0.0
308.0927,445.14758,8666617,0.85,0.12765957,138.79155,1034.384,-0.027769953,-0.0056479573,0.024197578,0.0,0.0,0.0
312.76242,461.4944,8666634,0.85,0.09574468,217.73347,978.5123,-0.027769953,-0.0056479573,0.024197578,0.0,0.0,0.0
317.4644,477.79126,8666650,0.83750004,0.08510638,301.85812,969.4381,-0.027769953,-0.0056479573,0.024197578,0.0,0.0,0.0
321.48145,491.06287,8666667,0.8,0.10638297,327.8877,853.65796,-0.027769953,-0.0056479573,0.024197578,0.0,0.0,0.0
326.83258,504.27185,8666684,0.8,0.10638297,334.22806,771.72125,-0.027769953,-0.0056479573,0.024197578,0.0,0.0,0.0
331.81204,518.1382,8666701,0.7875,0.09574468,308.7337,691.6792,-0.027769953,-0.0056479573,0.024197578,0.0,0.0,0.0
335.66217,528.63904,8666717,0.7625,0.06382979,288.50284,667.6936,-0.027769953,-0.0056479573,0.024197578,0.0,0.0,0.0
339.5737,537.0825,8666734,0.6875,0.06382979,239.58888,550.9459,0.009784039,0.043481648,0.019358635,0.0,0.0,0.0
342.3664,545.41736,8666745,0.5,0.09574468,224.95505,520.6382,0.009784039,0.043481648,0.019358635,0.0,0.0,0.0
342.3664,545.41736,8666752,0.5,0.09574468,224.95505,520.6382,0.009784039,0.043481648,0.019358635,0.0,0.0,0.0
393.84964,461.89807,8667156,0.825,0.10638297,0.0,0.0,0.009784039,0.043481648,0.019358635,0.0,0.0,0.0
393.84964,461.89807,8667185,0.925,0.10638297,-0.021815548,-0.021348381,0.009784039,0.043481648,0.019358635,0.0,0.0,0.0
393.84964,461.89807,8667202,0.9375,0.09574468,0.03048022,0.036611915,0.009784039,0.043481648,0.019358635,2.9360124E-6,0.0,0.0
393.84964,461.89807,8667219,0.95,0.09574468,0.0029956636,0.002676301,0.009784039,0.043481648,0.019358635,2.9360124E-6,0.0,0.0
393.84964,461.89807,8667235,0.96250004,0.09574468,7.315215E-5,0.0010984227,0.009784039,0.043481648,0.019358635,2.9360124E-6,0.0,0.0
393.84964,461.89807,8667252,0.9375,0.09574468,-0.02075713,-0.022775047,0.009784039,0.043481648,0.019358635,2.9360124E-6,0.0,0.0
393.84964,461.89807,8667269,0.90000004,0.09574468,0.03986232,0.04640304,0.0078272335,-0.05321467,-0.048513412,0.0,0.0,0.0
393.84964,461.89807,8667285,0.875,0.08510638,0.0031217923,0.005468466,0.0078272335,-0.05321467,-0.048513412,0.0,0.0,0.0
412.8887,468.11755,8667336,0.8875,0.11702127,533.0149,181.0357,0.0078272335,-0.05321467,-0.048513412,0.0,0.0,0.0
419.11334,468.11755,8667352,0.875,0.11702127,591.85254,117.544395,0.0078272335,-0.05321467,-0.048513412,0.0,0.0,0.0
423.27234,466.81494,8667369,0.85,0.10638297,307.72565,-94.28788,0.0078272335,-0.05321467,-0.048513412,0.0,0.0,0.0
427.43408,464.47876,8667386,0.85,0.12765957,160.63492,-182.547,0.0078272335,-0.05321467,-0.048513412,0.0,0.0,0.0
432.0068,460.8589,8667402,0.8625,0.12765957,185.66606,-257.4936,0.0078272335,-0.05321467,-0.048513412,0.0,0.0,0.0
435.89514,457.08923,8667419,0.85,0.10638297,194.78593,-302.79645,0.0078272335,-0.05321467,-0.048513412,0.0,0.0,0.0
438.61792,453.39893,8667436,0.8625,0.09574468,202.23476,-299.23227,0.0078272335,-0.05321467,-0.048513412,0.0,0.0,0.0
440.687,448.83252,8667452,0.8875,0.08510638,132.5189,-288.6835,0.0078272335,-0.05321467,-0.048513412,0.0,0.0,0.0
443.2625,441.71497,8667469,0.8875,0.08510638,87.32133,-346.32455,0.0078272335,-0.05321467,-0.048513412,0.0,0.0,0.0
443.83337,435.2079,8667486,0.90000004,0.08510638,47.53217,-441.4079,0.0078272335,-0.05321467,-0.048513412,0.0,0.0,0.0
443.28558,429.65637,8667503,0.925,0.08510638,-16.22368,-444.03174,0.0078272335,-0.05321467,-0.048513412,0.0,0.0,0.0
441.74753,427.09277,8667519,0.925,0.08510638,-110.140305,-307.75342,0.0078272335,-0.05321467,-0.048513412,0.0,0.0,0.0
438.23642,425.2566,8667536,0.9375,0.09574468,-218.69208,-113.89813,0.0078272335,-0.05321467,-0.048513412,0.0,0.0,0.0
432.36655,424.58093,8667553,0.95,0.09574468,-350.37537,29.352337,0.0078272335,-0.05321467,-0.048513412,0.0,0.0,0.0
425.22183,425.82874,8667569,0.96250004,0.08510638,-470.42108,115.42557,0.0078272335,-0.05321467,-0.048513412,0.0,0.0,0.0
416.4069,430.31323,8667586,0.925,0.08510638,-602.6517,240.5759,0.0078272335,-0.05321467,-0.048513412,0.0,0.0,0.0
407.5958,435.8534,8667603,0.95,0.08510638,-651.7213,403.49802,0.0078272335,-0.05321467,-0.048513412,0.0,0.0,0.0
399.60266,441.39526,8667620,0.95,0.09574468,-599.90784,489.9617,0.0078272335,-0.05321467,-0.048513412,0.0,0.0,0.0
393.18234,446.94238,8667636,0.95,0.12765957,-483.3132,457.33868,0.0078272335,-0.05321467,-0.048513412,0.0,0.0,0.0
388.294,451.73132,8667653,0.95,0.12765957,-322.92725,363.61023,0.0078272335,-0.05321467,-0.048513412,0.0,0.0,0.0
384.06116,458.86243,8667670,0.96250004,0.10638297,-208.90062,349.84348,0.0078272335,-0.05321467,-0.048513412,0.0,0.0,0.0
381.3975,464.4469,8667686,0.96250004,0.10638297,-120.93075,372.41876,0.0078272335,-0.05321467,-0.048513412,0.0,0.0,0.0
380.85388,470.912,8667703,0.90000004,0.08510638,-25.394547,385.37976,0.0078272335,-0.05321467,-0.048513412,0.0,0.0,0.0
381.91235,480.1908,8667720,0.875,0.08510638,91.81128,478.39725,0.0078272335,-0.05321467,-0.048513412,0.0,0.0,0.0
384.65152,489.43823,8667737,0.875,0.08510638,211.95024,572.85974,0.0078272335,-0.05321467,-0.048513412,0.0,0.0,0.0
387.96274,496.7472,8667753,0.85,0.10638297,286.37628,575.6028,0.0078272335,-0.05321467,-0.048513412,0.0,0.0,0.0
390.47498,501.2129,8667770,0.85,0.10638297,280.5342,432.2353,0.0078272335,-0.05321467,-0.048513412,0.0,0.0,0.0
396.37686,509.15112,8667787,0.825,0.09574468,312.74576,338.8913,0.0078272335,-0.05321467,-0.048513412,0.0,0.0,0.0
403.1394,517.0287,8667803,0.83750004,0.08510638,413.27322,391.689,0.022261787,0.045428276,0.041189194,0.0,0.0,0.0
410.90176,523.8833,8667820,0.85,0.08510638,524.5283,475.23218,0.022261787,0.045428276,0.041189194,0.0,0.0,0.0
419.84082,529.4241,8667837,0.85,0.09574468,598.5303,432.02258,0.022261787,0.045428276,0.041189194,0.0,0.0,0.0
428.4985,534.2262,8667854,0.85,0.08510638,590.59546,283.5998,0.022261787,0.045428276,0.041189194,0.0,0.0,0.0
438.58868,537.9066,8667870,0.85,0.08510638,593.4219,178.88078,0.022261787,0.045428276,0.041189194,0.0,0.0,0.0
449.8141,539.9944,8667887,0.8625,0.08510638,675.2977,115.839874,0.022261787,0.045428276,0.041189194,0.0,0.0,0.0
462.69128,539.2151,8667904,0.83750004,0.08510638,749.3535,-3.5781565,0.022261787,0.045428276,0.041189194,0.0,0.0,0.0
479.82068,533.7103,8667920,0.8125,0.08510638,960.95734,-263.97903,0.022261787,0.045428276,0.041189194,0.0,0.0,0.0
495.75287,526.2833,8667937,0.7625,0.09574468,1105.005,-519.6495,0.022261787,0.045428276,0.041189194,0.0,0.0,0.0
510.80817,517.7394,8667954,0.65000004,0.10638297,1097.766,-683.3181,0.022261787,0.045428276,0.041189194,0.0,0.0,0.0
511.81122,516.9852,8667961,0.375,0.14893617,971.4386,-679.36896,0.022261787,0.045428276,0.041189194,0.0,0.0,0.0
511.81122,516.9852,8667967,0.375,0.14893617,971.4386,-679.36896,0.022261787,0.045428276,0.041189194,0.0,0.0,0.0
440.3345,312.62952,8668225,0.9375,0.08510638,0.0,0.0,0.022261787,0.045428276,0.041189194,0.0,0.0,0.0
440.3345,312.62952,8668255,0.9875,0.08510638,-0.052251052,-0.037747733,0.022261787,0.045428276,0.041189194,0.0,0.0,0.0
440.3345,312.62952,8668271,0.96250004,0.08510638,0.02943965,0.022062974,0.022261787,0.045428276,0.041189194,0.0,0.0,0.0
440.20755,332.3739,8668288,0.875,0.10638297,-14.115039,961.3865,0.022261787,0.045428276,0.041189194,0.0,0.0,0.0
442.99017,347.6848,8668305,0.7875,0.10638297,78.98895,1304.2537,0.022261787,0.045428276,0.041189194,0.0,0.0,0.0
448.6737,368.97864,8668321,0.71250004,0.08510638,243.62987,1576.8693,0.022261787,0.045428276,0.041189194,0.0,0.0,0.0
448.83173,369.49365,8668322,0.52500004,0.08510638,266.8293,1561.5579,0.022261787,0.045428276,0.041189194,0.0,0.0,0.0
448.83173,369.49365,8668330,0.52500004,0.08510638,266.8293,1561.5579,0.022261787,0.045428276,0.041189194,0.0,0.0,0.0
539.3023,512.5427,8668854,0.75,0.12765957,0.0,0.0,0.017809428,0.0043426156,0.104950905,0.0,0.0,0.0
539.3023,512.5427,8668873,0.7875,0.12765957,0.0063133407,0.0079069985,-0.0017524548,0.0034741163,-0.052039146,2.9360124E-6,0.0,0.0
539.3023,512.5427,8668890,0.83750004,0.12765957,-0.016594252,-0.01485077,-0.0017524548,0.0034741163,-0.052039146,2.9360124E-6,0.0,0.0
539.3023,512.5427,8668906,0.8625,0.10638297,-0.026565993,-0.027259316,-0.0017524548,0.0034741163,-0.052039146,2.9360124E-6,0.0,0.0
539.3023,512.5427,8668923,0.8875,0.10638297,4.606232E-4,0.0013911293,-0.0017524548,0.0034741163,-0.052039146,2.9360124E-6,0.0,0.0
539.3023,512.5427,8668938,0.90000004,0.08510638,-0.041986503,-0.039418828,-0.0017524548,0.0034741163,-0.052039146,0.0,0.0,0.0
548.3562,487.65955,8668956,0.90000004,0.08510638,302.3043,-802.75946,-0.0017524548,0.0034741163,-0.052039146,0.0,0.0,0.0
551.1556,476.74878,8668973,0.925,0.09574468,404.31976,-1192.4819,-0.0017524548,0.0034741163,-0.052039146,0.0,0.0,0.0
553.23364,464.9624,8668990,0.9375,0.10638297,334.0378,-1196.2106,-0.0017524548,0.0034741163,-0.052039146,0.0,0.0,0.0
555.2703,453.15552,8669007,0.975,0.09574468,158.9324,-921.4527,-0.0017524548,0.0034741163,-0.052039146,0.0,0.0,0.0
557.39294,441.8363,8669023,0.9875,0.08510638,33.765068,-603.3243,-0.0017524548,0.0034741163,-0.052039146,0.0,0.0,0.0
558.3857,431.78088,8669040,1.0,0.08510638,71.68678,-640.11694,-0.0017524548,0.0034741163,-0.052039146,0.0,0.0,0.0
559.4314,425.63464,8669057,1.025,0.09574468,54.022316,-500.41284,-0.0017524548,0.0034741163,-0.052039146,0.0,0.0,0.0
559.7956,421.2871,8669073,1.0125,0.09574468,20.971125,-260.821,-0.0017524548,0.0034741163,-0.052039146,0.0,0.0,0.0
559.7956,418.8849,8669090,1.0125,0.09574468,-15.210614,-77.2008,-0.0017524548,0.0034741163,-0.052039146,0.0,0.0,0.0
559.7956,417.0426,8669107,1.025,0.09574468,-26.851799,33.01079,-0.0017524548,0.0034741163,-0.052039146,0.0,0.0,0.0
559.7956,415.2517,8669123,1.025,0.09574468,-27.977585,35.90491,-0.0017524548,0.0034741163,-0.052039146,0.0,0.0,0.0
559.7956,415.69592,8669140,0.9875,0.09574468,-14.290026,32.599625,-0.0017524548,0.0034741163,-0.052039146,0.0,0.0,0.0
560.6557,415.69592,8669157,0.95,0.09574468,21.002632,52.391968,-0.0017524548,0.0034741163,-0.052039146,0.0,0.0,0.0
562.5962,417.2965,8669174,0.925,0.08510638,83.15318,97.245926,-0.0017524548,0.0034741163,-0.052039146,0.0,0.0,0.0
566.05164,421.5929,8669190,0.875,0.08510638,180.30212,207.17717,-0.0017524548,0.0034741163,-0.052039146,0.0,0.0,0.0
571.2068,428.90247,8669207,0.8625,0.08510638,305.62964,390.29153,-0.0017524548,0.0034741163,-0.052039146,0.0,0.0,0.0
575.883,437.18445,8669224,0.825,0.11702127,372.638,598.64,-0.0017524548,0.0034741163,-0.052039146,0.0,0.0,0.0
581.09094,444.55762,8669240,0.8125,0.12765957,383.37408,633.46155,-0.0017524548,0.0034741163,-0.052039146,0.0,0.0,0.0
587.3705,453.87756,8669257,0.8125,0.11702127,391.60132,624.03156,-0.0017524548,0.0034741163,-0.052039146,0.0,0.0,0.0
591.89325,461.20154,8669274,0.8,0.08510638,348.1957,536.7054,-0.0017524548,0.0034741163,-0.052039146,0.0,0.0,0.0
598.00336,472.4242,8669291,0.8125,0.08510638,339.71832,554.4729,-0.0017524548,0.0034741163,-0.052039146,0.0,0.0,0.0
601.21014,479.03186,8669307,0.825,0.08510638,291.81058,557.1095,-0.0017524548,0.0034741163,-0.052039146,0.0,0.0,0.0
603.03394,484.56763,8669324,0.83750004,0.08510638,154.59164,437.72263,-0.0017524548,0.0034741163,-0.052039146,0.0,0.0,0.0
604.0706,489.58167,8669341,0.8625,0.08510638,34.63707,300.76425,-0.0017524548,0.0034741163,-0.052039146,0.0,0.0,0.0
605.1098,493.27625,8669357,0.875,0.09574468,-46.478027,139.72481,-0.0017524548,0.0034741163,-0.052039146,0.0,0.0,0.0
605.78064,496.95654,8669374,0.85,0.09574468,-31.595398,109.28187,-0.0017524548,0.0034741163,-0.052039146,0.0,0.0,0.0
605.78064,499.91907,8669391,0.85,0.10638297,-8.308695,139.87373,-0.0017524548,0.0034741163,-0.052039146,0.0,0.0,0.0
604.8346,501.7854,8669408,0.8625,0.12765957,-41.54354,106.10067,-0.017401963,-0.037220687,0.0063695908,0.0,0.0,0.0
604.2811,504.5277,8669424,0.8625,0.12765957,-81.59466,102.92632,-0.017401963,-0.037220687,0.0063695908,0.0,0.0,0.0
603.2491,507.2693,8669441,0.83750004,0.12765957,-88.37359,123.865555,-0.017401963,-0.037220687,0.0063695908,0.0,0.0,0.0
601.6082,510.03162,8669458,0.83750004,0.12765957,-94.33176,151.29214,-0.017401963,-0.037220687,0.0063695908,0.0,0.0,0.0
600.6729,511.84863,8669474,0.8625,0.12765957,-90.91151,148.15948,-0.017401963,-0.037220687,0.0063695908,0.0,0.0,0.0
599.6118,513.73486,8669491,0.8625,0.10638297,-81.31401,112.990105,-0.017401963,-0.037220687,0.0063695908,0.0,0.0,0.0
598.5649,513.4313,8669508,0.85,0.11702127,-72.22669,30.601995,-0.017401963,-0.037220687,0.0063695908,0.0,0.0,0.0
596.5589,513.4313,8669525,0.8625,0.11702127,-85.29196,-37.7007,-0.017401963,-0.037220687,0.0063695908,0.0,0.0,0.0
595.0224,515.20825,8669541,0.8625,0.11702127,-109.56375,-1.5883659,-0.017401963,-0.037220687,0.0063695908,0.0,0.0,0.0
593.16956,516.6433,8669558,0.8625,0.11702127,-121.22376,61.66065,-0.017401963,-0.037220687,0.0063695908,0.0,0.0,0.0
591.4465,517.8738,8669575,0.875,0.11702127,-120.41324,125.53431,-0.017401963,-0.037220687,0.0063695908,0.0,0.0,0.0
590.0427,519.1942,8669591,0.8875,0.09574468,-93.18974,100.44744,-0.017401963,-0.037220687,0.0063695908,0.0,0.0,0.0
588.3664,521.2855,8669608,0.8875,0.09574468,-94.944046,99.6324,-0.017401963,-0.037220687,0.0063695908,0.0,0.0,0.0
587.3244,521.42773,8669625,0.8875,0.09574468,-75.56277,73.64765,-0.017401963,-0.037220687,0.0063695908,0.0,0.0,0.0
586.78687,521.42773,8669642,0.7875,0.11702127,-42.407887,15.21706,-0.017401963,-0.037220687,0.0063695908,0.0,0.0,0.0
585.7329,521.42773,8669658,0.2875,0.11702127,-32.964603,-25.37963,-0.017401963,-0.037220687,0.0063695908,0.0,0.0,0.0
585.7329,521.42773,8669665,0.2875,0.11702127,-32.964603,-25.37963,-0.017401963,-0.037220687,0.0063695908,0.0,0.0,0.0
599.2828,443.2395,8669891,0.90000004,0.08510638,0.0,0.0,-0.017401963,-0.037220687,0.0063695908,0.0,0.0,0.0
599.2828,443.2395,8669909,0.9375,0.08510638,-0.40771142,-0.3139514,-0.017401963,-0.037220687,0.0063695908,0.0,0.0,0.0
599.2828,443.2395,8669926,0.975,0.10638297,0.021766227,0.016560657,-0.017401963,-0.037220687,0.0063695908,0.0,0.0,0.0
599.2828,443.2395,8669939,0.9875,0.08510638,0.0068351533,0.005268563,0.0020784289,-0.029776543,-0.07490444,0.0,0.0,0.0
599.2828,443.2395,8669959,0.975,0.08510638,0.01038567,0.0069884104,0.0020784289,-0.029776543,-0.07490444,0.0,0.0,0.0
599.2828,443.2395,8669975,0.975,0.08510638,-0.009834442,-0.0073198928,0.0020784289,-0.029776543,-0.07490444,0.0,0.0,0.0
599.2828,443.2395,8670009,0.975,0.08510638,-0.032084268,-0.02248162,0.0020784289,-0.029776543,-0.07490444,0.0,0.0,0.0
599.2828,443.2395,8670026,0.9875,0.08510638,-0.04041498,-0.028580807,0.0020784289,-0.029776543,-0.07490444,0.0,0.0,0.0
599.2828,443.2395,8670043,0.95,0.08510638,-0.037620384,-0.027611876,0.0020784289,-0.029776543,-0.07490444,0.0,0.0,0.0
618.6222,428.2567,8670059,0.9375,0.08510638,544.76227,-421.30518,0.0020784289,-0.029776543,-0.07490444,0.0,0.0,0.0
625.9558,424.48865,8670076,0.90000004,0.08510638,976.1415,-686.8255,0.0020784289,-0.029776543,-0.07490444,0.0,0.0,0.0
631.0942,421.80103,8670093,0.8875,0.09574468,788.96277,-512.2166,0.0020784289,-0.029776543,-0.07490444,0.0,0.0,0.0
636.2682,421.02686,8670109,0.90000004,0.09574468,468.76135,-190.98521,0.0020784289,-0.029776543,-0.07490444,0.0,0.0,0.0
640.8854,421.02686,8670126,0.8875,0.09574468,135.79501,139.49188,0.0020784289,-0.029776543,-0.07490444,0.0,0.0,0.0
645.0158,421.02686,8670143,0.875,0.08510638,73.6654,205.23409,0.0020784289,-0.029776543,-0.07490444,0.0,0.0,0.0
649.15063,423.19666,8670160,0.8625,0.08510638,204.3359,142.48642,0.0020784289,-0.029776543,-0.07490444,0.0,0.0,0.0
653.30975,426.39758,8670176,0.83750004,0.08510638,227.21063,192.2892,0.0020784289,-0.029776543,-0.07490444,0.0,0.0,0.0
656.66754,430.09363,8670193,0.8125,0.08510638,221.75388,269.39462,0.0020784289,-0.029776543,-0.07490444,0.0,0.0,0.0
659.4966,434.2213,8670210,0.7875,0.08510638,179.53168,312.6099,0.0020784289,-0.029776543,-0.07490444,0.0,0.0,0.0
664.37286,442.5487,8670226,0.77500004,0.10638297,182.47484,393.7613,0.0020784289,-0.029776543,-0.07490444,0.0,0.0,0.0
668.4971,454.74316,8670243,0.77500004,0.10638297,247.49222,659.0176,0.0020784289,-0.029776543,-0.07490444,0.0,0.0,0.0
670.14606,464.94727,8670260,0.7625,0.08510638,215.63866,817.93335,0.0020784289,-0.029776543,-0.07490444,0.0,0.0,0.0
670.7595,475.1604,8670277,0.77500004,0.08510638,104.946335,827.5406,0.0020784289,-0.029776543,-0.07490444,0.0,0.0,0.0
669.1923,483.52295,8670293,0.77500004,0.06382979,-86.54198,637.29156,0.0020784289,-0.029776543,-0.07490444,0.0,0.0,0.0
667.11523,490.84705,8670310,0.77500004,0.08510638,-214.81909,451.1374,0.0020784289,-0.029776543,-0.07490444,0.0,0.0,0.0
663.91113,498.26892,8670327,0.7875,0.10638297,-259.28528,388.82074,0.0020784289,-0.029776543,-0.07490444,0.0,0.0,0.0
660.72174,503.7306,8670343,0.7875,0.10638297,-274.4324,324.39536,0.0020784289,-0.029776543,-0.07490444,0.0,0.0,0.0
657.493,509.12756,8670360,0.8,0.12765957,-254.27458,278.38037,0.0020784289,-0.029776543,-0.07490444,0.0,0.0,0.0
654.0707,514.6649,8670377,0.7875,0.11702127,-228.37808,267.4009,0.0020784289,-0.029776543,-0.07490444,0.0,0.0,0.0
651.2264,519.2416,8670393,0.7875,0.09574468,-204.96623,275.84116,0.0020784289,-0.029776543,-0.07490444,0.0,0.0,0.0
648.3642,522.49695,8670410,0.77500004,0.09574468,-172.98917,220.25783,0.0020784289,-0.029776543,-0.07490444,0.0,0.0,0.0
643.9137,528.5641,8670427,0.77500004,0.08510638,-197.41069,228.45178,0.0020784289,-0.029776543,-0.07490444,0.0,0.0,0.0
641.0021,531.88293,8670444,0.77500004,0.07446808,-220.6454,245.51085,0.0020784289,-0.029776543,-0.07490444,0.0,0.0,0.0
639.4184,532.8462,8670460,0.7875,0.07446808,-175.58035,159.82762,0.0020784289,-0.029776543,-0.07490444,0.0,0.0,0.0
638.3073,532.9783,8670477,0.8,0.07446808,-81.254074,23.506302,0.033662736,0.016178727,-0.011922836,0.0,0.0,0.0
637.2702,532.9783,8670494,0.8125,0.07446808,-3.4878027,-103.73581,0.033662736,0.016178727,-0.011922836,0.0,0.0,0.0
635.6786,532.9783,8670510,0.8125,0.08510638,-14.700945,-107.95043,0.033662736,0.016178727,-0.011922836,0.0,0.0,0.0
634.6887,532.9783,8670527,0.83750004,0.08510638,-57.632023,-41.441936,0.033662736,0.016178727,-0.011922836,0.0,0.0,0.0
633.63983,531.8557,8670544,0.8125,0.08510638,-67.96584,-38.89873,0.033662736,0.016178727,-0.011922836,0.0,0.0,0.0
633.2717,529.9873,8670561,0.825,0.08510638,-49.470505,-88.374084,0.033662736,0.016178727,-0.011922836,0.0,0.0,0.0
634.00543,524.6228,8670577,0.825,0.12765957,11.126595,-227.72223,0.033662736,0.016178727,-0.011922836,0.0,0.0,0.0
635.74194,520.17224,8670594,0.8625,0.12765957,104.83528,-364.17255,0.033662736,0.016178727,-0.011922836,0.0,0.0,0.0
638.09735,514.6267,8670611,0.875,0.12765957,173.23201,-418.99994,0.033662736,0.016178727,-0.011922836,0.0,0.0,0.0
640.7126,509.97803,8670627,0.8875,0.11702127,210.86124,-379.9919,0.033662736,0.016178727,-0.011922836,0.0,0.0,0.0
644.2956,505.9944,8670644,0.9125,0.10638297,232.41728,-292.37317,0.033662736,0.016178727,-0.011922836,0.0,0.0,0.0
648.3245,502.9657,8670661,0.90000004,0.10638297,257.88345,-205.41559,0.033662736,0.016178727,-0.011922836,0.0,0.0,0.0
653.4047,501.12024,8670678,0.8875,0.09574468,305.69394,-107.29243,0.033662736,0.016178727,-0.011922836,0.0,0.0,0.0
659.5969,500.10364,8670694,0.90000004,0.09574468,371.3384,-36.208084,0.033662736,0.016178727,-0.011922836,0.0,0.0,0.0
664.8433,500.10364,8670711,0.8875,0.09574468,395.39255,31.731068,0.033662736,0.016178727,-0.011922836,0.0,0.0,0.0
670.0359,501.97888,8670728,0.8875,0.10638297,370.02948,114.64503,0.033662736,0.016178727,-0.011922836,0.0,0.0,0.0
675.2207,503.82214,8670744,0.875,0.10638297,327.28827,173.67497,0.033662736,0.016178727,-0.011922836,0.0,0.0,0.0
680.47046,506.8308,8670761,0.85,0.12765957,296.3675,218.7452,0.033662736,0.016178727,-0.011922836,0.0,0.0,0.0
685.7107,510.55676,8670778,0.85,0.12765957,298.0591,256.21085,0.033662736,0.016178727,-0.011922836,0.0,0.0,0.0
691.5313,514.1886,8670795,0.85,0.11702127,326.56485,274.32855,0.033662736,0.016178727,-0.011922836,0.0,0.0,0.0
699.0051,517.8762,8670811,0.85,0.10638297,404.68066,273.2274,0.033662736,0.016178727,-0.011922836,0.0,0.0,0.0
705.49524,521.05664,8670828,0.85,0.10638297,456.34933,240.0369,0.033662736,0.016178727,-0.011922836,0.0,0.0,0.0
712.5435,522.89954,8670845,0.8125,0.09574468,460.0916,151.36847,0.033662736,0.016178727,-0.011922836,0.0,0.0,0.0
719.71387,524.72046,8670861,0.77500004,0.08510638,438.94037,83.54193,0.033662736,0.016178727,-0.011922836,0.0,0.0,0.0
728.19415,525.87024,8670878,0.71250004,0.09574468,447.75125,42.138607,0.033662736,0.016178727,-0.011922836,0.0,0.0,0.0
737.44366,525.87024,8670895,0.575,0.11702127,556.7629,-3.6780205,0.033662736,0.016178727,-0.011922836,0.0,0.0,0.0
737.7377,525.87024,8670896,0.3375,0.12765957,556.00195,-7.3554535,0.033662736,0.016178727,-0.011922836,0.0,0.0,0.0
737.7377,525.87024,8670905,0.3375,0.12765957,556.00195,-7.3554535,0.033662736,0.016178727,-0.011922836,0.0,0.0,0.0
640.7693,456.56702,8671129,0.85,0.12765957,0.0,0.0,0.042930193,0.028942943,-0.04153824,0.0,0.0,0.0
640.7693,456.56702,8671145,0.875,0.12765957,3.8663034,2.7691023,0.042930193,0.028942943,-0.04153824,0.0,0.0,0.0
640.7693,456.56702,8671162,0.90000004,0.12765957,0.012766779,0.0085510295,0.042930193,0.028942943,-0.04153824,0.0,0.0,0.0
640.7693,456.56702,8671174,0.8875,0.12765957,-0.04412392,-0.03085821,0.042930193,0.028942943,-0.04153824,0.0,0.0,0.0
640.7693,456.56702,8671196,0.8625,0.12765957,0.031376626,0.02326511,0.042930193,0.028942943,-0.04153824,0.0,0.0,0.0
640.7693,456.56702,8671212,0.8625,0.10638297,-0.03181002,-0.022239868,0.042930193,0.028942943,-0.04153824,0.0,0.0,0.0
662.3354,461.42517,8671229,0.825,0.10638297,691.9635,158.26085,0.042930193,0.028942943,-0.04153824,0.0,0.0,0.0
671.95605,463.27454,8671246,0.8,0.09574468,1127.4258,243.38725,0.042930193,0.028942943,-0.04153824,0.0,0.0,0.0
680.5777,465.1206,8671262,0.75,0.09574468,1099.1146,233.13289,0.042930193,0.028942943,-0.04153824,0.0,0.0,0.0
696.01135,466.9674,8671279,0.675,0.11702127,889.75195,154.61478,0.042930193,0.028942943,-0.04153824,0.0,0.0,0.0
702.7491,467.22913,8671290,0.2875,0.10638297,835.4084,99.97391,0.042930193,0.028942943,-0.04153824,0.0,0.0,0.0
702.7491,467.22913,8671297,0.2875,0.10638297,835.4084,99.97391,0.042930193,0.028942943,-0.04153824,0.0,0.0,0.0
797.71814,437.0199,8671580,0.85,0.08510638,0.0,0.0,0.0023441538,-0.02484563,-0.0012302399,0.0,0.0,0.0
797.71814,437.0199,8671613,0.95,0.08510638,-0.026230186,-0.014607904,0.0023441538,-0.02484563,-0.0012302399,0.0,0.0,0.0
797.71814,437.0199,8671630,0.96250004,0.08510638,0.0067969556,0.0036365576,0.0023441538,-0.02484563,-0.0012302399,0.0,0.0,0.0
797.71814,437.0199,8671647,0.95,0.08510638,0.010900941,0.0060724025,0.0023441538,-0.02484563,-0.0012302399,0.0,0.0,0.0
797.71814,437.0199,8671663,0.925,0.08510638,0.034147236,0.01927721,0.0023441538,-0.02484563,-0.0012302399,0.0,0.0,0.0
797.71814,437.0199,8671680,0.95,0.08510638,-0.018039815,-0.009139649,0.0023441538,-0.02484563,-0.0012302399,0.0,0.0,0.0
797.71814,437.0199,8671697,0.95,0.09574468,0.007048412,0.004491217,0.0023441538,-0.02484563,-0.0012302399,0.0,0.0,0.0
797.71814,437.0199,8671714,0.96250004,0.09574468,-0.008533536,-0.0055138534,0.0023441538,-0.02484563,-0.0012302399,0.0,0.0,0.0
787.40607,441.75037,8671730,0.9375,0.10638297,-178.81601,81.99191,0.0023441538,-0.02484563,-0.0012302399,0.0,0.0,0.0
775.02325,447.20947,8671747,0.9125,0.12765957,-824.66895,367.1367,0.0023441538,-0.02484563,-0.0012302399,0.0,0.0,0.0
770.14124,449.9796,8671764,0.90000004,0.12765957,-871.20935,399.17874,0.0023441538,-0.02484563,-0.0012302399,0.0,0.0,0.0
766.4266,453.72534,8671780,0.9125,0.12765957,-591.767,339.7608,0.0023441538,-0.02484563,-0.0012302399,0.0,0.0,0.0
763.25964,457.41968,8671797,0.9125,0.11702127,-152.93216,216.54836,0.0023441538,-0.02484563,-0.0012302399,0.0,0.0,0.0
759.2086,465.5044,8671814,0.925,0.09574468,27.251305,293.4122,0.0023441538,-0.02484563,-0.0012302399,2.9360124E-6,0.0,0.0
756.59393,473.0492,8671831,0.9125,0.09574468,-135.6738,501.9407,0.0023441538,-0.02484563,-0.0012302399,2.9360124E-6,0.0,0.0
755.6149,480.70667,8671847,0.875,0.09574468,-106.01576,560.878,0.0023441538,-0.02484563,-0.0012302399,2.9360124E-6,0.0,0.0
755.7318,486.82764,8671864,0.83750004,0.09574468,-4.579198,518.3072,0.0023441538,-0.02484563,-0.0012302399,2.9360124E-6,0.0,0.0
757.1086,493.11267,8671881,0.8125,0.11702127,109.67862,416.21432,0.0023441538,-0.02484563,-0.0012302399,0.0,0.0,0.0
759.1888,498.65918,8671897,0.8125,0.12765957,180.10121,329.81747,0.0023441538,-0.02484563,-0.0012302399,0.0,0.0,0.0
761.7669,504.61194,8671914,0.7875,0.12765957,210.20964,318.58865,0.0023441538,-0.02484563,-0.0012302399,0.0,0.0,0.0
764.6475,508.844,8671931,0.7875,0.10638297,222.22092,265.5185,0.0023441538,-0.02484563,-0.0012302399,0.0,0.0,0.0
768.0128,513.3668,8671948,0.8,0.09574468,222.79288,235.94559,0.0023441538,-0.02484563,-0.0012302399,0.0,0.0,0.0
771.6819,517.3898,8671964,0.83750004,0.08510638,233.59856,216.8641,0.0023441538,-0.02484563,-0.0012302399,0.0,0.0,0.0
774.0641,519.50696,8671981,0.8625,0.08510638,218.49269,161.27335,0.0023441538,-0.02484563,-0.0012302399,0.0,0.0,0.0
776.64734,521.35876,8671998,0.8625,0.08510638,172.05052,95.21389,0.0023441538,-0.02484563,-0.0012302399,0.0,0.0,0.0
778.7309,522.3163,8672014,0.85,0.08510638,118.682594,27.213783,0.0023441538,-0.02484563,-0.0012302399,0.0,0.0,0.0
779.76697,522.3163,8672031,0.825,0.09574468,66.13139,-32.04917,0.0023441538,-0.02484563,-0.0012302399,0.0,0.0,0.0
780.8065,522.3163,8672048,0.8125,0.09574468,38.353237,-49.738373,0.0023441538,-0.02484563,-0.0012302399,0.0,0.0,0.0
781.8459,522.3163,8672064,0.7875,0.08510638,29.37415,-48.962505,0.0023441538,-0.02484563,-0.0012302399,0.0,0.0,0.0
782.47314,520.0951,8672081,0.75,0.08510638,12.4025135,-92.806244,-0.01412468,-0.0038765073,-0.01698494,0.0,0.0,0.0
784.01764,516.8142,8672098,0.7375,0.10638297,40.672043,-161.85297,-0.01412468,-0.0038765073,-0.01698494,0.0,0.0,0.0
788.88196,507.8595,8672115,0.75,0.08510638,179.06187,-400.09958,-0.01412468,-0.0038765073,-0.01698494,0.0,0.0,0.0
795.3287,493.09875,8672131,0.77500004,0.07446808,387.43744,-831.15894,-0.01412468,-0.0038765073,-0.01698494,0.0,0.0,0.0
799.09735,481.5055,8672148,0.7625,0.08510638,439.36127,-1044.8483,-0.01412468,-0.0038765073,-0.01698494,0.0,0.0,0.0
801.89124,472.22937,8672165,0.77500004,0.11702127,307.96252,-916.09375,-0.01412468,-0.0038765073,-0.01698494,0.0,0.0,0.0
803.08923,464.5791,8672181,0.7875,0.12765957,103.057274,-586.4089,-0.01412468,-0.0038765073,-0.01698494,0.0,0.0,0.0
803.2164,458.88013,8672198,0.7875,0.12765957,-50.76162,-287.47482,-0.01412468,-0.0038765073,-0.01698494,0.0,0.0,0.0
803.2164,454.92102,8672215,0.8125,0.11702127,-88.488884,-159.7102,-0.01412468,-0.0038765073,-0.01698494,0.0,0.0,0.0
803.2164,452.0985,8672232,0.825,0.11702127,-73.73836,-96.91291,-0.01412468,-0.0038765073,-0.01698494,0.0,0.0,0.0
803.2164,450.25452,8672248,0.825,0.11702127,-43.222588,-33.9526,-0.01412468,-0.0038765073,-0.01698494,0.0,0.0,0.0
803.2164,448.4087,8672265,0.825,0.11702127,-12.321006,-20.20286,-0.01412468,-0.0038765073,-0.01698494,0.0,0.0,0.0
802.07666,447.682,8672282,0.83750004,0.10638297,-30.6594,-15.748884,-0.01412468,-0.0038765073,-0.01698494,0.0,0.0,0.0
801.53,447.682,8672298,0.825,0.10638297,-51.133312,16.786625,-0.01412468,-0.0038765073,-0.01698494,0.0,0.0,0.0
800.71716,447.682,8672315,0.825,0.12765957,-68.81551,40.68245,-0.01412468,-0.0038765073,-0.01698494,0.0,0.0,0.0
800.71716,449.00977,8672332,0.85,0.12765957,-41.82486,83.082306,-0.01412468,-0.0038765073,-0.01698494,0.0,0.0,0.0
801.00256,452.7577,8672349,0.8125,0.12765957,6.6507545,170.82962,-0.01412468,-0.0038765073,-0.01698494,0.0,0.0,0.0
802.04156,458.87585,8672365,0.7875,0.11702127,58.89138,334.97296,-0.01412468,-0.0038765073,-0.01698494,0.0,0.0,0.0
803.92426,469.22693,8672382,0.77500004,0.09574468,118.77656,589.08905,-0.01412468,-0.0038765073,-0.01698494,0.0,0.0,0.0
806.3962,479.61157,8672399,0.7625,0.08510638,162.26302,784.62366,-0.01412468,-0.0038765073,-0.01698494,0.0,0.0,0.0
809.48346,488.89478,8672415,0.75,0.09574468,208.12851,789.44244,-0.01412468,-0.0038765073,-0.01698494,0.0,0.0,0.0
812.1648,494.68628,8672432,0.725,0.10638297,223.4411,603.3485,-0.01412468,-0.0038765073,-0.01698494,0.0,0.0,0.0
815.82196,501.18713,8672449,0.75,0.10638297,222.48077,353.79694,-0.01412468,-0.0038765073,-0.01698494,0.0,0.0,0.0
822.1484,509.54492,8672466,0.7375,0.09574468,304.02658,318.16843,-0.01412468,-0.0038765073,-0.01698494,0.0,0.0,0.0
828.3106,515.7435,8672482,0.7375,0.09574468,405.35223,375.91287,-0.01412468,-0.0038765073,-0.01698494,0.0,0.0,0.0
838.5173,520.2363,8672499,0.6875,0.09574468,553.9776,358.0618,-0.01412468,-0.0038765073,-0.01698494,0.0,0.0,0.0
856.6541,520.5393,8672516,0.65000004,0.11702127,899.47925,171.93747,-0.01412468,-0.0038765073,-0.01698494,0.0,0.0,0.0
873.1468,515.8347,8672532,0.625,0.10638297,1181.5931,-189.57439,-0.01412468,-0.0038765073,-0.01698494,0.0,0.0,0.0
890.02325,508.93372,8672549,0.575,0.10638297,1339.7058,-544.1007,-0.01412468,-0.0038765073,-0.01698494,0.0,0.0,0.0
900.14795,502.43994,8672566,0.5375,0.10638297,1033.2019,-662.8485,-0.01412468,-0.0038765073,-0.01698494,0.0,0.0,0.0
909.10925,494.97888,8672582,0.3375,0.09574468,530.2802,-608.25244,-0.01412468,-0.0038765073,-0.01698494,0.0,0.0,0.0
911.1812,492.9956,8672585,0.2125,0.09574468,511.92828,-618.9849,-0.01412468,-0.0038765073,-0.01698494,0.0,0.0,0.0
911.1812,492.9956,8672593,0.2125,0.09574468,511.92828,-618.9849,-0.01412468,-0.0038765073,-0.01698494,0.0,0.0,0.0
818.7113,313.51794,8672876,0.9375,0.08510638,0.0,0.0,-0.027299747,-0.0031012297,0.018411636,0.0,0.0,0.0
818.7113,313.51794,8672900,0.975,0.08510638,0.097761296,0.039781805,-0.027299747,-0.0031012297,0.018411636,0.0,0.0,0.0
818.7113,313.51794,8672917,0.925,0.08510638,-0.02411074,-0.00895514,-0.027299747,-0.0031012297,0.018411636,0.0,0.0,0.0
818.7113,313.51794,8672933,0.83750004,0.08510638,-0.024306737,-0.008939603,-0.027299747,-0.0031012297,0.018411636,0.0,0.0,0.0
823.2072,333.49744,8672950,0.7875,0.10638297,186.25626,827.69305,-0.027299747,-0.0031012297,0.018411636,0.0,0.0,0.0
826.9637,348.18774,8672967,0.725,0.09574468,273.39578,1168.6975,-0.027299747,-0.0031012297,0.018411636,0.0,0.0,0.0
832.11053,366.12683,8672984,0.6625,0.06382979,386.72803,1492.4965,-0.027299747,-0.0031012297,0.018411636,0.0,0.0,0.0
832.7068,367.71667,8672988,0.4,0.08510638,384.771,1450.9716,-0.027299747,-0.0031012297,0.018411636,0.0,0.0,0.0
832.7068,367.71667,8672996,0.4,0.08510638,384.771,1450.9716,-0.027299747,-0.0031012297,0.018411636,0.0,0.0,0.0
940.67163,493.88416,8673504,0.6375,0.06382979,0.0,0.0,0.0741602,-0.0024809837,0.18272972,0.0,0.0,0.0
940.67163,493.88416,8673535,0.75,0.08510638,-0.0705216,-0.03938312,0.0741602,-0.0024809837,0.18272972,0.0,0.0,0.0
940.67163,493.88416,8673549,0.7875,0.08510638,0.08633369,0.043032795,0.0741602,-0.0024809837,0.18272972,0.0,0.0,0.0
940.67163,493.88416,8673568,0.8,0.08510638,0.046529897,0.024628507,0.0741602,-0.0024809837,0.18272972,0.0,0.0,0.0
940.67163,493.88416,8673585,0.7875,0.08510638,-0.04087086,-0.022563508,0.0741602,-0.0024809837,0.18272972,0.0,0.0,0.0
940.67163,493.88416,8673597,0.8125,0.08510638,0.047277864,0.024626061,0.0741602,-0.0024809837,0.18272972,0.0,0.0,0.0
940.67163,493.88416,8673617,0.8125,0.06382979,-0.05334375,-0.028481724,0.0741602,-0.0024809837,0.18272972,0.0,0.0,0.0
940.67163,493.88416,8673635,0.7875,0.06382979,0.020081237,0.01173618,0.0741602,-0.0024809837,0.18272972,0.0,0.0,0.0
940.8686,487.2317,8673652,0.8125,0.08510638,3.2647977,-111.56806,0.0741602,-0.0024809837,0.18272972,0.0,0.0,0.0
941.6713,468.31226,8673669,0.825,0.10638297,35.000828,-889.35803,-0.03667184,0.014015198,-0.05381584,0.0,0.0,0.0
941.6713,458.5558,8673685,0.825,0.09574468,35.79211,-1165.9613,-0.03667184,0.014015198,-0.05381584,0.0,0.0,0.0
941.35406,449.3048,8673702,0.83750004,0.08510638,11.408368,-1020.5791,-0.03667184,0.014015198,-0.05381584,0.0,0.0,0.0
939.9649,439.21045,8673719,0.83750004,0.08510638,-52.334232,-654.7041,-0.03667184,0.014015198,-0.05381584,0.0,0.0,0.0
936.9983,430.6831,8673736,0.85,0.08510638,-156.28279,-350.71475,-0.03667184,0.014015198,-0.05381584,0.0,0.0,0.0
933.8902,424.96545,8673752,0.85,0.08510638,-231.23073,-419.98465,-0.03667184,0.014015198,-0.05381584,0.0,0.0,0.0
931.262,421.13025,8673769,0.875,0.10638297,-247.91046,-262.55408,-0.03667184,0.014015198,-0.05381584,0.0,0.0,0.0
928.12854,417.417,8673786,0.8625,0.11702127,-219.11584,-114.7497,-0.03667184,0.014015198,-0.05381584,0.0,0.0,0.0
925.0159,415.6007,8673802,0.85,0.11702127,-196.51576,-37.37903,-0.03667184,0.014015198,-0.05381584,0.0,0.0,0.0
922.98773,413.75037,8673819,0.85,0.11702127,-160.34967,-30.657255,-0.03667184,0.014015198,-0.05381584,0.0,0.0,0.0
922.0395,413.91882,8673836,0.85,0.11702127,-99.1443,9.922963,-0.03667184,0.014015198,-0.05381584,0.0,0.0,0.0
920.9749,413.91882,8673852,0.83750004,0.11702127,-37.1035,55.770634,-0.03667184,0.014015198,-0.05381584,0.0,0.0,0.0
921.38055,413.91882,8673869,0.83750004,0.11702127,27.358393,70.51061,-0.03667184,0.014015198,-0.05381584,0.0,0.0,0.0
923.6714,414.3606,8673886,0.825,0.08510638,104.52795,49.76653,-0.03667184,0.014015198,-0.05381584,0.0,0.0,0.0
929.90576,416.20837,8673903,0.825,0.08510638,296.72186,76.63931,-0.03667184,0.014015198,-0.05381584,0.0,0.0,0.0
936.46277,419.52393,8673919,0.8125,0.08510638,491.27618,168.34642,-0.03667184,0.014015198,-0.05381584,0.0,0.0,0.0
942.7866,422.542,8673936,0.825,0.08510638,558.6499,254.12343,-0.03667184,0.014015198,-0.05381584,0.0,0.0,0.0
948.59644,425.95093,8673953,0.8125,0.08510638,489.0378,265.7904,-0.03667184,0.014015198,-0.05381584,0.0,0.0,0.0
953.42413,429.6958,8673969,0.8,0.08510638,356.61957,253.37509,-0.03667184,0.014015198,-0.05381584,0.0,0.0,0.0
957.10974,433.39893,8673986,0.7875,0.08510638,236.89464,238.50758,-0.03667184,0.014015198,-0.05381584,0.0,0.0,0.0
959.7208,437.1184,8674003,0.7625,0.10638297,145.17758,233.15146,-0.03667184,0.014015198,-0.05381584,0.0,0.0,0.0
961.79395,440.80347,8674020,0.7375,0.12765957,80.58033,238.1137,-0.03667184,0.014015198,-0.05381584,0.0,0.0,0.0
965.9678,449.29175,8674036,0.725,0.12765957,120.96234,361.62558,-0.03667184,0.014015198,-0.05381584,0.0,0.0,0.0
967.9785,456.80078,8674053,0.71250004,0.11702127,142.65033,490.0886,-0.03667184,0.014015198,-0.05381584,0.0,0.0,0.0
968.1627,463.96936,8674070,0.725,0.09574468,90.8899,546.9215,-0.03667184,0.014015198,-0.05381584,0.0,0.0,0.0
968.6625,471.05725,8674086,0.7375,0.09574468,-4.921977,505.0307,-0.03667184,0.014015198,-0.05381584,0.0,0.0,0.0
968.6625,476.6023,8674103,0.75,0.08510638,-71.62286,384.01846,-0.03667184,0.014015198,-0.05381584,0.0,0.0,0.0
968.9619,481.2649,8674120,0.75,0.08510638,-44.007378,294.19177,-0.03667184,0.014015198,-0.05381584,0.0,0.0,0.0
970.2833,485.21472,8674137,0.7375,0.08510638,20.861078,205.84213,-0.03667184,0.014015198,-0.05381584,0.0,0.0,0.0
972.0338,488.3263,8674153,0.725,0.08510638,98.50236,146.66281,-0.03667184,0.014015198,-0.05381584,0.0,0.0,0.0
974.39307,491.79028,8674170,0.71250004,0.08510638,156.00342,131.27583,-0.03667184,0.014015198,-0.05381584,0.0,0.0,0.0
978.9094,495.48364,8674187,0.6875,0.10638297,233.31723,159.83347,-0.03667184,0.014015198,-0.05381584,0.0,0.0,0.0
984.62366,499.1953,8674203,0.675,0.09574468,339.57938,201.08713,-0.013337474,0.027212143,0.06094742,0.0,0.0,0.0
992.9956,502.89038,8674220,0.675,0.08510638,489.37454,232.57481,-0.013337474,0.027212143,0.06094742,0.0,0.0,0.0
1001.2163,504.6715,8674237,0.6625,0.10638297,603.71124,182.68639,-0.013337474,0.027212143,0.06094742,0.0,0.0,0.0
1010.08154,504.54614,8674254,0.6625,0.10638297,636.4742,50.411633,-0.013337474,0.027212143,0.06094742,0.0,0.0,0.0
1019.89844,502.5017,8674270,0.4875,0.11702127,651.65216,-109.9732,-0.013337474,0.027212143,0.06094742,0.0,0.0,0.0
1021.64526,501.88074,8674276,0.2125,0.09574468,618.94653,-163.29604,-0.013337474,0.027212143,0.06094742,0.0,0.0,0.0
1021.64526,501.88074,8674283,0.2125,0.09574468,618.94653,-163.29604,-0.013337474,0.027212143,0.06094742,0.0,0.0,0.0
1049.1364,432.5774,8674591,0.725,0.06382979,0.0,0.0,-0.013337474,0.027212143,0.06094742,0.0,0.0,0.0
1049.1364,432.5774,8674619,0.83750004,0.08510638,-0.010646757,-0.005844884,-0.013337474,0.027212143,0.06094742,0.0,0.0,0.0
1049.1364,432.5774,8674638,0.875,0.08510638,0.012704828,0.0017518157,-0.013337474,0.027212143,0.06094742,0.0,0.0,0.0
1049.1364,432.5774,8674655,0.83750004,0.09574468,-0.026725065,-0.009819799,-0.013337474,0.027212143,0.06094742,0.0,0.0,0.0
1049.1364,432.5774,8674667,0.8125,0.09574468,0.063214526,0.024079302,-0.013337474,0.027212143,0.06094742,0.0,0.0,0.0
1033.0845,442.41663,8674688,0.7875,0.10638297,-423.60315,259.59915,-0.013337474,0.027212143,0.06094742,0.0,0.0,0.0
1025.9886,447.29248,8674705,0.7625,0.12765957,-747.05444,469.45874,-0.013337474,0.027212143,0.06094742,0.0,0.0,0.0
1018.64185,454.92126,8674721,0.75,0.09574468,-807.97754,611.8809,-0.013337474,0.027212143,0.06094742,0.0,0.0,0.0
1014.2201,460.22156,8674738,0.7625,0.08510638,-566.2547,542.7306,0.0053300187,-0.010230243,-0.03924179,0.0,0.0,0.0
1008.3259,473.50122,8674755,0.75,0.06382979,-304.26883,615.04095,0.0053300187,-0.010230243,-0.03924179,0.0,0.0,0.0
1005.1599,482.30078,8674771,0.75,0.06382979,-93.45345,648.4695,0.0053300187,-0.010230243,-0.03924179,0.0,0.0,0.0
1003.0812,489.69092,8674788,0.7375,0.07446808,-116.83834,626.28735,0.0053300187,-0.010230243,-0.03924179,0.0,0.0,0.0
1002.6515,496.09924,8674805,0.75,0.09574468,-8.818502,445.05246,0.0053300187,-0.010230243,-0.03924179,0.0,0.0,0.0
1002.6515,502.01746,8674822,0.7375,0.10638297,96.52885,261.38785,0.0053300187,-0.010230243,-0.03924179,0.0,0.0,0.0
1004.4424,506.8412,8674838,0.7375,0.10638297,138.38692,243.72145,0.0053300187,-0.010230243,-0.03924179,0.0,0.0,0.0
1006.51514,510.64575,8674855,0.725,0.10638297,182.73076,217.33342,0.0053300187,-0.010230243,-0.03924179,0.0,0.0,0.0
1008.60254,513.34766,8674872,0.7,0.09574468,203.06042,136.72173,0.0053300187,-0.010230243,-0.03924179,0.0,0.0,0.0
1012.5531,516.05457,8674888,0.7,0.10638297,227.71649,96.50024,0.0053300187,-0.010230243,-0.03924179,0.0,0.0,0.0
1017.92834,517.974,8674905,0.7,0.11702127,307.98874,77.47106,0.0053300187,-0.010230243,-0.03924179,0.0,0.0,0.0
1026.601,518.7622,8674922,0.71250004,0.10638297,453.1336,48.6916,0.0053300187,-0.010230243,-0.03924179,0.0,0.0,0.0
1035.9934,515.5625,8674939,0.71250004,0.10638297,625.4462,-89.10555,0.0053300187,-0.010230243,-0.03924179,0.0,0.0,0.0
1047.0817,509.6139,8674955,0.7375,0.09574468,751.3077,-321.19138,0.0053300187,-0.010230243,-0.03924179,0.0,0.0,0.0
1055.9268,502.06482,8674972,0.7375,0.08510638,718.74744,-558.143,0.0053300187,-0.010230243,-0.03924179,0.0,0.0,0.0
1064.2358,492.85645,8674989,0.7375,0.07446808,591.2447,-681.1282,0.0053300187,-0.010230243,-0.03924179,0.0,0.0,0.0
1071.64,483.20264,8675005,0.7375,0.09574468,459.4765,-713.3046,0.0053300187,-0.010230243,-0.03924179,0.0,0.0,0.0
1077.0018,474.55994,8675022,0.7625,0.12765957,330.78958,-664.91815,0.0053300187,-0.010230243,-0.03924179,0.0,0.0,0.0
1081.2578,463.87646,8675039,0.7625,0.12765957,226.8294,-631.8343,0.0053300187,-0.010230243,-0.03924179,0.0,0.0,0.0
1083.0415,457.0133,8675056,0.77500004,0.11702127,93.48371,-545.33514,0.0053300187,-0.010230243,-0.03924179,0.0,0.0,0.0
1081.7197,451.48645,8675072,0.8,0.09574468,-72.12758,-384.0423,0.0053300187,-0.010230243,-0.03924179,0.0,0.0,0.0
1079.1959,446.91675,8675089,0.8125,0.09574468,-235.49535,-252.1156,0.0053300187,-0.010230243,-0.03924179,0.0,0.0,0.0
1075.4756,442.14807,8675106,0.8125,0.08510638,-337.47177,-164.20885,0.0053300187,-0.010230243,-0.03924179,0.0,0.0,0.0
1067.5049,436.60315,8675122,0.83750004,0.08510638,-474.22586,-206.5321,0.0053300187,-0.010230243,-0.03924179,0.0,0.0,0.0
1059.1211,432.1278,8675139,0.83750004,0.08510638,-587.0023,-278.5824,0.0053300187,-0.010230243,-0.03924179,0.0,0.0,0.0
1050.7277,428.39783,8675156,0.85,0.08510638,-641.1648,-256.27835,0.0053300187,-0.010230243,-0.03924179,0.0,0.0,0.0
1045.1891,428.1349,8675173,0.85,0.08510638,-567.2444,-133.07,0.0053300187,-0.010230243,-0.03924179,0.0,0.0,0.0
1040.9451,428.1349,8675189,0.85,0.09574468,-374.00818,32.50532,0.0053300187,-0.010230243,-0.03924179,0.0,0.0,0.0
1037.326,428.1349,8675206,0.825,0.09574468,-166.26628,115.97057,0.0053300187,-0.010230243,-0.03924179,0.0,0.0,0.0
1034.2062,428.68872,8675223,0.825,0.09574468,-93.657555,102.539474,0.0053300187,-0.010230243,-0.03924179,0.0,0.0,0.0
1031.9391,430.53638,8675239,0.825,0.09574468,-81.45887,105.12429,0.0053300187,-0.010230243,-0.03924179,0.0,0.0,0.0
1029.8612,433.0775,8675256,0.83750004,0.09574468,-82.44723,147.77841,0.0053300187,-0.010230243,-0.03924179,0.0,0.0,0.0
1028.7286,436.7151,8675273,0.8125,0.09574468,-61.71441,234.03516,-0.011735987,-0.024184197,-0.03139305,0.0,0.0,0.0
1028.643,440.45667,8675290,0.8,0.09574468,-5.184924,284.41092,-0.011735987,-0.024184197,-0.03139305,0.0,0.0,0.0
1029.1482,441.47205,8675306,0.7875,0.10638297,49.97901,198.59076,-0.011735987,-0.024184197,-0.03139305,0.0,0.0,0.0
1032.823,445.1775,8675323,0.7875,0.12765957,169.2969,165.47124,-0.011735987,-0.024184197,-0.03139305,0.0,0.0,0.0
1038.7318,449.9099,8675340,0.8,0.10638297,336.55917,200.71597,-0.011735987,-0.024184197,-0.03139305,0.0,0.0,0.0
1045.3824,453.45435,8675356,0.8125,0.10638297,488.7195,253.90068,-0.011735987,-0.024184197,-0.03139305,0.0,0.0,0.0
1052.3081,457.16248,8675373,0.8,0.10638297,553.80426,282.21027,-0.011735987,-0.024184197,-0.03139305,0.0,0.0,0.0
1059.3682,458.344,8675390,0.77500004,0.10638297,540.07086,194.41013,-0.011735987,-0.024184197,-0.03139305,0.0,0.0,0.0
1064.8524,458.344,8675407,0.7875,0.12765957,417.02606,6.9144597,-0.011735987,-0.024184197,-0.03139305,0.0,0.0,0.0
1069.7644,458.344,8675423,0.8,0.12765957,314.10175,-82.46753,-0.011735987,-0.024184197,-0.03139305,0.0,0.0,0.0
1073.9175,456.8828,8675440,0.8,0.12765957,234.4617,-130.6047,-0.011735987,-0.024184197,-0.03139305,0.0,0.0,0.0
1078.4078,455.04553,8675457,0.7875,0.12765957,188.6073,-154.30804,-0.011735987,-0.024184197,-0.03139305,0.0,0.0,0.0
1083.1996,452.3136,8675473,0.8,0.11702127,230.3154,-188.64462,-0.011735987,-0.024184197,-0.03139305,0.0,0.0,0.0
1086.9288,449.5746,8675490,0.8125,0.10638297,250.32155,-220.32272,-0.011735987,-0.024184197,-0.03139305,0.0,0.0,0.0
1090.525,445.99194,8675507,0.83750004,0.08510638,224.62823,-229.76003,-0.011735987,-0.024184197,-0.03139305,0.0,0.0,0.0
1093.1577,442.28748,8675524,0.83750004,0.08510638,173.06926,-240.68341,-0.011735987,-0.024184197,-0.03139305,0.0,0.0,0.0
1095.2273,438.60876,8675540,0.85,0.08510638,111.05156,-249.9993,-0.011735987,-0.024184197,-0.03139305,0.0,0.0,0.0
1097.3094,434.90735,8675557,0.8625,0.08510638,86.69764,-245.79767,-0.011735987,-0.024184197,-0.03139305,0.0,0.0,0.0
1098.7557,431.20728,8675574,0.8625,0.08510638,70.62459,-234.37314,-0.011735987,-0.024184197,-0.03139305,0.0,0.0,0.0
1099.7867,428.7268,8675590,0.8875,0.08510638,46.035103,-193.02493,-0.011735987,-0.024184197,-0.03139305,0.0,0.0,0.0
1100.6195,426.86987,8675607,0.8875,0.08510638,36.567017,-130.8693,-0.011735987,-0.024184197,-0.03139305,0.0,0.0,0.0
1101.369,425.02563,8675624,0.9125,0.08510638,16.001171,-71.025,-0.011735987,-0.024184197,-0.03139305,0.0,0.0,0.0
1101.8821,423.69238,8675640,0.875,0.08510638,16.331295,-51.621857,-0.011735987,-0.024184197,-0.03139305,0.0,0.0,0.0
1103.2483,423.69238,8675657,0.83750004,0.08510638,41.927063,-16.223597,-0.011735987,-0.024184197,-0.03139305,0.0,0.0,0.0
1105.6869,424.32556,8675674,0.8125,0.08510638,101.13919,32.930645,-0.011735987,-0.024184197,-0.03139305,0.0,0.0,0.0
1110.8606,427.68726,8675691,0.8125,0.08510638,230.7626,158.30875,-0.011735987,-0.024184197,-0.03139305,0.0,0.0,0.0
1117.218,432.27576,8675707,0.8,0.08510638,392.61353,295.4289,-0.011735987,-0.024184197,-0.03139305,0.0,0.0,0.0
1123.5126,437.81995,8675724,0.7875,0.10638297,496.55667,403.72522,-0.011735987,-0.024184197,-0.03139305,0.0,0.0,0.0
1130.7416,444.22827,8675741,0.7625,0.12765957,510.0976,467.61115,-0.011735987,-0.024184197,-0.03139305,0.0,0.0,0.0
1138.5898,451.72607,8675757,0.7625,0.12765957,516.2375,500.8057,-0.011735987,-0.024184197,-0.03139305,0.0,0.0,0.0
1145.7672,458.9325,8675774,0.77500004,0.09574468,491.58923,509.2941,-0.011735987,-0.024184197,-0.03139305,0.0,0.0,0.0
1152.05,465.40515,8675791,0.7625,0.08510638,443.1955,472.05515,-0.011735987,-0.024184197,-0.03139305,0.0,0.0,0.0
1155.95,471.02515,8675808,0.75,0.08510638,316.14996,384.7029,-0.009388793,0.028652608,-0.02511406,0.0,0.0,0.0
1159.5471,479.08203,8675824,0.75,0.06382979,173.11559,379.9711,-0.009388793,0.028652608,-0.02511406,0.0,0.0,0.0
1160.6,484.63306,8675841,0.7375,0.08510638,67.99071,383.12677,-0.009388793,0.028652608,-0.02511406,0.0,0.0,0.0
1159.9984,489.26868,8675858,0.7375,0.08510638,-56.05581,338.22205,-0.009388793,0.028652608,-0.02511406,0.0,0.0,0.0
1157.0908,494.19263,8675874,0.75,0.09574468,-206.79164,269.03427,-0.009388793,0.028652608,-0.02511406,0.0,0.0,0.0
1148.6144,501.28064,8675891,0.75,0.12765957,-435.05338,263.9294,-0.009388793,0.028652608,-0.02511406,0.0,0.0,0.0
1134.457,509.19263,8675908,0.77500004,0.12765957,-795.0938,423.65018,-0.009388793,0.028652608,-0.02511406,0.0,0.0,0.0
1119.7063,514.1692,8675925,0.8125,0.10638297,-1116.1796,471.76044,-0.009388793,0.028652608,-0.02511406,0.0,0.0,0.0
1107.7029,516.083,8675941,0.825,0.10638297,-1157.0209,305.02994,-0.009388793,0.028652608,-0.02511406,0.0,0.0,0.0
1098.8469,515.1389,8675958,0.83750004,0.12765957,-836.15485,-4.267553,-0.009388793,0.028652608,-0.02511406,0.0,0.0,0.0
1093.1653,513.26904,8675975,0.83750004,0.12765957,-418.4452,-242.12401,-0.009388793,0.028652608,-0.02511406,0.0,0.0,0.0
1090.8877,512.33386,8675991,0.725,0.12765957,-89.1839,-264.0545,-0.009388793,0.028652608,-0.02511406,0.0,0.0,0.0
1090.6228,512.5427,8675998,0.35,0.12765957,20.297943,-238.35765,-0.009388793,0.028652608,-0.02511406,0.0,0.0,0.0
1090.6228,512.5427,8676005,0.35,0.12765957,20.297943,-238.35765,-0.009388793,0.028652608,-0.02511406,0.0,0.0,0.0
