x,y,timestamp,pressure,fingerarea,velocityx,velocityy,accelx,accely,accelz,gyrox,gyroy,gyroz
164.92418,284.1974,76698957,1.0125,0.10638297,0.0,0.0,0.00752528,-0.0048243254,-0.018583298,0.0,0.0,0.0
164.92418,284.1974,76698976,1.075,0.10638297,-1.3857061E-4,-5.6206376E-5,0.00752528,-0.0048243254,-0.018583298,0.0,0.0,0.0
164.92418,284.1974,76698992,1.0875,0.12765957,0.006556476,0.010441176,0.00752528,-0.0048243254,-0.018583298,0.0,0.0,0.0
156.80489,308.96704,76699009,0.9875,0.09574468,-485.06567,1428.894,0.00752528,-0.0048243254,-0.018583298,3.355443E-6,0.0,0.0
149.95105,341.33057,76699026,0.95,0.12765957,-634.64026,2408.17,0.00752528,-0.0048243254,-0.018583298,3.355443E-6,0.0,0.0
144.33633,376.14026,76699043,0.95,0.09574468,-603.92584,2858.3655,0.00752528,-0.0048243254,-0.018583298,3.355443E-6,0.0,0.0
139.50975,408.6704,76699059,0.9125,0.12765957,-447.36005,2828.4338,0.00752528,-0.0048243254,-0.018583298,3.355443E-6,0.0,0.0
136.2496,434.58594,76699076,0.90000004,0.08510638,-236.03658,2218.714,0.00752528,-0.0048243254,-0.018583298,0.0,0.0,0.0
134.06102,456.10364,76699093,0.90000004,0.10638297,-69.29782,1391.841,0.00752528,-0.0048243254,-0.018583298,0.0,0.0,0.0
132.9545,474.9071,76699109,0.90000004,0.08510638,-25.70243,992.86346,0.00752528,-0.0048243254,-0.018583298,0.0,0.0,0.0
131.37201,487.88892,76699126,0.8125,0.08510638,-1.8123143,673.072,0.00752528,-0.0048243254,-0.018583298,0.0,0.0,0.0
130.86877,507.859,76699143,0.5,0.10638297,2.0244894,692.81067,0.00752528,-0.0048243254,-0.018583298,0.0,0.0,0.0
130.4354,508.98877,76699150,0.275,0.10638297,-5.056264,657.9488,0.00752528,-0.0048243254,-0.018583298,0.0,0.0,0.0
130.4354,508.98877,76699157,0.275,0.10638297,-5.056264,657.9488,0.00752528,-0.0048243254,-0.018583298,0.0,0.0,0.0
180.91896,382.8213,76699456,0.7375,0.053191487,0.0,0.0,-0.01797977,0.02814053,0.017133713,0.0,0.0,0.0
180.91896,382.8213,76699477,0.9125,0.08510638,0.024030834,0.045628175,-0.01797977,0.02814053,0.017133713,0.0,0.0,0.0
180.91896,382.8213,76699494,1.0625,0.08510638,-0.003914779,-0.0070529953,-0.01797977,0.02814053,0.017133713,0.0,0.0,0.0
180.91896,382.8213,76699510,1.1125001,0.08510638,-0.0053465962,-0.010356293,-0.01797977,0.02814053,0.017133713,0.0,0.0,0.0
180.91896,382.8213,76699527,1.0625,0.08510638,-0.008231852,-0.017562928,-0.01797977,0.02814053,0.017133713,0.0,0.0,0.0
181.34772,369.1029,76699544,1.0125,0.08510638,8.996247,-288.01318,-0.01797977,0.02814053,0.017133713,0.0,0.0,0.0
184.32396,351.21057,76699561,0.9875,0.12765957,93.46784,-1075.9172,-0.01797977,0.02814053,0.017133713,0.0,0.0,0.0
189.02625,336.30664,76699577,1.0,0.08510638,250.82526,-1402.6747,-0.01797977,0.02814053,0.017133713,0.0,0.0,0.0
192.54404,328.27905,76699594,1.0,0.09574468,340.2902,-1186.95,-0.01797977,0.02814053,0.017133713,0.0,0.0,0.0
195.71832,323.8197,76699611,1.0375,0.09574468,316.22482,-566.2935,-0.01797977,0.02814053,0.017133713,0.0,0.0,0.0
198.89273,321.23047,76699627,1.0625,0.09574468,228.86714,40.157963,-0.01797977,0.02814053,0.017133713,0.0,0.0,0.0
201.28708,321.51453,76699644,1.0500001,0.09574468,142.10875,227.75096,-0.01797977,0.02814053,0.017133713,0.0,0.0,0.0
204.26242,325.31433,76699661,1.0,0.09574468,125.38153,334.7473,-0.01797977,0.02814053,0.017133713,0.0,0.0,0.0
208.42697,333.10535,76699678,1.0125,0.12765957,195.56491,463.91812,-0.01797977,0.02814053,0.017133713,0.0,0.0,0.0
213.58475,348.27393,76699694,0.975,0.12765957,288.42374,870.98456,-0.01797977,0.02814053,0.017133713,0.0,0.0,0.0
217.24063,360.60913,76699711,0.9875,0.08510638,317.0785,1102.0795,-0.01797977,0.02814053,0.017133713,0.0,0.0,0.0
220.92105,369.52063,76699728,0.95,0.08510638,273.81726,985.4412,-0.01797977,0.02814053,0.017133713,0.0,0.0,0.0
223.5982,373.57275,76699744,0.96250004,0.08510638,176.44318,521.2612,0.00161618,-0.02548758,-0.05029297,0.0,0.0,0.0
228.02527,378.10986,76699761,0.9875,0.08510638,165.76302,121.9589,0.00161618,-0.02548758,-0.05029297,0.0,0.0,0.0
237.37994,378.38245,76699778,1.0125,0.08510638,346.30975,-72.95533,0.00161618,-0.02548758,-0.05029297,0.0,0.0,0.0
249.36499,369.99805,76699795,0.9875,0.11702127,669.97455,-372.5377,0.00161618,-0.02548758,-0.05029297,0.0,0.0,0.0
267.65387,351.31262,76699811,0.9875,0.09574468,1058.5176,-952.17426,0.00161618,-0.02548758,-0.05029297,0.0,0.0,0.0
284.43176,326.99536,76699828,0.96250004,0.08510638,1295.1898,-1629.5608,0.00161618,-0.02548758,-0.05029297,0.0,0.0,0.0
298.30243,302.99512,76699845,0.95,0.10638297,1189.7161,-1955.9064,0.00161618,-0.02548758,-0.05029297,0.0,0.0,0.0
309.80045,273.2472,76699861,0.96250004,0.09574468,948.72864,-2154.533,0.00161618,-0.02548758,-0.05029297,0.0,0.0,0.0
313.33276,261.2494,76699878,0.96250004,0.11702127,370.12552,-1513.8807,0.00161618,-0.02548758,-0.05029297,0.0,0.0,0.0
314.37552,257.07227,76699895,1.0,0.11702127,-58.71032,-566.8043,0.00161618,-0.02548758,-0.05029297,0.0,0.0,0.0
314.37552,255.76526,76699911,1.0625,0.11702127,-286.39252,251.60571,0.00161618,-0.02548758,-0.05029297,0.0,0.0,0.0
314.04297,259.60938,76699928,1.0625,0.09574468,-316.3059,736.047,0.00161618,-0.02548758,-0.05029297,0.0,0.0,0.0
309.3219,278.65393,76699945,0.9875,0.11702127,-241.3322,984.8699,0.00161618,-0.02548758,-0.05029297,0.0,0.0,0.0
299.93326,308.12134,76699962,1.0,0.10638297,-473.23456,1741.9595,0.00161618,-0.02548758,-0.05029297,0.0,0.0,0.0
290.10693,336.86218,76699978,1.025,0.09574468,-736.1967,2393.3352,0.00161618,-0.02548758,-0.05029297,0.0,0.0,0.0
282.81506,363.5675,76699995,1.025,0.08510638,-749.6435,2340.077,0.00161618,-0.02548758,-0.05029297,0.0,0.0,0.0
278.71802,387.4773,76700012,1.0,0.12765957,-502.34802,1878.3109,0.00161618,-0.02548758,-0.05029297,0.0,0.0,0.0
277.2884,408.75037,76700028,0.96250004,0.08510638,-140.09152,1345.3297,0.00161618,-0.02548758,-0.05029297,0.0,0.0,0.0
276.88773,430.93384,76700045,0.925,0.08510638,89.90627,1150.437,0.00161618,-0.02548758,-0.05029297,0.0,0.0,0.0
278.74878,443.71204,76700062,0.875,0.10638297,214.4262,909.98645,0.00161618,-0.02548758,-0.05029297,0.0,0.0,0.0
281.4914,457.29932,76700079,0.7625,0.10638297,268.97375,687.4366,0.00161618,-0.02548758,-0.05029297,0.0,0.0,0.0
282.88577,463.67505,76700091,0.45000002,0.10638297,275.36383,531.8142,0.00161618,-0.02548758,-0.05029297,0.0,0.0,0.0
282.88577,463.67505,76700099,0.45000002,0.10638297,275.36383,531.8142,0.00161618,-0.02548758,-0.05029297,0.0,0.0,0.0
390.85062,339.28455,76700912,0.9375,0.09574468,0.0,0.0,0.020234346,-0.013112038,0.038211823,0.0,0.0,0.0
390.85062,339.28455,76700931,1.0125,0.10638297,0.08559938,0.07446317,0.020234346,-0.013112038,0.038211823,0.0,0.0,0.0
390.85062,339.28455,76700947,1.0625,0.12765957,-0.020875378,-0.018545853,0.020234346,-0.013112038,0.038211823,0.0,0.0,0.0
390.85062,339.28455,76700964,1.0500001,0.12765957,0.030084917,0.026654035,0.020234346,-0.013112038,0.038211823,0.0,0.0,0.0
390.85062,339.28455,76700981,1.0,0.10638297,-0.0065054544,-0.004767416,0.020234346,-0.013112038,0.038211823,0.0,0.0,0.0
390.85062,339.28455,76700998,0.925,0.10638297,-0.0037742697,-0.005585049,0.020234346,-0.013112038,0.038211823,0.0,0.0,0.0
401.7283,358.8955,76701014,0.90000004,0.08510638,339.0917,620.19025,0.020234346,-0.013112038,0.038211823,0.0,0.0,0.0
408.5178,365.9884,76701031,0.9125,0.08510638,584.578,925.6268,0.020234346,-0.013112038,0.038211823,0.0,0.0,0.0
415.0156,371.0769,76701048,0.925,0.09574468,680.82983,865.9328,0.020234346,-0.013112038,0.038211823,0.0,0.0,0.0
421.7436,373.02307,76701064,0.975,0.09574468,574.11237,406.52966,0.020234346,-0.013112038,0.038211823,0.0,0.0,0.0
427.4598,372.1161,76701081,0.9875,0.08510638,367.86203,-157.24243,0.020234346,-0.013112038,0.038211823,0.0,0.0,0.0
432.10156,367.36438,76701098,0.975,0.10638297,260.29117,-434.91846,0.020234346,-0.013112038,0.038211823,0.0,0.0,0.0
435.65012,361.82764,76701115,0.9375,0.12765957,218.66364,-493.92075,0.020234346,-0.013112038,0.038211823,0.0,0.0,0.0
438.88474,352.92383,76701131,0.96250004,0.12765957,148.2873,-613.2851,0.020234346,-0.013112038,0.038211823,0.0,0.0,0.0
439.33484,341.0077,76701148,0.9375,0.08510638,53.42252,-781.39307,0.020234346,-0.013112038,0.038211823,0.0,0.0,0.0
435.99005,328.1449,76701165,0.96250004,0.09574468,-130.29446,-900.31616,0.020234346,-0.013112038,0.038211823,0.0,0.0,0.0
432.0617,319.24792,76701181,0.96250004,0.09574468,-324.64526,-843.57007,0.020234346,-0.013112038,0.038211823,0.0,0.0,0.0
427.33533,313.69202,76701198,0.9875,0.11702127,-427.83798,-529.62836,0.020234346,-0.013112038,0.038211823,0.0,0.0,0.0
420.6002,308.74646,76701215,0.975,0.10638297,-469.8225,-214.60146,0.020234346,-0.013112038,0.038211823,0.0,0.0,0.0
411.53525,307.29846,76701232,1.0,0.09574468,-530.20105,-21.992199,0.020234346,-0.013112038,0.038211823,0.0,0.0,0.0
400.3174,309.67676,76701248,1.0,0.09574468,-682.871,153.87216,0.020234346,-0.013112038,0.038211823,0.0,0.0,0.0
390.67398,315.89624,76701265,1.025,0.08510638,-778.56024,379.9316,0.020234346,-0.013112038,0.038211823,0.0,0.0,0.0
382.32675,325.09814,76701282,1.0,0.11702127,-662.78876,665.9531,0.020234346,-0.013112038,0.038211823,0.0,0.0,0.0
373.9433,338.16772,76701298,1.0375,0.12765957,-520.609,882.45575,0.020234346,-0.013112038,0.038211823,0.0,0.0,0.0
367.94128,353.79724,76701315,1.025,0.11702127,-387.02032,1077.5355,0.020234346,-0.013112038,0.038211823,0.0,0.0,0.0
364.6268,370.46313,76701332,0.9875,0.09574468,-237.62555,1185.5697,0.020234346,-0.013112038,0.038211823,0.0,0.0,0.0
363.8594,385.9519,76701348,0.975,0.11702127,-69.03179,1177.7084,1.8748641E-4,0.00551036,0.014570236,0.0,0.0,0.0
365.44977,400.72583,76701365,0.975,0.12765957,139.84431,1053.6936,1.8748641E-4,0.00551036,0.014570236,0.0,0.0,0.0
369.31177,412.48425,76701382,0.9875,0.09574468,337.00024,796.7792,1.8748641E-4,0.00551036,0.014570236,0.0,0.0,0.0
373.19128,419.3706,76701399,1.0125,0.08510638,386.44208,509.41037,1.8748641E-4,0.00551036,0.014570236,0.0,0.0,0.0
380.72144,428.3003,76701415,1.0375,0.08510638,462.38843,313.41318,1.8748641E-4,0.00551036,0.014570236,0.0,0.0,0.0
391.15552,436.01587,76701432,1.0375,0.09574468,608.9688,294.57315,1.8748641E-4,0.00551036,0.014570236,0.0,0.0,0.0
403.16318,441.0802,76701449,1.0125,0.10638297,794.37634,295.71432,1.8748641E-4,0.00551036,0.014570236,0.0,0.0,0.0
414.24207,443.1327,76701465,0.96250004,0.11702127,888.3631,211.32486,1.8748641E-4,0.00551036,0.014570236,0.0,0.0,0.0
423.63684,443.2395,76701482,0.9125,0.11702127,780.8378,-15.840883,1.8748641E-4,0.00551036,0.014570236,0.0,0.0,0.0
431.4372,442.35095,76701499,0.575,0.08510638,554.05756,-188.59157,1.8748641E-4,0.00551036,0.014570236,0.0,0.0,0.0
432.83694,442.35095,76701507,0.35,0.09574468,440.4784,-214.76103,1.8748641E-4,0.00551036,0.014570236,0.0,0.0,0.0
432.83694,442.35095,76701514,0.35,0.09574468,440.4784,-214.76103,1.8748641E-4,0.00551036,0.014570236,0.0,0.0,0.0
456.32928,198.90112,76702226,0.9375,0.09574468,0.0,0.0,-0.007850021,-0.011591718,-0.0043439865,0.0,0.0,0.0
456.32928,198.90112,76702251,0.9875,0.09574468,0.029208539,0.013682569,-0.007850021,-0.011591718,-0.0043439865,0.0,0.0,0.0
456.32928,198.90112,76702262,1.0,0.08510638,-0.0051891594,-0.0017034184,-0.007850021,-0.011591718,-0.0043439865,0.0,0.0,0.0
456.32928,198.90112,76702284,0.9375,0.08510638,-0.0019421428,-2.890427E-4,-0.007850021,-0.011591718,-0.0043439865,0.0,0.0,0.0
451.0741,216.02307,76702301,0.8625,0.08510638,-193.0678,636.69904,-0.007850021,-0.011591718,-0.0043439865,0.0,0.0,0.0
448.15588,226.67004,76702318,0.825,0.10638297,-290.30856,979.68335,-0.007850021,-0.011591718,-0.0043439865,0.0,0.0,0.0
446.06122,240.15271,76702334,0.77500004,0.10638297,-296.82657,1161.1343,-0.007850021,-0.011591718,-0.0043439865,0.0,0.0,0.0
445.3329,258.2849,76702351,0.5,0.08510638,-165.00877,1275.275,-0.007850021,-0.011591718,-0.0043439865,0.0,0.0,0.0
445.3329,259.31934,76702354,0.1875,0.07446808,-138.70093,1242.8801,-0.007850021,-0.011591718,-0.0043439865,0.0,0.0,0.0
445.3329,259.31934,76702363,0.1875,0.07446808,-138.70093,1242.8801,-0.007850021,-0.011591718,-0.0043439865,0.0,0.0,0.0
475.82294,479.6681,76703051,0.96250004,0.09574468,0.0,0.0,-0.03382402,-0.013818696,-0.03798008,0.0,0.0,0.0
475.82294,479.6681,76703070,1.0125,0.09574468,-0.0012871099,-0.0052956427,-0.03382402,-0.013818696,-0.03798008,0.0,0.0,0.0
475.82294,479.6681,76703086,1.025,0.09574468,-0.028132979,-0.025410956,-0.03382402,-0.013818696,-0.03798008,0.0,0.0,0.0
475.82294,479.6681,76703103,0.9875,0.09574468,-0.035356686,-0.035406876,-0.03382402,-0.013818696,-0.03798008,0.0,0.0,0.0
475.82294,479.6681,76703120,0.96250004,0.11702127,-3.5672763E-4,-0.002439667,-0.03382402,-0.013818696,-0.03798008,0.0,0.0,0.0
475.82294,479.6681,76703137,0.925,0.11702127,-0.0017851739,-0.002066581,-0.03382402,-0.013818696,-0.03798008,0.0,0.0,0.0
485.31653,463.01526,76703153,0.9125,0.10638297,281.49646,-483.96478,-0.03382402,-0.013818696,-0.03798008,0.0,0.0,0.0
497.3952,438.95312,76703170,0.9125,0.08510638,711.62634,-1326.6656,-0.03382402,-0.013818696,-0.03798008,0.0,0.0,0.0
506.89825,415.87146,76703187,0.9375,0.09574468,929.99066,-1897.2739,-0.03382402,-0.013818696,-0.03798008,0.0,0.0,0.0
515.7695,390.0492,76703203,0.925,0.10638297,819.7497,-2024.8179,-0.03382402,-0.013818696,-0.03798008,0.0,0.0,0.0
523.05066,362.34863,76703220,0.9125,0.12765957,583.27515,-1950.4541,-0.03382402,-0.013818696,-0.03798008,0.0,0.0,0.0
528.2042,338.3329,76703237,0.925,0.09574468,317.82318,-1690.1848,-0.03382402,-0.013818696,-0.03798008,0.0,0.0,0.0
532.7986,316.21448,76703254,0.9125,0.11702127,203.83997,-1485.7463,-0.03382402,-0.013818696,-0.03798008,0.0,0.0,0.0
535.87225,300.71204,76703270,0.925,0.12765957,142.71986,-1139.1271,-0.03382402,-0.013818696,-0.03798008,0.0,0.0,0.0
537.7807,290.53418,76703287,0.925,0.11702127,55.643536,-630.75616,-0.03382402,-0.013818696,-0.03798008,0.0,0.0,0.0
538.5352,283.4319,76703304,0.925,0.09574468,9.672437,-276.95392,-0.03382402,-0.013818696,-0.03798008,0.0,0.0,0.0
538.8024,277.90063,76703320,0.925,0.09574468,-36.246296,-106.941734,-0.03382402,-0.013818696,-0.03798008,0.0,0.0,0.0
537.9897,274.7561,76703337,0.975,0.09574468,-74.46876,-34.291496,-0.03382402,-0.013818696,-0.03798008,0.0,0.0,0.0
536.9821,272.9651,76703354,0.9875,0.09574468,-110.56374,38.568058,-0.03382402,-0.013818696,-0.03798008,0.0,0.0,0.0
535.5613,272.64685,76703370,1.0,0.09574468,-125.25758,96.466835,-0.03382402,-0.013818696,-0.03798008,0.0,0.0,0.0
533.9462,274.17114,76703387,1.0375,0.11702127,-131.35063,146.3876,-0.03382402,-0.013818696,-0.03798008,0.0,0.0,0.0
532.3341,277.87292,76703404,1.025,0.11702127,-125.95765,242.89438,-0.03382402,-0.013818696,-0.03798008,0.0,0.0,0.0
531.2919,283.3783,76703421,0.9875,0.12765957,-97.1789,378.1227,-0.03382402,-0.013818696,-0.03798008,0.0,0.0,0.0
531.3049,290.90674,76703437,0.95,0.12765957,-39.687263,503.703,-0.03382402,-0.013818696,-0.03798008,0.0,0.0,0.0
532.99133,302.96436,76703454,0.9125,0.09574468,62.10938,703.9156,-0.03382402,-0.013818696,-0.03798008,0.0,0.0,0.0
535.083,319.05725,76703471,0.9125,0.09574468,156.1698,962.058,-0.03382402,-0.013818696,-0.03798008,0.0,0.0,0.0
537.16364,331.43384,76703487,0.9375,0.11702127,199.8181,1063.6915,0.004940778,0.0049450397,-0.014383316,0.0,0.0,0.0
540.9242,344.16235,76703504,0.925,0.12765957,236.47495,978.98724,0.004940778,0.0049450397,-0.014383316,0.0,0.0,0.0
544.8069,355.29468,76703521,0.925,0.08510638,257.326,727.5916,0.004940778,0.0049450397,-0.014383316,0.0,0.0,0.0
549.5516,366.38867,76703538,0.925,0.08510638,297.58514,612.5372,0.004940778,0.0049450397,-0.014383316,0.0,0.0,0.0
554.8952,377.34375,76703554,0.9375,0.08510638,350.78824,605.18335,0.004940778,0.0049450397,-0.014383316,0.0,0.0,0.0
558.241,382.96997,76703571,0.9375,0.09574468,308.51578,482.56763,0.004940778,0.0049450397,-0.014383316,0.0,0.0,0.0
561.9342,388.56006,76703588,0.96250004,0.10638297,238.03662,281.0247,0.004940778,0.0049450397,-0.014383316,0.0,0.0,0.0
566.08154,395.77197,76703604,0.96250004,0.12765957,200.8247,222.43889,0.004940778,0.0049450397,-0.014383316,0.0,0.0,0.0
570.25684,403.19397,76703621,0.96250004,0.10638297,209.7534,292.057,0.004940778,0.0049450397,-0.014383316,0.0,0.0,0.0
575.9455,416.02673,76703638,0.96250004,0.08510638,299.6524,596.10913,0.004940778,0.0049450397,-0.014383316,0.0,0.0,0.0
579.5057,426.23865,76703655,0.95,0.09574468,305.58408,761.8199,0.004940778,0.0049450397,-0.014383316,0.0,0.0,0.0
581.8911,434.90198,76703671,0.95,0.09574468,220.46687,717.72894,0.004940778,0.0049450397,-0.014383316,0.0,0.0,0.0
582.2883,441.56506,76703688,0.96250004,0.11702127,73.19182,531.4847,0.004940778,0.0049450397,-0.014383316,0.0,0.0,0.0
581.6093,446.54187,76703705,0.96250004,0.12765957,-74.99889,316.20584,0.004940778,0.0049450397,-0.014383316,0.0,0.0,0.0
579.61096,451.55273,76703721,0.95,0.12765957,-175.50735,193.47108,0.004940778,0.0049450397,-0.014383316,0.0,0.0,0.0
576.501,456.19238,76703738,0.95,0.12765957,-244.74184,182.5854,0.004940778,0.0049450397,-0.014383316,0.0,0.0,0.0
574.1855,460.30847,76703755,0.95,0.09574468,-249.23279,214.50272,0.004940778,0.0049450397,-0.014383316,0.0,0.0,0.0
572.95197,461.00952,76703772,0.9125,0.09574468,-178.09895,132.31015,0.004940778,0.0049450397,-0.014383316,0.0,0.0,0.0
571.0779,462.53247,76703788,0.9375,0.09574468,-96.61076,20.08006,0.004940778,0.0049450397,-0.014383316,0.0,0.0,0.0
569.8691,462.7865,76703805,0.9125,0.09574468,-51.850544,-56.1052,0.004940778,0.0049450397,-0.014383316,0.0,0.0,0.0
569.327,463.61377,76703822,0.83750004,0.09574468,-32.09446,-54.876175,0.004940778,0.0049450397,-0.014383316,0.0,0.0,0.0
568.79266,463.67505,76703830,0.275,0.09574468,-30.878887,-36.390335,0.004940778,0.0049450397,-0.014383316,0.0,0.0,0.0
568.79266,463.67505,76703837,0.275,0.09574468,-30.878887,-36.390335,0.004940778,0.0049450397,-0.014383316,0.0,0.0,0.0
635.27106,362.38574,76704583,0.575,0.10638297,0.0,0.0,0.0015620887,0.01916483,0.051594734,0.0,0.0,0.0
635.27106,362.38574,76704607,0.6125,0.10638297,0.03612321,0.020709896,0.0015620887,0.01916483,0.051594734,0.0,0.0,0.0
635.27106,362.38574,76704624,0.35,0.12765957,0.03387305,0.01982981,0.0015620887,0.01916483,0.051594734,0.0,0.0,0.0
635.27106,362.38574,76704640,0.3125,0.12765957,0.036488738,0.022803752,0.0015620887,0.01916483,0.051594734,0.0,0.0,0.0
635.27106,362.38574,76704657,0.2375,0.12765957,0.038816437,0.019306786,0.0015620887,0.01916483,0.051594734,0.0,0.0,0.0
635.27106,362.38574,76704674,0.26250002,0.12765957,-0.024001796,-0.013076696,0.0015620887,0.01916483,0.051594734,0.0,0.0,0.0
635.27106,362.38574,76704690,0.3125,0.12765957,-0.018619457,-0.009299624,0.0015620887,0.01916483,0.051594734,0.0,0.0,0.0
635.27106,362.38574,76704707,0.6,0.10638297,-0.050319962,-0.027594779,0.0015620887,0.01916483,0.051594734,0.0,0.0,0.0
635.27106,362.38574,76704724,0.7625,0.10638297,3.961259E-4,-4.935463E-5,0.0015620887,0.01916483,0.051594734,0.0,0.0,0.0
635.27106,362.38574,76704741,0.9125,0.10638297,-0.02086749,-0.009614015,0.0015620887,0.01916483,0.051594734,0.0,0.0,0.0
635.27106,362.38574,76704757,0.9375,0.12765957,-0.008503871,-0.0056011756,0.0015620887,0.01916483,0.051594734,0.0,0.0,0.0
635.27106,362.38574,76704774,0.9375,0.12765957,0.028042719,0.014750247,0.0015620887,0.01916483,0.051594734,0.0,0.0,0.0
627.9357,339.40527,76704791,0.9125,0.08510638,-211.92923,-633.2631,0.0015620887,0.01916483,0.051594734,0.0,0.0,0.0
628.6964,324.72595,76704808,0.90000004,0.08510638,-267.73154,-1237.1045,0.0015620887,0.01916483,0.051594734,0.0,0.0,0.0
632.78595,312.94995,76704824,0.90000004,0.10638297,-41.647377,-1397.192,0.0015620887,0.01916483,0.051594734,0.0,0.0,0.0
639.0977,301.4679,76704841,0.90000004,0.12765957,349.68082,-1021.0581,0.0015620887,0.01916483,0.051594734,0.0,0.0,0.0
651.83026,288.50977,76704858,0.925,0.08510638,779.938,-665.08966,0.0015620887,0.01916483,0.051594734,0.0,0.0,0.0
667.4247,280.8982,76704874,0.925,0.08510638,1094.2922,-466.69455,0.0015620887,0.01916483,0.051594734,0.0,0.0,0.0
679.62305,278.56482,76704891,0.9375,0.08510638,1100.068,-300.72763,0.0015620887,0.01916483,0.051594734,0.0,0.0,0.0
688.5293,280.80664,76704908,0.9125,0.11702127,910.9101,68.12356,0.0015620887,0.01916483,0.051594734,0.0,0.0,0.0
696.15753,286.75195,76704925,0.9125,0.12765957,560.0115,498.87555,0.0015620887,0.01916483,0.051594734,0.0,0.0,0.0
704.3804,302.3578,76704941,0.9125,0.08510638,312.92416,914.66595,0.0015620887,0.01916483,0.051594734,0.0,0.0,0.0
708.06604,323.3009,76704958,0.9125,0.08510638,250.14825,1372.9891,0.0015620887,0.01916483,0.051594734,0.0,0.0,0.0
707.5444,345.99023,76704975,0.90000004,0.12765957,43.878887,1706.1083,0.0015620887,0.01916483,0.051594734,0.0,0.0,0.0
703.66156,370.66382,76704991,0.9125,0.09574468,-258.4016,1852.194,0.0015620887,0.01916483,0.051594734,0.0,0.0,0.0
697.24176,394.5288,76705008,0.875,0.11702127,-534.17633,1744.0312,0.0015620887,0.01916483,0.051594734,0.0,0.0,0.0
687.9979,420.41968,76705025,0.875,0.08510638,-709.5031,1603.3473,0.0015620887,0.01916483,0.051594734,0.0,0.0,0.0
680.17456,435.35938,76705042,0.825,0.09574468,-712.53296,1317.5309,0.0015620887,0.01916483,0.051594734,0.0,0.0,0.0
668.2981,454.51746,76705058,0.8125,0.10638297,-756.4573,1045.9369,0.0015620887,0.01916483,0.051594734,0.0,0.0,0.0
657.08453,468.62634,76705075,0.83750004,0.08510638,-749.95074,768.4654,-0.014750332,-6.6813827E-4,-0.0067243576,0.0,0.0,0.0
646.3525,478.7041,76705092,0.8875,0.08510638,-732.9368,525.34064,-0.014750332,-6.6813827E-4,-0.0067243576,0.0,0.0,0.0
637.9193,482.93372,76705108,0.90000004,0.08510638,-637.6844,263.6491,-0.014750332,-6.6813827E-4,-0.0067243576,0.0,0.0,0.0
632.2108,482.84497,76705125,0.9125,0.08510638,-460.85602,-29.43106,-0.014750332,-6.6813827E-4,-0.0067243576,0.0,0.0,0.0
628.77216,478.33093,76705142,0.925,0.09574468,-207.2834,-380.95023,-0.014750332,-6.6813827E-4,-0.0067243576,0.0,0.0,0.0
629.44525,467.13757,76705159,0.9375,0.12765957,50.111973,-767.1375,-0.014750332,-6.6813827E-4,-0.0067243576,0.0,0.0,0.0
634.0808,457.49207,76705175,0.925,0.11702127,301.7975,-930.8404,-0.014750332,-6.6813827E-4,-0.0067243576,0.0,0.0,0.0
645.4262,444.87573,76705192,0.9375,0.09574468,655.6674,-981.7974,-0.014750332,-6.6813827E-4,-0.0067243576,0.0,0.0,0.0
659.8528,436.01404,76705209,0.925,0.08510638,1032.6783,-850.89996,-0.014750332,-6.6813827E-4,-0.0067243576,0.0,0.0,0.0
674.06885,433.46594,76705225,0.925,0.08510638,1198.6891,-463.31067,-0.014750332,-6.6813827E-4,-0.0067243576,0.0,0.0,0.0
683.1762,435.22534,76705242,0.9375,0.08510638,1033.2495,13.164836,-0.014750332,-6.6813827E-4,-0.0067243576,0.0,0.0,0.0
690.97363,438.90906,76705259,0.95,0.11702127,618.39844,401.14362,-0.014750332,-6.6813827E-4,-0.0067243576,0.0,0.0,0.0
697.19214,443.6316,76705275,0.96250004,0.11702127,302.61694,563.13904,-0.014750332,-6.6813827E-4,-0.0067243576,0.0,0.0,0.0
703.4218,448.2799,76705292,0.95,0.12765957,202.79808,497.458,-0.014750332,-6.6813827E-4,-0.0067243576,0.0,0.0,0.0
710.2822,453.80176,76705309,0.925,0.12765957,255.76064,417.8629,-0.014750332,-6.6813827E-4,-0.0067243576,0.0,0.0,0.0
717.527,458.1068,76705326,0.90000004,0.10638297,369.98022,359.32678,-0.014750332,-6.6813827E-4,-0.0067243576,0.0,0.0,0.0
725.54877,462.70093,76705342,0.8625,0.09574468,469.95367,291.23837,-0.014750332,-6.6813827E-4,-0.0067243576,0.0,0.0,0.0
734.611,466.85718,76705359,0.77500004,0.08510638,538.50806,239.51021,-0.014750332,-6.6813827E-4,-0.0067243576,0.0,0.0,0.0
744.2774,472.2196,76705376,0.625,0.09574468,615.5656,266.88065,-0.014750332,-6.6813827E-4,-0.0067243576,0.0,0.0,0.0
745.2352,472.56006,76705379,0.3,0.09574468,606.6458,263.4637,-0.014750332,-6.6813827E-4,-0.0067243576,0.0,0.0,0.0
745.2352,472.56006,76705386,0.3,0.09574468,606.6458,263.4637,-0.014750332,-6.6813827E-4,-0.0067243576,0.0,0.0,0.0
674.25836,372.15918,76705702,0.925,0.08510638,0.0,0.0,0.0041997284,0.015465483,-0.005379677,0.0,0.0,0.0
674.25836,372.15918,76705727,1.0500001,0.08510638,-0.030254263,-0.016605867,0.0041997284,0.015465483,-0.005379677,0.0,0.0,0.0
674.25836,372.15918,76705743,1.0375,0.10638297,0.027414003,0.016397592,0.0041997284,0.015465483,-0.005379677,0.0,0.0,0.0
674.25836,372.15918,76705760,0.975,0.10638297,-0.005717902,-0.0028284078,0.0041997284,0.015465483,-0.005379677,0.0,0.0,0.0
674.25836,372.15918,76705777,0.9125,0.11702127,0.006318557,0.002002219,0.0041997284,0.015465483,-0.005379677,0.0,0.0,0.0
701.71356,370.3822,76705794,0.8875,0.08510638,907.8493,-64.00189,0.0041997284,0.015465483,-0.005379677,0.0,0.0,0.0
711.6267,371.74072,76705810,0.8875,0.08510638,1268.3457,-28.12663,0.0041997284,0.015465483,-0.005379677,0.0,0.0,0.0
720.1709,372.69836,76705827,0.83750004,0.08510638,1094.1488,49.655003,0.0041997284,0.015465483,-0.005379677,0.0,0.0,0.0
730.71765,375.1604,76705844,0.77500004,0.08510638,650.68286,143.52553,0.0041997284,0.015465483,-0.005379677,0.0,0.0,0.0
742.7403,377.26843,76705860,0.4125,0.09574468,353.85272,204.8793,0.0041997284,0.015465483,-0.005379677,0.0,0.0,0.0
745.2352,377.49023,76705862,0.25,0.11702127,423.37408,201.3586,0.0041997284,0.015465483,-0.005379677,0.0,0.0,0.0
745.2352,377.49023,76705869,0.25,0.11702127,423.37408,201.3586,0.0041997284,0.015465483,-0.005379677,0.0,0.0,0.0
887.6889,329.5111,76706446,0.85,0.08510638,0.0,0.0,0.0033597797,-0.0036275983,-0.004303932,0.0,0.0,0.0
887.6889,329.5111,76706462,0.83750004,0.08510638,0.0,0.0,0.0033597797,-0.0036275983,-0.004303932,0.0,0.0,0.0
887.6889,329.5111,76706475,0.85,0.08510638,0.03772745,0.014153204,0.0033597797,-0.0036275983,-0.004303932,0.0,0.0,0.0
887.6889,329.5111,76706495,0.825,0.08510638,-0.018061116,-0.006800392,0.0033597797,-0.0036275983,-0.004303932,0.0,0.0,0.0
887.6889,329.5111,76706512,0.8125,0.08510638,-0.04626446,-0.017364608,0.0033597797,-0.0036275983,-0.004303932,0.0,0.0,0.0
866.7148,329.5111,76706529,0.8625,0.09574468,-655.454,-0.0037914533,0.0033597797,-0.0036275983,-0.004303932,0.0,0.0,0.0
850.8699,332.87292,76706545,0.8875,0.08510638,-1173.221,89.30691,0.0033597797,-0.0036275983,-0.004303932,0.0,0.0,0.0
834.6186,338.3191,76706562,0.8875,0.10638297,-1567.9225,277.19232,0.0033597797,-0.0036275983,-0.004303932,0.0,0.0,0.0
820.9004,345.68787,76706579,0.875,0.12765957,-1358.286,483.8164,0.0033597797,-0.0036275983,-0.004303932,0.0,0.0,0.0
808.5501,355.9862,76706596,0.90000004,0.10638297,-686.3309,677.15576,0.0033597797,-0.0036275983,-0.004303932,0.0,0.0,0.0
798.8239,366.7025,76706612,0.9125,0.08510638,-462.64008,765.64594,0.0033597797,-0.0036275983,-0.004303932,0.0,0.0,0.0
789.1277,381.4402,76706629,0.925,0.08510638,-445.92416,897.4633,0.0033597797,-0.0036275983,-0.004303932,0.0,0.0,0.0
785.3666,391.1931,76706646,0.925,0.10638297,-310.75232,882.75037,0.0033597797,-0.0036275983,-0.004303932,0.0,0.0,0.0
785.1837,403.66602,76706662,0.90000004,0.10638297,-42.556087,759.2243,0.0033597797,-0.0036275983,-0.004303932,0.0,0.0,0.0
788.31104,418.72046,76706679,0.875,0.06382979,262.3301,773.80835,-0.04531218,-0.0029020905,-0.0034427643,0.0,0.0,0.0
793.5081,436.0636,76706696,0.8625,0.08510638,500.26038,972.0018,-0.04531218,-0.0029020905,-0.0034427643,0.0,0.0,0.0
798.10693,445.70764,76706713,0.83750004,0.12765957,540.3623,955.7242,-0.04531218,-0.0029020905,-0.0034427643,0.0,0.0,0.0
804.9391,457.85217,76706729,0.875,0.11702127,515.9116,818.2515,-0.04531218,-0.0029020905,-0.0034427643,0.0,0.0,0.0
812.4347,465.80383,76706746,0.90000004,0.08510638,500.83182,503.58206,-0.04531218,-0.0029020905,-0.0034427643,0.0,0.0,0.0
819.5426,470.6178,76706763,0.8875,0.08510638,483.77344,248.40892,-0.04531218,-0.0029020905,-0.0034427643,0.0,0.0,0.0
832.96063,469.89307,76706779,0.875,0.08510638,638.0374,44.542233,-0.04531218,-0.0029020905,-0.0034427643,0.0,0.0,0.0
849.505,458.25842,76706796,0.825,0.12765957,970.1006,-522.92926,-0.04531218,-0.0029020905,-0.0034427643,0.0,0.0,0.0
861.5877,440.19812,76706813,0.8625,0.09574468,1087.0682,-1176.8541,-0.04531218,-0.0029020905,-0.0034427643,0.0,0.0,0.0
876.012,408.4431,76706830,0.85,0.12765957,1017.85565,-1970.5137,-0.04531218,-0.0029020905,-0.0034427643,0.0,0.0,0.0
882.6202,385.01733,76706846,0.85,0.08510638,665.3046,-2250.3728,-0.04531218,-0.0029020905,-0.0034427643,0.0,0.0,0.0
884.6334,371.77246,76706863,0.8875,0.08510638,201.17587,-1755.3796,-0.04531218,-0.0029020905,-0.0034427643,0.0,0.0,0.0
885.1897,366.8755,76706880,0.8875,0.09574468,-111.34029,-754.90515,-0.04531218,-0.0029020905,-0.0034427643,0.0,0.0,0.0
885.1897,364.9901,76706896,0.925,0.09574468,-270.05728,173.13188,-0.04531218,-0.0029020905,-0.0034427643,0.0,0.0,0.0
884.6159,364.16272,76706913,0.925,0.08510638,-246.20712,483.80112,-0.04531218,-0.0029020905,-0.0034427643,0.0,0.0,0.0
882.97125,370.2727,76706930,0.925,0.08510638,-160.00845,527.15674,-0.04531218,-0.0029020905,-0.0034427643,0.0,0.0,0.0
881.013,381.10486,76706947,0.9125,0.08510638,-150.7813,691.49945,-0.04531218,-0.0029020905,-0.0034427643,0.0,0.0,0.0
879.50745,390.34924,76706963,0.8875,0.12765957,-158.75449,858.9597,-0.04531218,-0.0029020905,-0.0034427643,0.0,0.0,0.0
879.913,401.17725,76706980,0.85,0.10638297,-69.84595,874.0286,-0.04531218,-0.0029020905,-0.0034427643,0.0,0.0,0.0
881.7142,411.3778,76706997,0.8,0.08510638,75.77301,731.33435,-0.04531218,-0.0029020905,-0.0034427643,0.0,0.0,0.0
884.91736,423.41052,76707013,0.75,0.06382979,214.36649,679.8757,-0.04531218,-0.0029020905,-0.0034427643,0.0,0.0,0.0
888.8627,431.11,76707030,0.7,0.06382979,315.73648,648.74945,-0.04531218,-0.0029020905,-0.0034427643,0.0,0.0,0.0
890.18805,433.46594,76707042,0.3625,0.10638297,313.35,506.75476,-0.04531218,-0.0029020905,-0.0034427643,0.0,0.0,0.0
890.18805,433.46594,76707048,0.3625,0.10638297,313.35,506.75476,-0.04531218,-0.0029020905,-0.0034427643,0.0,0.0,0.0
865.69604,182.01953,76707635,0.9875,0.12765957,0.0,0.0,0.011750251,-0.018321663,-0.018754005,0.0,0.0,0.0
865.69604,182.01953,76707665,0.9875,0.12765957,0.008439331,0.001805662,0.011750251,-0.018321663,-0.018754005,0.0,0.0,0.0
865.69604,182.01953,76707682,0.875,0.12765957,0.08367927,0.018004315,0.011750251,-0.018321663,-0.018754005,0.0,0.0,0.0
872.1566,203.90833,76707698,0.8,0.08510638,304.28357,1010.8448,0.011750251,-0.018321663,-0.018754005,3.355443E-6,0.0,0.0
876.95953,222.14575,76707715,0.75,0.08510638,430.11005,1542.9462,0.011750251,-0.018321663,-0.018754005,3.355443E-6,0.0,0.0
883.1454,245.80518,76707732,0.725,0.10638297,477.98587,1750.5842,0.011750251,-0.018321663,-0.018754005,3.355443E-6,0.0,0.0
887.2711,258.64978,76707749,0.4125,0.08510638,444.30893,1611.4067,0.011750251,-0.018321663,-0.018754005,3.355443E-6,0.0,0.0
888.68854,267.3158,76707757,0.1375,0.06382979,388.49094,1455.6174,-0.006599799,0.0013426542,0.048996925,0.0,0.0,0.0
888.68854,267.3158,76707763,0.1375,0.06382979,388.49094,1455.6174,-0.006599799,0.0013426542,0.048996925,0.0,0.0,0.0
933.1741,471.67163,76708712,0.90000004,0.10638297,0.0,0.0,-0.005279839,0.0010741353,-0.024802208,0.0,0.0,0.0
933.1741,471.67163,76708734,0.9375,0.10638297,0.05342408,0.021940464,-0.005279839,0.0010741353,-0.024802208,0.0,0.0,0.0
933.1741,471.67163,76708751,0.8875,0.12765957,-0.0795757,-0.035794012,-0.005279839,0.0010741353,-0.024802208,0.0,0.0,0.0
938.0073,449.23083,76708768,0.875,0.08510638,263.38898,-1242.3972,-0.005279839,0.0010741353,-0.024802208,0.0,0.0,0.0
942.6667,429.04614,76708785,0.85,0.08510638,383.6844,-1689.9003,-0.005279839,0.0010741353,-0.024802208,0.0,0.0,0.0
945.24835,405.9077,76708801,0.8875,0.09574468,334.30545,-1842.2924,-0.005279839,0.0010741353,-0.024802208,0.0,0.0,0.0
946.7545,379.67065,76708818,0.875,0.08510638,202.82225,-1906.3187,-0.005279839,0.0010741353,-0.024802208,0.0,0.0,0.0
946.0479,360.00134,76708835,0.875,0.12765957,22.129019,-1655.8513,-0.0042238683,0.016859308,0.012158394,0.0,0.0,0.0
945.4807,343.36438,76708851,0.8875,0.08510638,-127.16687,-1206.2463,-0.0042238683,0.016859308,0.012158394,0.0,0.0,0.0
945.40314,327.97498,76708868,0.85,0.08510638,-139.1501,-923.3187,-0.0042238683,0.016859308,0.012158394,0.0,0.0,0.0
945.4029,316.7804,76708885,0.8625,0.09574468,-58.96741,-601.59924,-0.0042238683,0.016859308,0.012158394,0.0,0.0,0.0
947.2227,307.50623,76708902,0.875,0.12765957,58.848072,-465.2739,-0.0042238683,0.016859308,0.012158394,0.0,0.0,0.0
949.9422,301.15857,76708918,0.875,0.12765957,163.88538,-318.31943,-0.0042238683,0.016859308,0.012158394,0.0,0.0,0.0
954.8033,295.62683,76708935,0.9125,0.12765957,283.88492,-158.26932,-0.0042238683,0.016859308,0.012158394,0.0,0.0,0.0
961.95276,292.37463,76708952,0.9125,0.12765957,426.07977,-92.9981,-0.0042238683,0.016859308,0.012158394,0.0,0.0,0.0
970.0576,292.19397,76708968,0.8875,0.12765957,553.317,11.848818,-0.0042238683,0.016859308,0.012158394,0.0,0.0,0.0
978.4413,294.76245,76708985,0.8875,0.12765957,624.1362,174.97897,-0.0042238683,0.016859308,0.012158394,0.0,0.0,0.0
986.2678,300.2749,76709002,0.8875,0.09574468,589.75037,384.70963,-0.0042238683,0.016859308,0.012158394,0.0,0.0,0.0
993.06824,306.8302,76709019,0.90000004,0.08510638,488.29956,535.2401,-0.0042238683,0.016859308,0.012158394,0.0,0.0,0.0
999.3574,318.50378,76709035,0.8875,0.08510638,386.5917,689.15845,-0.0042238683,0.016859308,0.012158394,0.0,0.0,0.0
1004.2538,329.07312,76709052,0.90000004,0.10638297,301.9705,819.66296,-0.0042238683,0.016859308,0.012158394,0.0,0.0,0.0
1006.5458,336.24817,76709069,0.90000004,0.12765957,183.16527,732.3424,-0.0042238683,0.016859308,0.012158394,0.0,0.0,0.0
1008.3602,345.59827,76709085,0.8875,0.12765957,71.78655,617.08563,-0.0042238683,0.016859308,0.012158394,0.0,0.0,0.0
1008.64954,354.82678,76709102,0.8875,0.08510638,-42.93098,487.296,-0.0042238683,0.016859308,0.012158394,0.0,0.0,0.0
1008.64954,362.65552,76709119,0.875,0.08510638,-91.25428,474.03802,-0.0042238683,0.016859308,0.012158394,0.0,0.0,0.0
1008.64954,370.03955,76709136,0.8875,0.07446808,-71.72468,482.26337,-0.0042238683,0.016859308,0.012158394,0.0,0.0,0.0
1008.64954,377.35632,76709152,0.90000004,0.08510638,-51.96087,395.66846,-0.0042238683,0.016859308,0.012158394,0.0,0.0,0.0
1008.64954,383.1892,76709169,0.90000004,0.08510638,-19.404037,342.4254,-0.0042238683,0.016859308,0.012158394,0.0,0.0,0.0
1008.64954,387.8844,76709186,0.90000004,0.10638297,-0.04047803,285.16092,-0.0042238683,0.016859308,0.012158394,0.0,0.0,0.0
1009.1493,391.6659,76709202,0.8875,0.12765957,14.752172,214.28046,-0.0042238683,0.016859308,0.012158394,0.0,0.0,0.0
1010.1782,397.19287,76709219,0.8875,0.12765957,46.37224,210.23914,-0.0042238683,0.016859308,0.012158394,0.0,0.0,0.0
1010.14905,402.74475,76709236,0.90000004,0.12765957,44.676933,274.5324,-0.0042238683,0.016859308,0.012158394,0.0,0.0,0.0
1010.14905,407.4381,76709253,0.90000004,0.10638297,20.66072,316.21048,-0.0042238683,0.016859308,0.012158394,0.0,0.0,0.0
1010.14905,410.98816,76709269,0.9125,0.08510638,-7.0241942,280.732,-0.0042238683,0.016859308,0.012158394,0.0,0.0,0.0
1010.14905,413.35645,76709286,0.9125,0.08510638,-20.953346,191.45404,-0.0042238683,0.016859308,0.012158394,0.0,0.0,0.0
1010.14905,418.21667,76709303,0.9125,0.08510638,-5.1740127,166.4628,-0.0042238683,0.016859308,0.012158394,0.0,0.0,0.0
1010.14905,421.9756,76709319,0.90000004,0.08510638,0.06479724,216.00575,-0.0042238683,0.016859308,0.012158394,0.0,0.0,0.0
1010.14905,424.245,76709336,0.8875,0.07446808,0.06786327,206.8123,-0.0042238683,0.016859308,0.012158394,0.0,0.0,0.0
1010.14905,426.0946,76709353,0.83750004,0.07446808,0.010605812,135.83311,-0.0042238683,0.016859308,0.012158394,0.0,0.0,0.0
1010.14905,427.89636,76709369,0.7375,0.07446808,0.10073154,46.516285,0.020620912,-0.0025125444,0.009726524,0.0,0.0,0.0
1010.14905,431.4513,76709386,0.625,0.07446808,0.0065714484,78.59222,0.020620912,-0.0025125444,0.009726524,0.0,0.0,0.0
1010.14905,432.5774,76709396,0.175,0.08510638,-0.016053317,129.53467,0.020620912,-0.0025125444,0.009726524,0.0,0.0,0.0
1010.14905,432.5774,76709403,0.175,0.08510638,-0.016053317,129.53467,0.020620912,-0.0025125444,0.009726524,0.0,0.0,0.0
1152.1028,340.1731,76710363,0.8875,0.10638297,0.0,0.0,0.0084967315,-0.0020100474,0.023780823,0.0,0.0,0.0
1152.1028,340.1731,76710389,0.8875,0.10638297,0.027456691,0.0086688725,0.0084967315,-0.0020100474,0.023780823,0.0,0.0,0.0
1152.1028,340.1731,76710405,0.8625,0.08510638,0.004706544,0.002751531,0.0084967315,-0.0020100474,0.023780823,0.0,0.0,0.0
1152.1028,340.1731,76710422,0.85,0.09574468,0.03312587,0.00808226,0.0084967315,-0.0020100474,0.023780823,0.0,0.0,0.0
1152.1028,340.1731,76710439,0.8125,0.09574468,-0.033287957,-0.010034362,0.006797388,0.030391961,0.035025597,0.0,0.0,0.0
1128.7645,338.39612,76710456,0.8625,0.10638297,-644.70447,-53.87724,0.006797388,0.030391961,0.035025597,0.0,0.0,0.0
1111.0977,340.3993,76710472,0.8875,0.10638297,-1384.7535,-23.364384,0.006797388,0.030391961,0.035025597,0.0,0.0,0.0
1097.4641,344.68518,76710489,0.8875,0.12765957,-1583.5411,144.8773,0.006797388,0.030391961,0.035025597,0.0,0.0,0.0
1087.1047,352.53235,76710506,0.9125,0.11702127,-1152.582,423.6479,0.006797388,0.030391961,0.035025597,0.0,0.0,0.0
1080.0703,360.8396,76710522,0.8875,0.08510638,-468.73157,638.22876,0.006797388,0.030391961,0.035025597,0.0,0.0,0.0
1071.329,378.86133,76710539,0.875,0.08510638,-139.02524,950.56744,0.006797388,0.030391961,0.035025597,0.0,0.0,0.0
1068.1727,388.00085,76710556,0.8875,0.10638297,-178.12128,1026.8445,0.006797388,0.030391961,0.035025597,0.0,0.0,0.0
1067.077,396.62415,76710573,0.8875,0.12765957,-44.43934,782.31555,0.006797388,0.030391961,0.035025597,0.0,0.0,0.0
1069.4138,406.7638,76710589,0.8875,0.10638297,156.67494,582.2106,0.006797388,0.030391961,0.035025597,0.0,0.0,0.0
1072.5596,414.0514,76710606,0.90000004,0.09574468,344.39194,389.95255,0.006797388,0.030391961,0.035025597,0.0,0.0,0.0
1077.877,425.46948,76710621,0.875,0.09574468,436.58066,401.01538,0.006797388,0.030391961,0.035025597,0.0,0.0,0.0
1082.5867,430.5072,76710639,0.875,0.09574468,426.11786,476.31168,0.006797388,0.030391961,0.035025597,0.0,0.0,0.0
1090.8674,437.46118,76710656,0.90000004,0.10638297,498.74603,414.7694,0.006797388,0.030391961,0.035025597,0.0,0.0,0.0
1101.7993,441.08777,76710673,0.90000004,0.09574468,648.29663,305.5046,0.006797388,0.030391961,0.035025597,0.0,0.0,0.0
1112.0319,440.60376,76710690,0.9125,0.08510638,750.23145,41.09922,0.006797388,0.030391961,0.035025597,0.0,0.0,0.0
1122.9025,433.3462,76710706,0.875,0.09574468,764.6891,-339.84128,0.006797388,0.030391961,0.035025597,0.0,0.0,0.0
1132.3007,420.6869,76710723,0.8625,0.11702127,674.58673,-810.5375,0.006797388,0.030391961,0.035025597,0.0,0.0,0.0
1142.0042,397.75305,76710740,0.875,0.11702127,573.4796,-1316.545,0.006797388,0.030391961,0.035025597,0.0,0.0,0.0
1147.5674,376.76538,76710756,0.8875,0.09574468,458.06973,-1751.2611,0.006797388,0.030391961,0.035025597,0.0,0.0,0.0
1150.1613,362.026,76710773,0.8875,0.12765957,217.72046,-1545.9209,0.006797388,0.030391961,0.035025597,0.0,0.0,0.0
1150.6033,352.88855,76710790,0.875,0.12765957,-12.073791,-979.749,0.006797388,0.030391961,0.035025597,0.0,0.0,0.0
1150.4967,346.90222,76710807,0.8875,0.11702127,-164.55693,-349.6361,0.006797388,0.030391961,0.035025597,0.0,0.0,0.0
1149.4625,344.36475,76710823,0.90000004,0.11702127,-218.156,87.40322,0.006797388,0.030391961,0.035025597,0.0,0.0,0.0
1148.4095,342.49316,76710840,0.9125,0.11702127,-165.07973,161.4084,0.006797388,0.030391961,0.035025597,0.0,0.0,0.0
1145.653,342.83862,76710857,0.9125,0.12765957,-161.14783,154.37314,0.006797388,0.030391961,0.035025597,0.0,0.0,0.0
1142.541,345.14648,76710873,0.9125,0.12765957,-203.0925,197.77325,0.006797388,0.030391961,0.035025597,0.0,0.0,0.0
1140.0034,351.5548,76710890,0.9125,0.11702127,-227.50273,353.56903,0.006797388,0.030391961,0.035025597,0.0,0.0,0.0
1139.107,357.90173,76710907,0.9125,0.09574468,-162.41121,513.7862,0.006797388,0.030391961,0.035025597,0.0,0.0,0.0
1139.4584,362.74646,76710923,0.9125,0.09574468,-22.536522,524.22253,0.006797388,0.030391961,0.035025597,0.0,0.0,0.0
1140.9395,368.16028,76710940,0.9125,0.09574468,111.54669,422.47183,0.006797388,0.030391961,0.035025597,0.0,0.0,0.0
1142.5056,371.09265,76710957,0.9125,0.09574468,179.11406,239.3617,0.006797388,0.030391961,0.035025597,0.0,0.0,0.0
1148.1287,376.62354,76710974,0.925,0.08510638,280.66953,218.12683,0.013437912,-0.007686436,-0.03597927,0.0,0.0,0.0
1155.4119,380.31323,76710990,0.925,0.08510638,441.48367,231.56807,0.013437912,-0.007686436,-0.03597927,0.0,0.0,0.0
1162.602,382.9702,76711007,0.9125,0.08510638,560.2863,206.16533,0.013437912,-0.007686436,-0.03597927,0.0,0.0,0.0
1169.1917,382.8213,76711024,0.925,0.08510638,562.44226,75.98837,0.013437912,-0.007686436,-0.03597927,0.0,0.0,0.0
1173.8533,382.552,76711040,0.925,0.08510638,424.79065,-60.619106,0.013437912,-0.007686436,-0.03597927,0.0,0.0,0.0
1178.5804,379.4547,76711057,0.90000004,0.09574468,275.75967,-204.70695,0.013437912,-0.007686436,-0.03597927,0.0,0.0,0.0
1183.2874,375.75244,76711074,0.8625,0.09574468,213.47762,-297.49585,0.013437912,-0.007686436,-0.03597927,0.0,0.0,0.0
1188.489,370.66858,76711091,0.875,0.09574468,249.54634,-356.70615,0.013437912,-0.007686436,-0.03597927,0.0,0.0,0.0
1193.3616,365.69775,76711107,0.8625,0.11702127,293.40805,-405.99896,0.013437912,-0.007686436,-0.03597927,0.0,0.0,0.0
1197.9691,361.15845,76711124,0.875,0.12765957,297.06863,-360.3968,0.013437912,-0.007686436,-0.03597927,0.0,0.0,0.0
1202.1493,357.4431,76711141,0.875,0.12765957,266.23685,-279.88934,0.013437912,-0.007686436,-0.03597927,0.0,0.0,0.0
1206.3282,353.72888,76711157,0.875,0.10638297,236.19202,-213.96127,0.013437912,-0.007686436,-0.03597927,0.0,0.0,0.0
1210.946,350.04443,76711174,0.875,0.10638297,236.43314,-181.29459,0.013437912,-0.007686436,-0.03597927,0.0,0.0,0.0
1217.1871,346.33008,76711191,0.8875,0.10638297,314.65036,-200.86519,0.013437912,-0.007686436,-0.03597927,0.0,0.0,0.0
1221.8157,343.62256,76711208,0.90000004,0.10638297,343.83514,-188.93639,0.013437912,-0.007686436,-0.03597927,0.0,0.0,0.0
1225.8378,341.95007,76711224,0.9125,0.10638297,310.38388,-132.98439,0.013437912,-0.007686436,-0.03597927,0.0,0.0,0.0
1228.4548,341.95007,76711241,0.925,0.12765957,207.7511,-25.685745,0.013437912,-0.007686436,-0.03597927,0.0,0.0,0.0
1230.9277,341.95007,76711258,0.95,0.12765957,111.864265,57.45371,0.013437912,-0.007686436,-0.03597927,0.0,0.0,0.0
1232.2909,342.3307,76711274,0.96250004,0.12765957,49.036774,88.243256,0.013437912,-0.007686436,-0.03597927,0.0,0.0,0.0
1234.0817,345.96338,76711291,0.975,0.12765957,43.222733,148.79237,0.013437912,-0.007686436,-0.03597927,0.0,0.0,0.0
1234.871,351.52014,76711308,0.95,0.11702127,38.161697,310.37192,0.013437912,-0.007686436,-0.03597927,0.0,0.0,0.0
1235.9075,357.04712,76711324,0.95,0.11702127,32.04493,447.09906,0.013437912,-0.007686436,-0.03597927,0.0,0.0,0.0
1236.9464,363.24695,76711341,0.95,0.09574468,41.01173,486.39984,0.013437912,-0.007686436,-0.03597927,0.0,0.0,0.0
1238.8909,372.23157,76711358,0.9375,0.09574468,70.059395,516.46246,0.013437912,-0.007686436,-0.03597927,0.0,0.0,0.0
1242.3694,381.4796,76711375,0.925,0.09574468,147.76003,580.6091,0.013437912,-0.007686436,-0.03597927,0.0,0.0,0.0
1247.0331,390.74878,76711391,0.90000004,0.11702127,269.2424,653.40247,0.013437912,-0.007686436,-0.03597927,0.0,0.0,0.0
1252.2362,402.78125,76711408,0.8875,0.11702127,361.87097,713.35583,0.013437912,-0.007686436,-0.03597927,0.0,0.0,0.0
1256.3615,413.8103,76711425,0.90000004,0.08510638,363.21774,734.00793,0.013437912,-0.007686436,-0.03597927,0.0,0.0,0.0
1258.7913,425.77087,76711441,0.8875,0.08510638,261.2622,754.2288,0.013437912,-0.007686436,-0.03597927,0.0,0.0,0.0
1259.9291,436.47424,76711458,0.9125,0.11702127,112.73318,740.85376,0.013437912,-0.007686436,-0.03597927,0.0,0.0,0.0
1257.8439,444.52686,76711475,0.90000004,0.12765957,-75.37358,609.14526,0.013437912,-0.007686436,-0.03597927,0.0,0.0,0.0
1253.1707,453.323,76711492,0.875,0.12765957,-305.5352,469.50375,0.0027503371,-0.006149143,-0.028783798,0.0,0.0,0.0
1243.5905,464.36743,76711508,0.875,0.08510638,-540.98474,464.39233,0.0027503371,-0.006149143,-0.028783798,0.0,0.0,0.0
1223.0876,483.72375,76711525,0.8625,0.08510638,-1047.8524,844.77026,0.0027503371,-0.006149143,-0.028783798,0.0,0.0,0.0
1204.6852,496.6963,76711542,0.85,0.11702127,-1462.3313,1114.1075,0.0027503371,-0.006149143,-0.028783798,0.0,0.0,0.0
1187.8632,505.31384,76711558,0.8625,0.12765957,-1484.4109,928.06934,0.0027503371,-0.006149143,-0.028783798,0.0,0.0,0.0
1173.9966,512.1061,76711575,0.8625,0.10638297,-1213.1738,517.54596,0.0027503371,-0.006149143,-0.028783798,0.0,0.0,0.0
1166.2723,513.4313,76711592,0.8625,0.10638297,-668.0349,33.495327,0.0027503371,-0.006149143,-0.028783798,0.0,0.0,0.0
1163.5734,513.4313,76711609,0.2875,0.12765957,-152.06021,-192.86464,0.0027503371,-0.006149143,-0.028783798,0.0,0.0,0.0
1163.5734,513.4313,76711616,0.2875,0.12765957,-152.06021,-192.86464,0.0027503371,-0.006149143,-0.028783798,0.0,0.0,0.0
