x,y,timestamp,pressure,fingerarea,velocityx,velocityy,accelx,accely,accelz,gyrox,gyroy,gyroz
221.90561,285.08594,77984656,0.7375,0.09574468,0.0,0.0,0.005193576,-0.021232367,0.046479225,0.0,0.0,0.0
221.90561,285.08594,77984679,0.77500004,0.10638297,-0.0022902472,-0.0051894747,-0.011845142,0.015014112,0.07718372,0.0,0.0,0.0
221.90561,285.08594,77984696,0.825,0.10638297,0.009703169,0.013154194,-0.011845142,0.015014112,0.07718372,0.0,0.0,0.0
221.90561,285.08594,77984713,0.83750004,0.10638297,-0.0081375325,-0.009733335,-0.011845142,0.015014112,0.07718372,0.0,0.0,0.0
221.90561,285.08594,77984729,0.85,0.12765957,2.5446393E-4,0.0015214419,-0.011845142,0.015014112,0.07718372,0.0,0.0,0.0
221.90561,285.08594,77984746,0.8625,0.12765957,-0.014236691,-0.018455632,-0.011845142,0.015014112,0.07718372,0.0,0.0,0.0
221.90561,285.08594,77984763,0.85,0.10638297,0.008015775,0.009314432,-0.011845142,0.015014112,0.07718372,0.0,0.0,0.0
218.95764,313.64478,77984780,0.875,0.08510638,-85.035774,838.1302,-0.011845142,0.015014112,0.07718372,0.0,0.0,0.0
217.87085,326.1494,77984796,0.875,0.10638297,-141.81154,1464.9653,-0.011845142,0.015014112,0.07718372,0.0,0.0,0.0
216.40741,336.1443,77984813,0.875,0.12765957,-140.52406,1278.9089,-0.011845142,0.015014112,0.07718372,0.0,0.0,0.0
216.06143,346.52856,77984830,0.8875,0.12765957,-53.010967,621.43616,-0.011845142,0.015014112,0.07718372,0.0,0.0,0.0
215.90756,358.62415,77984846,0.875,0.08510638,6.91799,375.1859,-0.011845142,0.015014112,0.07718372,0.0,0.0,0.0
215.90756,375.2185,77984863,0.90000004,0.08510638,20.33477,759.8473,-0.011845142,0.015014112,0.07718372,0.0,0.0,0.0
216.34988,388.42725,77984880,0.90000004,0.10638297,38.523506,979.86316,-0.011845142,0.015014112,0.07718372,3.355443E-6,0.0,0.0
215.38995,401.59058,77984896,0.875,0.11702127,7.68757,944.99475,-0.011845142,0.015014112,0.07718372,3.355443E-6,0.0,0.0
214.39127,413.23938,77984913,0.90000004,0.08510638,-44.836876,777.8613,-0.011845142,0.015014112,0.07718372,3.355443E-6,0.0,0.0
212.82693,427.37317,77984930,0.90000004,0.09574468,-103.39352,717.1892,-0.011845142,0.015014112,0.07718372,3.355443E-6,0.0,0.0
211.288,440.0879,77984947,0.875,0.11702127,-132.12982,740.9234,-0.011845142,0.015014112,0.07718372,0.0,0.0,0.0
210.2424,451.23975,77984963,0.875,0.12765957,-110.61692,744.4175,-0.011845142,0.015014112,0.07718372,0.0,0.0,0.0
209.4097,464.78918,77984980,0.875,0.09574468,-65.141235,719.05963,-0.011845142,0.015014112,0.07718372,0.0,0.0,0.0
209.90952,479.57007,77984997,0.8875,0.09574468,3.377247,787.39307,-0.011845142,0.015014112,0.07718372,0.0,0.0,0.0
211.19531,493.3817,77985013,0.8625,0.11702127,74.35907,907.9568,-0.011845142,0.015014112,0.07718372,0.0,0.0,0.0
213.06207,503.5879,77985030,0.8125,0.12765957,138.14635,824.3726,-0.011845142,0.015014112,0.07718372,0.0,0.0,0.0
215.77484,512.7234,77985047,0.6875,0.10638297,202.17993,600.16315,-0.011845142,0.015014112,0.07718372,0.0,0.0,0.0
215.90756,513.4313,77985049,0.3,0.10638297,200.52325,565.70105,-0.011845142,0.015014112,0.07718372,0.0,0.0,0.0
215.90756,513.4313,77985056,0.3,0.10638297,200.52325,565.70105,-0.011845142,0.015014112,0.07718372,0.0,0.0,0.0
197.4136,319.73755,77985340,0.7,0.07446808,0.0,0.0,-0.009476125,-0.043988705,-0.0262537,0.0,0.0,0.0
197.4136,319.73755,77985364,0.77500004,0.09574468,0.0076885116,0.012041999,-0.009476125,-0.043988705,-0.0262537,0.0,0.0,0.0
197.4136,319.73755,77985381,0.83750004,0.12765957,1.21498706E-4,0.0012395023,-0.009476125,-0.043988705,-0.0262537,0.0,0.0,0.0
203.89432,302.672,77985398,0.85,0.12765957,351.77335,-931.2494,-0.009476125,-0.043988705,-0.0262537,0.0,0.0,0.0
206.7229,296.96985,77985414,0.8625,0.11702127,363.47598,-889.9741,-0.009476125,-0.043988705,-0.0262537,0.0,0.0,0.0
210.90204,293.26526,77985431,0.8875,0.10638297,339.345,-628.3374,-0.009476125,-0.043988705,-0.0262537,0.0,0.0,0.0
217.31381,291.30542,77985448,0.875,0.12765957,359.23132,-222.61098,-0.009476125,-0.043988705,-0.0262537,0.0,0.0,0.0
225.41977,293.18726,77985465,0.875,0.10638297,429.0116,227.86552,-0.009476125,-0.043988705,-0.0262537,0.0,0.0,0.0
235.29288,298.34924,77985481,0.8875,0.12765957,657.6936,344.27228,-0.009476125,-0.043988705,-0.0262537,0.0,0.0,0.0
244.17761,303.9098,77985498,0.875,0.10638297,695.1061,492.8809,-0.009476125,-0.043988705,-0.0262537,0.0,0.0,0.0
253.11911,309.44666,77985515,0.85,0.09574468,634.14484,543.8404,-0.009476125,-0.043988705,-0.0262537,0.0,0.0,0.0
261.41855,314.1958,77985531,0.8625,0.09574468,546.9982,443.21347,-0.009476125,-0.043988705,-0.0262537,0.0,0.0,0.0
272.53802,316.1355,77985548,0.875,0.08510638,543.11505,249.3443,-0.009476125,-0.043988705,-0.0262537,0.0,0.0,0.0
284.12466,314.32922,77985565,0.83750004,0.08510638,668.89136,-15.901676,-0.009476125,-0.043988705,-0.0262537,0.0,0.0,0.0
292.93765,309.54114,77985582,0.85,0.10638297,675.32666,-288.46564,-0.009476125,-0.043988705,-0.0262537,0.0,0.0,0.0
299.0164,304.068,77985598,0.8625,0.12765957,529.4331,-492.42654,-0.009476125,-0.043988705,-0.0262537,0.0,0.0,0.0
305.3909,296.84192,77985615,0.83750004,0.11702127,351.2886,-590.1035,-0.009476125,-0.043988705,-0.0262537,0.0,0.0,0.0
309.22308,291.27197,77985632,0.83750004,0.09574468,183.30344,-539.84485,-0.009476125,-0.043988705,-0.0262537,0.0,0.0,0.0
311.52252,286.09753,77985648,0.875,0.09574468,85.08383,-420.3164,-0.009476125,-0.043988705,-0.0262537,0.0,0.0,0.0
313.62402,282.86768,77985665,0.8875,0.09574468,42.633133,-241.35284,-0.009476125,-0.043988705,-0.0262537,0.0,0.0,0.0
315.41385,281.05334,77985682,0.875,0.09574468,8.305266,-99.25854,-0.009476125,-0.043988705,-0.0262537,0.0,0.0,0.0
316.6986,280.64343,77985699,0.875,0.09574468,35.46205,8.437987,-0.009476125,-0.043988705,-0.0262537,0.0,0.0,0.0
317.23706,280.64343,77985715,0.8625,0.11702127,28.833172,86.45177,-0.009476125,-0.043988705,-0.0262537,0.0,0.0,0.0
318.7068,283.01147,77985732,0.8625,0.12765957,24.155912,146.27443,-0.009476125,-0.043988705,-0.0262537,0.0,0.0,0.0
319.8307,289.2224,77985749,0.8875,0.12765957,50.857773,299.16913,0.008419111,0.036809027,-0.037002563,0.0,0.0,0.0
320.86978,300.15173,77985765,0.8625,0.11702127,64.19292,589.3654,0.008419111,0.036809027,-0.037002563,0.0,0.0,0.0
321.91162,314.95483,77985782,0.85,0.08510638,73.19542,939.6518,0.008419111,0.036809027,-0.037002563,0.0,0.0,0.0
321.37323,331.33142,77985799,0.8625,0.11702127,14.863119,1190.9579,0.008419111,0.036809027,-0.037002563,0.0,0.0,0.0
321.37323,344.8756,77985816,0.8625,0.12765957,-28.051003,1154.6991,0.008419111,0.036809027,-0.037002563,0.0,0.0,0.0
322.0154,359.0786,77985832,0.85,0.08510638,-20.389894,1003.378,0.008419111,0.036809027,-0.037002563,0.0,0.0,0.0
321.87308,377.47632,77985849,0.85,0.09574468,-7.5338154,982.8385,0.008419111,0.036809027,-0.037002563,0.0,0.0,0.0
322.34454,391.08557,77985866,0.8625,0.12765957,22.737715,952.4641,0.008419111,0.036809027,-0.037002563,0.0,0.0,0.0
323.4154,405.33826,77985882,0.85,0.10638297,43.98447,914.8996,0.008419111,0.036809027,-0.037002563,0.0,0.0,0.0
325.5006,422.17065,77985899,0.83750004,0.08510638,99.55021,879.7672,0.008419111,0.036809027,-0.037002563,0.0,0.0,0.0
327.08185,436.99622,77985916,0.825,0.08510638,140.05734,901.08923,0.008419111,0.036809027,-0.037002563,0.0,0.0,0.0
328.65384,448.30212,77985933,0.825,0.12765957,138.06052,852.3895,0.008419111,0.036809027,-0.037002563,0.0,0.0,0.0
329.7836,456.8379,77985949,0.8125,0.10638297,97.48202,609.06116,0.008419111,0.036809027,-0.037002563,0.0,0.0,0.0
331.81638,465.26196,77985966,0.77500004,0.08510638,87.299225,371.75113,0.008419111,0.036809027,-0.037002563,0.0,0.0,0.0
333.38965,472.63232,77985983,0.2375,0.08510638,100.14723,308.8897,0.008419111,0.036809027,-0.037002563,0.0,0.0,0.0
333.38965,472.63232,77985990,0.2375,0.08510638,100.14723,308.8897,0.008419111,0.036809027,-0.037002563,0.0,0.0,0.0
377.355,404.1454,77986208,0.6875,0.12765957,0.0,0.0,0.008419111,0.036809027,-0.037002563,0.0,0.0,0.0
377.355,404.1454,77986233,0.75,0.12765957,0.0056622084,0.0027462381,0.008419111,0.036809027,-0.037002563,0.0,0.0,0.0
377.355,404.1454,77986250,0.77500004,0.12765957,0.031844754,0.036222495,0.008419111,0.036809027,-0.037002563,0.0,0.0,0.0
377.355,404.1454,77986267,0.7875,0.11702127,0.00495477,0.005250076,0.008419111,0.036809027,-0.037002563,0.0,0.0,0.0
377.355,404.1454,77986283,0.825,0.11702127,-0.0058500404,-0.005430237,0.022735283,-0.0025528073,0.002398491,0.0,0.0,0.0
377.355,404.1454,77986300,0.8125,0.08510638,0.034793023,0.03614556,0.022735283,-0.0025528073,0.002398491,0.0,0.0,0.0
381.12274,409.29724,77986317,0.8125,0.08510638,63.531372,86.862656,0.022735283,-0.0025528073,0.002398491,0.0,0.0,0.0
393.71014,421.63855,77986334,0.8,0.08510638,483.92557,544.7992,0.022735283,-0.0025528073,0.002398491,0.0,0.0,0.0
405.08078,425.2196,77986350,0.8,0.08510638,892.199,706.56366,0.022735283,-0.0025528073,0.002398491,0.0,0.0,0.0
413.21774,423.97034,77986367,0.8,0.09574468,942.5089,402.19107,0.022735283,-0.0025528073,0.002398491,0.0,0.0,0.0
419.09955,420.3103,77986384,0.8,0.09574468,634.20514,-161.07057,0.022735283,-0.0025528073,0.002398491,0.0,0.0,0.0
422.35342,416.56116,77986400,0.8,0.11702127,216.04173,-539.2031,0.022735283,-0.0025528073,0.002398491,0.0,0.0,0.0
423.93463,411.88916,77986417,0.8,0.12765957,-3.305998,-496.32446,0.022735283,-0.0025528073,0.002398491,0.0,0.0,0.0
423.254,406.3518,77986434,0.8,0.11702127,-121.678604,-413.70914,0.022735283,-0.0025528073,0.002398491,0.0,0.0,0.0
421.5845,400.79712,77986451,0.8125,0.10638297,-201.61053,-379.96768,0.022735283,-0.0025528073,0.002398491,0.0,0.0,0.0
414.8013,397.24097,77986467,0.8125,0.09574468,-347.39206,-322.4418,0.022735283,-0.0025528073,0.002398491,0.0,0.0,0.0
398.665,397.03735,77986484,0.8125,0.10638297,-739.56683,-162.10036,0.022735283,-0.0025528073,0.002398491,0.0,0.0,0.0
384.9353,400.99878,77986501,0.8,0.12765957,-1149.6687,165.328,0.022735283,-0.0025528073,0.002398491,0.0,0.0,0.0
374.04596,407.03125,77986517,0.8125,0.11702127,-1151.845,445.62906,0.022735283,-0.0025528073,0.002398491,0.0,0.0,0.0
363.6121,415.88293,77986534,0.83750004,0.08510638,-861.83154,657.6571,0.022735283,-0.0025528073,0.002398491,0.0,0.0,0.0
354.47833,432.97668,77986551,0.825,0.08510638,-498.42944,956.5129,0.022735283,-0.0025528073,0.002398491,0.0,0.0,0.0
351.36346,444.443,77986568,0.8125,0.09574468,-259.60834,1076.9587,0.022735283,-0.0025528073,0.002398491,0.0,0.0,0.0
355.0428,455.88574,77986584,0.825,0.12765957,90.78897,977.21124,0.022735283,-0.0025528073,0.002398491,0.0,0.0,0.0
360.71872,463.49512,77986601,0.8,0.09574468,486.41724,680.027,0.022735283,-0.0025528073,0.002398491,0.0,0.0,0.0
375.22757,476.4032,77986618,0.7875,0.06382979,923.83514,525.5575,0.022735283,-0.0025528073,0.002398491,0.0,0.0,0.0
396.1299,485.27673,77986634,0.7875,0.07446808,1367.7714,527.4986,0.022735283,-0.0025528073,0.002398491,0.0,0.0,0.0
408.09503,490.33008,77986645,0.77500004,0.07446808,1521.7952,542.73376,0.022735283,-0.0025528073,0.002398491,0.0,0.0,0.0
427.73688,488.03406,77986668,0.75,0.07446808,1305.7191,92.18536,0.022735283,-0.0025528073,0.002398491,0.0,0.0,0.0
439.79727,481.03406,77986684,0.725,0.08510638,997.3312,-419.10892,0.022735283,-0.0025528073,0.002398491,0.0,0.0,0.0
446.49377,474.69824,77986701,0.675,0.09574468,559.7954,-781.0245,0.022735283,-0.0025528073,0.002398491,0.0,0.0,0.0
452.83044,457.45557,77986706,0.175,0.06382979,458.31268,-967.30145,0.022735283,-0.0025528073,0.002398491,0.0,0.0,0.0
452.83044,457.45557,77986713,0.175,0.06382979,458.31268,-967.30145,0.022735283,-0.0025528073,0.002398491,0.0,0.0,0.0
437.33548,287.75146,77986882,0.7875,0.10638297,0.0,0.0,-0.013811767,-0.018042237,-0.030080795,0.0,0.0,0.0
437.33548,287.75146,77986902,0.825,0.10638297,0.079530895,0.051768698,-0.013811767,-0.018042237,-0.030080795,0.0,0.0,0.0
437.33548,287.75146,77986918,0.85,0.10638297,0.005579317,0.0039833905,-0.013811767,-0.018042237,-0.030080795,0.0,0.0,0.0
437.33548,287.75146,77986935,0.83750004,0.12765957,-0.011445709,-0.0075844238,-0.013811767,-0.018042237,-0.030080795,0.0,0.0,0.0
429.84164,311.18933,77986952,0.83750004,0.09574468,-319.05145,948.4022,-0.013811767,-0.018042237,-0.030080795,0.0,0.0,0.0
426.81522,333.1914,77986969,0.8,0.11702127,-388.5437,1640.6531,-0.013811767,-0.018042237,-0.030080795,0.0,0.0,0.0
425.3394,349.0581,77986980,0.6375,0.09574468,-363.1435,1849.9604,-0.013811767,-0.018042237,-0.030080795,0.0,0.0,0.0
425.3394,349.0581,77986986,0.6375,0.09574468,-363.1435,1849.9604,-0.013811767,-0.018042237,-0.030080795,0.0,0.0,0.0
445.3329,475.2256,77987286,0.65000004,0.08510638,0.0,0.0,-0.013811767,-0.018042237,-0.030080795,0.0,0.0,0.0
445.3329,475.2256,77987303,0.71250004,0.08510638,0.0040490557,0.016434094,-0.013811767,-0.018042237,-0.030080795,0.0,0.0,0.0
445.3329,475.2256,77987319,0.75,0.08510638,-0.033162825,-0.03426098,-0.013811767,-0.018042237,-0.030080795,0.0,0.0,0.0
445.3329,475.2256,77987336,0.7625,0.08510638,-0.015486117,-0.020226423,-0.013811767,-0.018042237,-0.030080795,0.0,0.0,0.0
445.3329,475.2256,77987353,0.7625,0.09574468,-0.01935988,-0.019644802,-0.01104942,0.033566207,0.007935524,0.0,0.0,0.0
445.3329,475.2256,77987370,0.77500004,0.09574468,-0.012088772,-0.011385881,-0.01104942,0.033566207,0.007935524,0.0,0.0,0.0
454.13293,468.32434,77987386,0.77500004,0.12765957,163.44418,-128.18172,-0.01104942,0.033566207,0.007935524,0.0,0.0,0.0
470.28302,453.8368,77987403,0.77500004,0.09574468,833.2255,-697.5769,-0.01104942,0.033566207,0.007935524,0.0,0.0,0.0
478.14453,439.70898,77987420,0.7875,0.08510638,1042.8744,-1072.0645,-0.01104942,0.033566207,0.007935524,0.0,0.0,0.0
483.417,425.36548,77987436,0.8,0.08510638,802.7586,-1245.7004,-0.01104942,0.033566207,0.007935524,0.0,0.0,0.0
484.72498,417.26013,77987453,0.7875,0.10638297,232.76202,-944.4763,-0.01104942,0.033566207,0.007935524,0.0,0.0,0.0
485.3199,411.4546,77987470,0.7875,0.12765957,-233.97595,-442.93405,-0.01104942,0.033566207,0.007935524,0.0,0.0,0.0
484.81622,406.79736,77987487,0.8,0.12765957,-178.83885,-197.59738,-0.01104942,0.033566207,0.007935524,0.0,0.0,0.0
483.77795,404.06995,77987503,0.8,0.11702127,-193.7738,3.415848,-0.01104942,0.033566207,0.007935524,0.0,0.0,0.0
481.65582,402.22156,77987520,0.8,0.11702127,-170.0253,2.7316616,-0.01104942,0.033566207,0.007935524,0.0,0.0,0.0
478.92877,400.3584,77987537,0.8125,0.10638297,-191.13828,-9.300648,-0.01104942,0.033566207,0.007935524,0.0,0.0,0.0
477.15076,398.50916,77987553,0.8125,0.10638297,-195.03072,-24.582626,-0.01104942,0.033566207,0.007935524,0.0,0.0,0.0
476.13287,397.92578,77987570,0.8,0.10638297,-135.20515,-37.323994,-0.01104942,0.033566207,0.007935524,0.0,0.0,0.0
476.1917,397.92578,77987587,0.7875,0.12765957,-28.711311,-15.714549,-0.01104942,0.033566207,0.007935524,0.0,0.0,0.0
480.27606,400.2683,77987604,0.77500004,0.12765957,140.29066,90.201004,-0.01104942,0.033566207,0.007935524,0.0,0.0,0.0
492.00146,407.35718,77987620,0.7875,0.09574468,512.6157,322.44687,-0.01104942,0.033566207,0.007935524,0.0,0.0,0.0
507.83374,417.62695,77987637,0.77500004,0.08510638,1021.0823,632.42474,-0.01104942,0.033566207,0.007935524,0.0,0.0,0.0
520.6929,428.72266,77987654,0.7625,0.09574468,1238.0432,852.62024,-0.01104942,0.033566207,0.007935524,0.0,0.0,0.0
529.7637,438.1953,77987670,0.7625,0.09574468,1005.80817,861.2369,-0.01104942,0.033566207,0.007935524,0.0,0.0,0.0
537.094,445.71936,77987687,0.77500004,0.12765957,562.02637,658.0396,-0.01104942,0.033566207,0.007935524,3.355443E-6,0.0,0.0
541.3408,452.1942,77987704,0.7625,0.10638297,200.63557,418.389,-0.01104942,0.033566207,0.007935524,3.355443E-6,0.0,0.0
543.90906,456.7594,77987721,0.7625,0.09574468,43.1411,253.15378,-0.01104942,0.033566207,0.007935524,3.355443E-6,0.0,0.0
544.20746,463.28345,77987737,0.77500004,0.08510638,-63.25839,230.24356,-0.01104942,0.033566207,0.007935524,3.355443E-6,0.0,0.0
540.7591,466.82275,77987754,0.7875,0.09574468,-224.7197,213.27197,-0.01104942,0.033566207,0.007935524,0.0,0.0,0.0
535.37335,469.3368,77987771,0.7875,0.08510638,-404.88037,162.76482,-0.01104942,0.033566207,0.007935524,0.0,0.0,0.0
527.88385,470.78308,77987787,0.77500004,0.08510638,-550.5988,79.59241,-0.01104942,0.033566207,0.007935524,0.0,0.0,0.0
521.5461,470.78308,77987804,0.7875,0.08510638,-594.51715,-43.493492,-0.01104942,0.033566207,0.007935524,0.0,0.0,0.0
518.2246,470.78308,77987821,0.6875,0.08510638,-423.2007,-77.770134,-0.01104942,0.033566207,0.007935524,0.0,0.0,0.0
517.80927,470.78308,77987824,0.375,0.09574468,-384.4785,-80.74204,-0.01104942,0.033566207,0.007935524,0.0,0.0,0.0
517.80927,470.78308,77987832,0.375,0.09574468,-384.4785,-80.74204,-0.01104942,0.033566207,0.007935524,0.0,0.0,0.0
541.80145,421.02686,77987969,0.7375,0.09574468,0.0,0.0,-0.024839535,0.010852963,-0.025651932,0.0,0.0,0.0
541.80145,421.02686,77987988,0.7625,0.08510638,0.022048874,0.0029406769,-0.024839535,0.010852963,-0.025651932,0.0,0.0,0.0
541.80145,421.02686,77988005,0.77500004,0.11702127,0.02505732,0.016387317,-0.024839535,0.010852963,-0.025651932,0.0,0.0,0.0
543.9078,413.07056,77988021,0.7875,0.12765957,85.66989,-323.64368,-0.024839535,0.010852963,-0.025651932,3.355443E-6,0.0,0.0
548.52716,399.84338,77988038,0.8,0.08510638,296.01974,-978.5743,-0.024839535,0.010852963,-0.025651932,3.355443E-6,0.0,0.0
554.5167,392.84412,77988055,0.8,0.08510638,400.93124,-907.3014,-0.024839535,0.010852963,-0.025651932,3.355443E-6,0.0,0.0
564.7487,385.42383,77988071,0.8,0.08510638,621.7576,-707.55524,-0.024839535,0.010852963,-0.025651932,3.355443E-6,0.0,0.0
576.52234,379.54016,77988088,0.7875,0.09574468,799.16437,-433.17188,-0.024839535,0.010852963,-0.025651932,0.0,0.0,0.0
586.8843,378.37878,77988105,0.8,0.09574468,836.0327,-76.17703,-0.024839535,0.010852963,-0.025651932,0.0,0.0,0.0
596.83264,381.9546,77988122,0.8,0.08510638,768.63416,122.705345,-0.024839535,0.010852963,-0.025651932,0.0,0.0,0.0
606.2365,388.47632,77988138,0.7875,0.10638297,606.3678,471.0987,-0.024839535,0.010852963,-0.025651932,0.0,0.0,0.0
612.2091,396.91394,77988155,0.77500004,0.09574468,434.67816,700.7859,-0.024839535,0.010852963,-0.025651932,0.0,0.0,0.0
619.3969,417.0133,77988172,0.7625,0.06382979,352.93405,1074.0477,-0.024839535,0.010852963,-0.025651932,0.0,0.0,0.0
619.6024,434.46802,77988188,0.7625,0.08510638,150.70023,1325.2301,-0.024839535,0.010852963,-0.025651932,0.0,0.0,0.0
613.86487,445.75085,77988205,0.7375,0.10638297,-208.48422,1235.7794,-0.024839535,0.010852963,-0.025651932,0.0,0.0,0.0
605.64734,454.2306,77988222,0.75,0.10638297,-640.2284,766.2836,-0.024839535,0.010852963,-0.025651932,0.0,0.0,0.0
595.48267,461.1167,77988239,0.7625,0.11702127,-897.7948,322.1857,-0.024839535,0.010852963,-0.025651932,0.0,0.0,0.0
585.4006,464.245,77988255,0.77500004,0.10638297,-891.14874,100.25585,-0.024839535,0.010852963,-0.025651932,0.0,0.0,0.0
577.1374,463.92603,77988272,0.77500004,0.09574468,-724.30444,-75.29642,-0.024839535,0.010852963,-0.025651932,0.0,0.0,0.0
573.99854,462.0824,77988289,0.77500004,0.10638297,-407.13617,-268.5629,-0.024839535,0.010852963,-0.025651932,0.0,0.0,0.0
572.35736,460.23804,77988305,0.7875,0.10638297,-76.45491,-348.67615,-0.024839535,0.010852963,-0.025651932,0.0,0.0,0.0
573.2463,458.3839,77988322,0.77500004,0.12765957,160.83698,-275.78796,-0.024839535,0.010852963,-0.025651932,0.0,0.0,0.0
580.4508,456.53503,77988339,0.77500004,0.12765957,417.50357,-177.1251,-0.024839535,0.010852963,-0.025651932,0.0,0.0,0.0
592.66254,457.56702,77988356,0.77500004,0.12765957,729.4838,-43.15081,-0.024839535,0.010852963,-0.025651932,0.0,0.0,0.0
607.89923,462.43762,77988372,0.77500004,0.09574468,1060.0941,170.57402,-0.024839535,0.010852963,-0.025651932,0.0,0.0,0.0
621.3304,466.8429,77988389,0.77500004,0.08510638,1213.4443,365.35114,-0.024839535,0.010852963,-0.025651932,0.0,0.0,0.0
632.6701,472.59155,77988406,0.7625,0.08510638,1041.306,473.32205,-0.024839535,0.010852963,-0.025651932,0.0,0.0,0.0
640.7065,479.42102,77988422,0.7625,0.08510638,688.42267,502.3364,0.012128383,-0.023317635,-0.0045223236,0.0,0.0,0.0
649.5701,485.93005,77988439,0.75,0.07446808,376.421,439.91068,0.012128383,-0.023317635,-0.0045223236,0.0,0.0,0.0
656.53796,490.4923,77988456,0.75,0.08510638,325.3396,388.54147,0.012128383,-0.023317635,-0.0045223236,0.0,0.0,0.0
661.10077,492.70154,77988472,0.6875,0.08510638,285.5215,231.64323,0.012128383,-0.023317635,-0.0045223236,0.0,0.0,0.0
663.26196,492.9956,77988483,0.2875,0.08510638,210.4118,109.697075,0.012128383,-0.023317635,-0.0045223236,0.0,0.0,0.0
663.26196,492.9956,77988490,0.2875,0.08510638,210.4118,109.697075,0.012128383,-0.023317635,-0.0045223236,0.0,0.0,0.0
591.2854,435.24292,77988612,0.7375,0.08510638,0.0,0.0,0.012128383,-0.023317635,-0.0045223236,0.0,0.0,0.0
591.2854,435.24292,77988640,0.77500004,0.09574468,-0.004082895,-0.0044706766,0.012128383,-0.023317635,-0.0045223236,0.0,0.0,0.0
591.2854,435.24292,77988656,0.77500004,0.08510638,0.01311922,0.0074767824,0.012128383,-0.023317635,-0.0045223236,0.0,0.0,0.0
603.6605,434.693,77988673,0.77500004,0.06382979,425.002,-18.873947,0.012128383,-0.023317635,-0.0045223236,0.0,0.0,0.0
625.296,434.3545,77988690,0.7625,0.07446808,1370.1958,-39.41906,0.012128383,-0.023317635,-0.0045223236,0.0,0.0,0.0
637.60406,434.3545,77988706,0.675,0.08510638,1497.7351,-27.104229,0.012128383,-0.023317635,-0.0045223236,0.0,0.0,0.0
659.26324,430.8004,77988716,0.15,0.08510638,1686.8986,-83.32346,0.012128383,-0.023317635,-0.0045223236,0.0,0.0,0.0
659.26324,430.8004,77988724,0.15,0.08510638,1686.8986,-83.32346,0.012128383,-0.023317635,-0.0045223236,0.0,0.0,0.0
737.23785,411.25342,77988917,0.7375,0.10638297,0.0,0.0,0.012128383,-0.023317635,-0.0045223236,0.0,0.0,0.0
737.23785,411.25342,77988940,0.7375,0.12765957,0.06512542,0.037195507,0.012128383,-0.023317635,-0.0045223236,0.0,0.0,0.0
737.23785,411.25342,77988954,0.7625,0.12765957,0.006861587,0.0035642674,-0.0062972903,-0.018654108,-0.01961708,3.355443E-6,0.0,0.0
737.23785,411.25342,77988974,0.77500004,0.10638297,-0.020536676,-0.010357604,-0.0062972903,-0.018654108,-0.01961708,3.355443E-6,0.0,0.0
714.05457,404.8827,77989007,0.7625,0.12765957,-773.4578,-222.96541,-0.0062972903,-0.018654108,-0.01961708,3.355443E-6,0.0,0.0
701.7773,405.0338,77989024,0.7625,0.12765957,-1054.5452,-170.81366,-0.0062972903,-0.018654108,-0.01961708,0.0,0.0,0.0
687.5752,408.2417,77989040,0.7625,0.09574468,-1107.1624,37.931637,-0.0062972903,-0.018654108,-0.01961708,0.0,0.0,0.0
676.5556,412.26147,77989057,0.77500004,0.08510638,-876.05585,325.29822,-0.0062972903,-0.018654108,-0.01961708,0.0,0.0,0.0
668.5931,417.82874,77989074,0.7625,0.08510638,-541.78033,420.67685,-0.0062972903,-0.018654108,-0.01961708,0.0,0.0,0.0
662.121,430.4143,77989091,0.7625,0.08510638,-362.92554,628.31085,-0.0062972903,-0.018654108,-0.01961708,0.0,0.0,0.0
660.58954,442.2804,77989107,0.7625,0.10638297,-90.30903,858.86017,-0.0062972903,-0.018654108,-0.01961708,0.0,0.0,0.0
664.61285,452.09094,77989124,0.7375,0.10638297,235.48741,900.5063,-0.0062972903,-0.018654108,-0.01961708,0.0,0.0,0.0
676.3457,461.12598,77989141,0.725,0.09574468,645.4509,733.50214,-0.0062972903,-0.018654108,-0.01961708,0.0,0.0,0.0
689.86676,466.09827,77989158,0.725,0.09574468,1043.3743,415.319,-0.0062972903,-0.018654108,-0.01961708,0.0,0.0,0.0
706.6321,467.22913,77989174,0.75,0.10638297,1305.5011,88.6813,-0.0062972903,-0.018654108,-0.01961708,0.0,0.0,0.0
722.1512,461.7046,77989191,0.7375,0.10638297,1271.5989,-261.77524,-0.0062972903,-0.018654108,-0.01961708,0.0,0.0,0.0
731.85944,454.23938,77989208,0.75,0.08510638,981.59094,-605.6423,-0.0062972903,-0.018654108,-0.01961708,0.0,0.0,0.0
738.4474,444.64343,77989224,0.75,0.07446808,547.8303,-811.53064,-0.0062972903,-0.018654108,-0.01961708,0.0,0.0,0.0
742.7981,428.46997,77989241,0.75,0.08510638,189.46007,-1022.58075,-0.0062972903,-0.018654108,-0.01961708,0.0,0.0,0.0
743.2359,422.1383,77989258,0.7625,0.10638297,-87.55028,-914.18866,-0.0062972903,-0.018654108,-0.01961708,0.0,0.0,0.0
742.51074,418.84937,77989275,0.77500004,0.10638297,-196.7371,-474.18558,-0.0062972903,-0.018654108,-0.01961708,0.0,0.0,0.0
741.46545,416.9912,77989291,0.77500004,0.10638297,-234.93669,-45.23057,-0.0062972903,-0.018654108,-0.01961708,0.0,0.0,0.0
740.11395,417.13782,77989308,0.7875,0.08510638,-212.81894,242.11325,-0.0062972903,-0.018654108,-0.01961708,0.0,0.0,0.0
738.73737,425.2202,77989325,0.77500004,0.07446808,-150.08826,387.44302,-0.0062972903,-0.018654108,-0.01961708,0.0,0.0,0.0
740.84955,437.42114,77989341,0.77500004,0.08510638,-19.907703,750.63806,-0.0062972903,-0.018654108,-0.01961708,0.0,0.0,0.0
745.4257,449.38513,77989358,0.7375,0.12765957,194.51683,1025.8593,-0.0062972903,-0.018654108,-0.01961708,0.0,0.0,0.0
750.59314,458.98303,77989375,0.71250004,0.11702127,396.33194,1023.68475,-0.0062972903,-0.018654108,-0.01961708,0.0,0.0,0.0
759.80115,469.96985,77989392,0.6875,0.06382979,572.9526,767.48157,-0.0062972903,-0.018654108,-0.01961708,0.0,0.0,0.0
768.4788,476.2926,77989408,0.4375,0.08510638,668.4746,496.6685,-0.0062972903,-0.018654108,-0.01961708,0.0,0.0,0.0
769.7273,477.00256,77989416,0.175,0.06382979,630.08014,369.2584,-0.0062972903,-0.018654108,-0.01961708,0.0,0.0,0.0
769.7273,477.00256,77989423,0.175,0.06382979,630.08014,369.2584,-0.0062972903,-0.018654108,-0.01961708,0.0,0.0,0.0
716.2447,296.63647,77989633,0.75,0.12765957,0.0,0.0,-0.005037844,-0.022923306,-0.063694,0.0,0.0,0.0
716.2447,296.63647,77989659,0.77500004,0.12765957,0.07646809,0.03263282,-0.005037844,-0.022923306,-0.063694,0.0,0.0,0.0
716.2447,296.63647,77989676,0.7875,0.10638297,0.009660656,0.0036933713,-0.005037844,-0.022923306,-0.063694,0.0,0.0,0.0
720.58417,305.89294,77989692,0.77500004,0.08510638,138.78854,296.0255,-0.005037844,-0.022923306,-0.063694,0.0,0.0,0.0
729.51337,323.7766,77989709,0.77500004,0.08510638,555.2762,1144.9326,-0.005037844,-0.022923306,-0.063694,0.0,0.0,0.0
736.11615,336.4021,77989726,0.71250004,0.12765957,635.1446,1266.1417,-0.005037844,-0.022923306,-0.063694,0.0,0.0,0.0
736.73804,337.50757,77989729,0.4875,0.12765957,617.31256,1222.3673,-0.005037844,-0.022923306,-0.063694,0.0,0.0,0.0
736.73804,337.50757,77989736,0.4875,0.12765957,617.31256,1222.3673,-0.005037844,-0.022923306,-0.063694,0.0,0.0,0.0
766.7283,462.7865,77990084,0.6875,0.12765957,0.0,0.0,-0.020030275,-0.010338634,0.061045647,0.0,0.0,0.0
766.7283,462.7865,77990110,0.725,0.12765957,-0.08450832,-0.049921215,-0.020030275,-0.010338634,0.061045647,0.0,0.0,0.0
766.7283,462.7865,77990127,0.7375,0.10638297,-0.0050599035,-0.0037811028,-0.020030275,-0.010338634,0.061045647,0.0,0.0,0.0
788.8716,455.28247,77990160,0.7375,0.10638297,845.9901,-280.3739,-0.020030275,-0.010338634,0.061045647,0.0,0.0,0.0
798.9962,449.75476,77990177,0.7375,0.09574468,931.5685,-378.3011,-0.020030275,-0.010338634,0.061045647,0.0,0.0,0.0
807.5932,442.17505,77990194,0.725,0.08510638,791.45483,-496.17404,-0.020030275,-0.010338634,0.061045647,0.0,0.0,0.0
813.9917,432.97046,77990210,0.7375,0.07446808,420.26578,-590.36017,-0.020030275,-0.010338634,0.061045647,0.0,0.0,0.0
817.8861,421.6808,77990227,0.75,0.10638297,192.37906,-706.0416,-0.020030275,-0.010338634,0.061045647,0.0,0.0,0.0
819.277,409.28992,77990244,0.725,0.12765957,48.40399,-830.507,-0.020030275,-0.010338634,0.061045647,0.0,0.0,0.0
816.79736,400.79358,77990260,0.7625,0.11702127,-157.66754,-767.4553,-0.020030275,-0.010338634,0.061045647,0.0,0.0,0.0
814.1598,396.0547,77990277,0.7375,0.09574468,-313.73642,-475.87338,-0.020030275,-0.010338634,0.061045647,0.0,0.0,0.0
810.54944,392.3999,77990294,0.75,0.09574468,-369.974,-194.3307,-0.020030275,-0.010338634,0.061045647,0.0,0.0,0.0
807.43243,389.76196,77990311,0.7625,0.08510638,-336.87354,-9.387598,-0.020030275,-0.010338634,0.061045647,0.0,0.0,0.0
806.0749,387.90247,77990327,0.75,0.09574468,-206.9942,20.471415,-0.020030275,-0.010338634,0.061045647,0.0,0.0,0.0
805.7156,386.02393,77990344,0.75,0.09574468,-65.66494,-14.6985235,-0.020030275,-0.010338634,0.061045647,0.0,0.0,0.0
813.242,385.48682,77990361,0.7625,0.08510638,206.1899,-19.29056,-0.020030275,-0.010338634,0.061045647,0.0,0.0,0.0
828.4906,384.59827,77990377,0.75,0.08510638,787.60956,-10.656329,-0.020030275,-0.010338634,0.061045647,0.0,0.0,0.0
842.2204,384.59827,77990394,0.7625,0.08510638,1183.7445,4.9694657,-0.020030275,-0.010338634,0.061045647,0.0,0.0,0.0
851.8509,386.07544,77990411,0.75,0.09574468,1144.4907,66.619965,-0.020030275,-0.010338634,0.061045647,0.0,0.0,0.0
858.7389,387.9087,77990427,0.75,0.09574468,691.07886,132.43254,-0.020030275,-0.010338634,0.061045647,0.0,0.0,0.0
862.4731,389.73022,77990444,0.7625,0.11702127,194.09091,168.78772,-0.020030275,-0.010338634,0.061045647,0.0,0.0,0.0
863.6382,391.60217,77990461,0.75,0.11702127,-61.64106,170.28612,-0.020030275,-0.010338634,0.061045647,0.0,0.0,0.0
864.19653,397.812,77990478,0.75,0.12765957,-142.81908,230.26302,-0.020030275,-0.010338634,0.061045647,0.0,0.0,0.0
861.088,407.9912,77990494,0.7625,0.09574468,-230.12794,499.273,-0.020030275,-0.010338634,0.061045647,0.0,0.0,0.0
854.79297,424.89673,77990511,0.7625,0.07446808,-397.65564,916.80096,-0.020030275,-0.010338634,0.061045647,0.0,0.0,0.0
850.29285,437.2196,77990528,0.7625,0.10638297,-469.30493,1134.1315,-0.020030275,-0.010338634,0.061045647,0.0,0.0,0.0
848.0785,447.00037,77990544,0.75,0.12765957,-391.35477,996.5189,0.015975788,-0.06427091,-0.06316376,0.0,0.0,0.0
847.7019,455.12805,77990561,0.75,0.10638297,-162.5691,645.842,0.015975788,-0.06427091,-0.06316376,0.0,0.0,0.0
849.3154,462.1006,77990578,0.7625,0.08510638,138.16728,293.56424,0.015975788,-0.06427091,-0.06316376,0.0,0.0,0.0
852.29626,466.23096,77990594,0.725,0.08510638,258.7639,180.48265,0.015975788,-0.06427091,-0.06316376,0.0,0.0,0.0
861.9719,469.53638,77990611,0.675,0.09574468,453.15646,131.05092,0.015975788,-0.06427091,-0.06316376,3.355443E-6,0.0,0.0
868.19525,469.89453,77990626,0.32500002,0.09574468,633.6818,19.918692,0.015975788,-0.06427091,-0.06316376,0.0,0.0,0.0
868.19525,469.89453,77990631,0.32500002,0.09574468,633.6818,19.918692,0.015975788,-0.06427091,-0.06316376,0.0,0.0,0.0
926.17633,401.47986,77990759,0.6875,0.12765957,0.0,0.0,0.015975788,-0.06427091,-0.06316376,0.0,0.0,0.0
926.17633,401.47986,77990778,0.725,0.12765957,-0.29018146,-0.11612496,0.015975788,-0.06427091,-0.06316376,0.0,0.0,0.0
926.17633,401.47986,77990795,0.75,0.11702127,-0.0496243,-0.025402032,0.015975788,-0.06427091,-0.06316376,0.0,0.0,0.0
926.17633,401.47986,77990812,0.75,0.11702127,0.038043603,0.01628505,0.015975788,-0.06427091,-0.06316376,3.355443E-6,0.0,0.0
926.17633,401.47986,77990844,0.75,0.12765957,0.040366422,0.018696547,0.015975788,-0.06427091,-0.06316376,3.355443E-6,0.0,0.0
910.5821,412.3999,77990879,0.7625,0.10638297,-427.86774,299.62625,0.015975788,-0.06427091,-0.06316376,0.0,0.0,0.0
901.3113,420.89807,77990895,0.75,0.06382979,-797.052,609.4527,0.015975788,-0.06427091,-0.06316376,0.0,0.0,0.0
894.04333,431.91565,77990912,0.7625,0.08510638,-679.5847,788.1621,0.015975788,-0.06427091,-0.06316376,0.0,0.0,0.0
891.063,440.1289,77990929,0.75,0.09574468,-451.79587,758.6772,0.015975788,-0.06427091,-0.06316376,0.0,0.0,0.0
891.7873,447.5027,77990946,0.725,0.10638297,169.59885,455.12308,0.015975788,-0.06427091,-0.06316376,0.0,0.0,0.0
895.1535,452.67786,77990962,0.7375,0.12765957,360.45386,352.03098,0.015975788,-0.06427091,-0.06316376,0.0,0.0,0.0
901.40936,458.54395,77990979,0.7375,0.10638297,492.5236,265.7557,0.015975788,-0.06427091,-0.06316376,0.0,0.0,0.0
910.01636,461.37183,77990996,0.71250004,0.11702127,654.3394,149.65163,0.015975788,-0.06427091,-0.06316376,0.0,0.0,0.0
920.72644,461.4431,77991012,0.725,0.12765957,757.343,47.96963,0.015975788,-0.06427091,-0.06316376,0.0,0.0,0.0
930.829,457.6604,77991029,0.725,0.10638297,794.1546,-183.41187,0.015975788,-0.06427091,-0.06316376,0.0,0.0,0.0
940.3463,452.11926,77991046,0.725,0.09574468,728.79877,-434.24112,0.015975788,-0.06427091,-0.06316376,0.0,0.0,0.0
947.1137,445.11572,77991063,0.7375,0.08510638,547.1169,-582.03503,0.015975788,-0.06427091,-0.06316376,0.0,0.0,0.0
953.66077,430.46387,77991079,0.725,0.07446808,361.822,-787.41437,0.012780637,0.052583277,0.061469078,0.0,0.0,0.0
956.5493,418.0974,77991096,0.75,0.10638297,198.75238,-953.38965,0.012780637,0.052583277,0.061469078,0.0,0.0,0.0
956.1741,408.64062,77991113,0.75,0.12765957,-8.244916,-929.7081,0.012780637,0.052583277,0.061469078,0.0,0.0,0.0
954.08417,403.9978,77991129,0.75,0.09574468,-204.07877,-569.7323,0.012780637,0.052583277,0.061469078,0.0,0.0,0.0
948.70154,398.39893,77991146,0.7625,0.08510638,-388.87857,-234.66576,0.012780637,0.052583277,0.061469078,0.0,0.0,0.0
940.224,393.9508,77991163,0.75,0.08510638,-583.5849,-83.30921,0.012780637,0.052583277,0.061469078,0.0,0.0,0.0
932.1959,392.26648,77991180,0.75,0.09574468,-654.6961,-57.570076,0.012780637,0.052583277,0.061469078,0.0,0.0,0.0
925.2799,391.7063,77991196,0.75,0.09574468,-633.1494,-14.19869,0.012780637,0.052583277,0.061469078,0.0,0.0,0.0
920.5918,392.0924,77991213,0.75,0.11702127,-423.19592,93.71292,0.012780637,0.052583277,0.061469078,0.0,0.0,0.0
917.1409,393.96167,77991230,0.7625,0.12765957,-226.57664,174.27866,0.012780637,0.052583277,0.061469078,0.0,0.0,0.0
914.86945,397.8047,77991246,0.75,0.12765957,-88.91109,236.1207,0.012780637,0.052583277,0.061469078,0.0,0.0,0.0
914.18024,403.29773,77991263,0.7375,0.11702127,20.14929,362.72504,0.012780637,0.052583277,0.061469078,0.0,0.0,0.0
915.05615,407.47937,77991280,0.75,0.09574468,95.5103,410.01938,0.012780637,0.052583277,0.061469078,0.0,0.0,0.0
920.8863,413.29346,77991297,0.75,0.09574468,253.48877,380.40176,0.012780637,0.052583277,0.061469078,0.0,0.0,0.0
931.2017,419.0398,77991313,0.75,0.08510638,545.5048,368.71365,0.012780637,0.052583277,0.061469078,0.0,0.0,0.0
944.86285,420.13843,77991330,0.75,0.08510638,905.9117,230.41609,0.012780637,0.052583277,0.061469078,0.0,0.0,0.0
959.6184,417.2124,77991347,0.75,0.11702127,1109.4694,-24.541939,0.012780637,0.052583277,0.061469078,0.0,0.0,0.0
970.11646,411.67932,77991363,0.7375,0.12765957,1036.0603,-350.35965,0.012780637,0.052583277,0.061469078,0.0,0.0,0.0
982.27,402.9519,77991380,0.7625,0.10638297,835.492,-650.46564,0.012780637,0.052583277,0.061469078,0.0,0.0,0.0
990.719,394.41223,77991397,0.7375,0.08510638,607.24866,-739.44275,0.012780637,0.052583277,0.061469078,0.0,0.0,0.0
996.4706,385.44873,77991413,0.7375,0.06382979,393.40576,-717.92255,0.012780637,0.052583277,0.061469078,0.0,0.0,0.0
1002.86914,371.7953,77991430,0.7625,0.08510638,256.56345,-757.9468,0.012780637,0.052583277,0.061469078,0.0,0.0,0.0
1005.43225,361.6598,77991447,0.75,0.12765957,137.71323,-800.34863,0.012780637,0.052583277,0.061469078,0.0,0.0,0.0
1005.329,355.3401,77991464,0.7375,0.10638297,-14.76016,-634.2382,0.012780637,0.052583277,0.061469078,0.0,0.0,0.0
1004.30115,351.36877,77991480,0.75,0.10638297,-164.50282,-306.66803,0.012780637,0.052583277,0.061469078,3.355443E-6,0.0,0.0
1003.2744,349.27698,77991497,0.7625,0.10638297,-233.05022,-3.6799376,0.012780637,0.052583277,0.061469078,3.355443E-6,0.0,0.0
1002.2289,347.41846,77991514,0.7625,0.10638297,-198.18134,101.251144,0.012780637,0.052583277,0.061469078,3.355443E-6,0.0,0.0
1001.17847,347.28113,77991530,0.7625,0.10638297,-102.62873,73.88413,0.012780637,0.052583277,0.061469078,3.355443E-6,0.0,0.0
1000.1244,347.28113,77991547,0.7625,0.12765957,-67.769714,66.87783,0.012780637,0.052583277,0.061469078,0.0,0.0,0.0
999.65247,351.052,77991564,0.77500004,0.09574468,-51.05476,168.62773,0.012780637,0.052583277,0.061469078,0.0,0.0,0.0
1002.4535,357.5912,77991581,0.75,0.08510638,59.71931,364.07672,0.012780637,0.052583277,0.061469078,0.0,0.0,0.0
1012.98474,377.47192,77991597,0.75,0.08510638,380.0256,834.6346,0.012780637,0.052583277,0.061469078,0.0,0.0,0.0
1021.65845,385.8562,77991614,0.75,0.11702127,675.2231,1051.0702,0.026224494,0.026066631,-0.046824455,0.0,0.0,0.0
1035.4148,398.42395,77991631,0.75,0.12765957,933.4568,1056.917,0.026224494,0.026066631,-0.046824455,0.0,0.0,0.0
1047.9677,408.6543,77991647,0.725,0.08510638,1007.89197,796.4539,0.026224494,0.026066631,-0.046824455,0.0,0.0,0.0
1057.3081,416.91956,77991664,0.725,0.08510638,837.0627,520.39496,0.026224494,0.026066631,-0.046824455,0.0,0.0,0.0
1063.8291,423.51147,77991681,0.7375,0.07446808,544.7559,368.8916,0.026224494,0.026066631,-0.046824455,0.0,0.0,0.0
1067.5642,431.06836,77991698,0.725,0.08510638,189.86897,273.94122,0.026224494,0.026066631,-0.046824455,0.0,0.0,0.0
1069.1298,438.23096,77991714,0.75,0.08510638,-37.007225,317.60577,0.026224494,0.026066631,-0.046824455,0.0,0.0,0.0
1066.7731,442.26648,77991731,0.75,0.10638297,-189.15364,333.1817,0.026224494,0.026066631,-0.046824455,0.0,0.0,0.0
1058.6904,448.52527,77991748,0.75,0.10638297,-438.1641,295.27734,0.026224494,0.026066631,-0.046824455,0.0,0.0,0.0
1046.7745,454.98328,77991764,0.725,0.12765957,-792.04364,311.35266,0.026224494,0.026066631,-0.046824455,0.0,0.0,0.0
1037.9417,458.61975,77991781,0.71250004,0.11702127,-901.185,268.88895,0.026224494,0.026066631,-0.046824455,0.0,0.0,0.0
1032.6417,460.1211,77991789,0.55,0.10638297,-925.9609,252.67288,0.026224494,0.026066631,-0.046824455,0.0,0.0,0.0
1032.6417,460.1211,77991795,0.55,0.10638297,-925.9609,252.67288,0.026224494,0.026066631,-0.046824455,0.0,0.0,0.0
