x,y,timestamp,pressure,fingerarea,velocityx,velocityy,accelx,accely,accelz,gyrox,gyroy,gyroz
232.40219,288.6399,78030960,0.725,0.10638297,0.0,0.0,-0.031199127,0.02471739,-0.03316784,0.0,0.0,0.0
232.40219,288.6399,78030984,0.8,0.09574468,0.019949151,0.02640205,-0.031199127,0.02471739,-0.03316784,0.0,0.0,0.0
232.40219,288.6399,78031000,0.8125,0.09574468,0.002789676,0.0030889588,-0.031199127,0.02471739,-0.03316784,0.0,0.0,0.0
232.40219,288.6399,78031017,0.83750004,0.12765957,0.013878864,0.017991543,-0.031199127,0.02471739,-0.03316784,0.0,0.0,0.0
232.40219,288.6399,78031033,0.8625,0.10638297,0.009432962,0.012160943,-0.031199127,0.02471739,-0.03316784,0.0,0.0,0.0
232.40219,288.6399,78031050,0.875,0.12765957,-0.015498733,-0.020093028,-0.031199127,0.02471739,-0.03316784,0.0,0.0,0.0
231.30817,300.3081,78031067,0.8875,0.10638297,-24.90357,265.4029,-0.031199127,0.02471739,-0.03316784,0.0,0.0,0.0
230.13495,315.55078,78031084,0.8875,0.08510638,-81.43997,946.2468,-0.031199127,0.02471739,-0.03316784,0.0,0.0,0.0
229.09515,328.90137,78031100,0.8875,0.10638297,-98.77786,1223.4375,-0.031199127,0.02471739,-0.03316784,0.0,0.0,0.0
228.55505,339.4452,78031117,0.875,0.10638297,-75.816536,1104.6937,-0.024959296,-0.012226105,0.0054655075,0.0,0.0,0.0
227.51578,349.8402,78031134,0.8875,0.10638297,-40.011772,629.77893,-0.024959296,-0.012226105,0.0054655075,0.0,0.0,0.0
226.90399,360.7025,78031150,0.8625,0.08510638,-36.300224,488.55545,-0.024959296,-0.012226105,0.0054655075,0.0,0.0,0.0
226.90399,373.5227,78031167,0.875,0.08510638,-20.96725,603.0449,-0.024959296,-0.012226105,0.0054655075,0.0,0.0,0.0
227.91046,384.67078,78031184,0.8875,0.09574468,35.268944,714.7254,-0.024959296,-0.012226105,0.0054655075,0.0,0.0,0.0
227.90366,394.71497,78031201,0.8625,0.10638297,57.063847,690.4505,-0.024959296,-0.012226105,0.0054655075,0.0,0.0,0.0
227.31696,405.96057,78031217,0.875,0.10638297,28.223186,648.62726,-0.024959296,-0.012226105,0.0054655075,0.0,0.0,0.0
227.40384,419.23694,78031234,0.875,0.08510638,-12.212018,673.44495,-0.024959296,-0.012226105,0.0054655075,0.0,0.0,0.0
228.56384,433.68396,78031251,0.8875,0.08510638,4.5925636,810.6538,-0.024959296,-0.012226105,0.0054655075,0.0,0.0,0.0
228.90335,444.51367,78031267,0.85,0.10638297,37.326508,854.8371,-0.024959296,-0.012226105,0.0054655075,0.0,0.0,0.0
229.64667,455.17712,78031284,0.83750004,0.10638297,63.93325,719.10175,-0.024959296,-0.012226105,0.0054655075,0.0,0.0,0.0
231.22522,462.4713,78031301,0.8125,0.08510638,72.59238,497.0042,-0.024959296,-0.012226105,0.0054655075,0.0,0.0,0.0
233.73004,470.17285,78031317,0.6625,0.08510638,128.35144,340.8488,-0.024959296,-0.012226105,0.0054655075,0.0,0.0,0.0
233.9017,470.78308,78031320,0.3125,0.08510638,133.58797,324.47214,-0.024959296,-0.012226105,0.0054655075,0.0,0.0,0.0
233.9017,470.78308,78031328,0.3125,0.08510638,133.58797,324.47214,-0.024959296,-0.012226105,0.0054655075,0.0,0.0,0.0
223.40512,337.50757,78031586,0.71250004,0.09574468,0.0,0.0,-0.024959296,-0.012226105,0.0054655075,0.0,0.0,0.0
223.40512,337.50757,78031618,0.8125,0.08510638,0.0068412265,0.008028649,-0.024959296,-0.012226105,0.0054655075,0.0,0.0,0.0
230.35455,318.5028,78031635,0.83750004,0.09574468,464.23965,-1269.5314,-0.024959296,-0.012226105,0.0054655075,0.0,0.0,0.0
234.99704,310.8589,78031652,0.85,0.12765957,467.50784,-1055.5562,0.012032568,-0.009780884,0.0043725967,0.0,0.0,0.0
242.7934,300.19727,78031668,0.83750004,0.12765957,535.9614,-905.3361,0.012032568,-0.009780884,0.0043725967,0.0,0.0,0.0
248.67282,293.56372,78031685,0.83750004,0.11702127,533.96545,-724.86255,0.012032568,-0.009780884,0.0043725967,0.0,0.0,0.0
255.76059,287.42615,78031702,0.85,0.09574468,467.15225,-300.70978,0.012032568,-0.009780884,0.0043725967,0.0,0.0,0.0
262.74066,283.72815,78031719,0.8625,0.08510638,458.4819,-251.4662,0.012032568,-0.009780884,0.0043725967,0.0,0.0,0.0
269.7118,283.30884,78031735,0.875,0.10638297,427.60263,-25.89318,0.012032568,-0.009780884,0.0043725967,0.0,0.0,0.0
275.61484,284.81104,78031752,0.8625,0.10638297,395.4234,165.57878,0.012032568,-0.009780884,0.0043725967,0.0,0.0,0.0
280.89426,288.87256,78031769,0.8625,0.10638297,324.78436,330.63565,0.012032568,-0.009780884,0.0043725967,0.0,0.0,0.0
287.32437,296.8141,78031785,0.8625,0.09574468,305.2478,500.48825,0.012032568,-0.009780884,0.0043725967,0.0,0.0,0.0
294.084,305.19043,78031802,0.85,0.08510638,336.74985,643.5108,0.012032568,-0.009780884,0.0043725967,0.0,0.0,0.0
302.40768,315.3285,78031819,0.825,0.09574468,455.20853,729.0085,0.012032568,-0.009780884,0.0043725967,0.0,0.0,0.0
311.7691,323.60168,78031835,0.825,0.08510638,573.3524,700.7709,0.012032568,-0.009780884,0.0043725967,0.0,0.0,0.0
321.4362,327.18896,78031852,0.825,0.08510638,628.2086,453.08362,0.012032568,-0.009780884,0.0043725967,0.0,0.0,0.0
334.1621,326.60046,78031869,0.825,0.08510638,725.6316,100.30189,0.012032568,-0.009780884,0.0043725967,0.0,0.0,0.0
344.75977,321.3933,78031886,0.825,0.08510638,766.79865,-301.3177,0.012032568,-0.009780884,0.0043725967,0.0,0.0,0.0
352.55304,315.12622,78031902,0.825,0.08510638,674.6597,-601.7449,0.012032568,-0.009780884,0.0043725967,0.0,0.0,0.0
358.34103,309.54663,78031919,0.825,0.11702127,436.94043,-618.15735,0.012032568,-0.009780884,0.0043725967,0.0,0.0,0.0
362.21692,305.39478,78031936,0.825,0.12765957,167.97995,-465.7354,0.012032568,-0.009780884,0.0043725967,0.0,0.0,0.0
364.42926,302.3495,78031952,0.825,0.12765957,26.038706,-243.11351,0.012032568,-0.009780884,0.0043725967,0.0,0.0,0.0
365.71036,300.45422,78031969,0.825,0.12765957,-36.515987,-84.682625,0.012032568,-0.009780884,0.0043725967,0.0,0.0,0.0
365.85876,298.60193,78031986,0.83750004,0.12765957,-67.13123,-31.824532,0.012032568,-0.009780884,0.0043725967,0.0,0.0,0.0
365.85876,298.41345,78032000,0.825,0.12765957,-86.4585,0.18826917,0.012032568,-0.009780884,0.0043725967,0.0,0.0,0.0
366.3753,300.24988,78032036,0.8625,0.11702127,-27.089357,97.55125,0.012032568,-0.009780884,0.0043725967,0.0,0.0,0.0
366.35858,306.87415,78032053,0.85,0.09574468,1.8947395,300.70944,0.012032568,-0.009780884,0.0043725967,0.0,0.0,0.0
365.35892,319.40564,78032069,0.85,0.09574468,-26.007183,668.7743,0.012032568,-0.009780884,0.0043725967,0.0,0.0,0.0
363.71518,331.93762,78032086,0.85,0.10638297,-83.42006,961.18866,0.012032568,-0.009780884,0.0043725967,0.0,0.0,0.0
361.97168,345.25403,78032103,0.83750004,0.12765957,-134.18787,1016.3282,0.012032568,-0.009780884,0.0043725967,0.0,0.0,0.0
358.9313,360.87268,78032120,0.83750004,0.08510638,-182.8292,1056.7701,0.012032568,-0.009780884,0.0043725967,0.0,0.0,0.0
356.33664,378.92383,78032136,0.825,0.08510638,-193.96802,1075.893,0.012032568,-0.009780884,0.0043725967,0.0,0.0,0.0
353.76328,392.7688,78032153,0.825,0.10638297,-205.93326,1073.4618,0.012032568,-0.009780884,0.0043725967,0.0,0.0,0.0
353.06027,405.78235,78032170,0.8125,0.10638297,-129.02147,925.0158,0.012032568,-0.009780884,0.0043725967,0.0,0.0,0.0
352.36316,422.2804,78032186,0.825,0.08510638,-28.423292,801.4499,0.009626061,0.0081753135,-0.02850151,0.0,0.0,0.0
352.36316,436.9668,78032203,0.8125,0.08510638,32.943153,832.89526,0.009626061,0.0081753135,-0.02850151,0.0,0.0,0.0
353.31906,444.7052,78032220,0.8,0.12765957,81.06198,748.7233,0.009626061,0.0081753135,-0.02850151,0.0,0.0,0.0
355.35513,452.0995,78032237,0.7375,0.12765957,116.12353,463.50348,0.009626061,0.0081753135,-0.02850151,0.0,0.0,0.0
355.862,453.9015,78032246,0.275,0.12765957,136.19298,298.95914,0.009626061,0.0081753135,-0.02850151,0.0,0.0,0.0
355.862,453.9015,78032252,0.275,0.12765957,136.19298,298.95914,0.009626061,0.0081753135,-0.02850151,0.0,0.0,0.0
398.84802,392.59485,78032389,0.8,0.09574468,0.0,0.0,0.009626061,0.0081753135,-0.02850151,0.0,0.0,0.0
398.84802,392.59485,78032420,0.8125,0.08510638,0.0017143008,0.0014005117,0.009626061,0.0081753135,-0.02850151,0.0,0.0,0.0
398.84802,392.59485,78032437,0.83750004,0.09574468,0.022242136,0.02084768,0.009626061,0.0081753135,-0.02850151,0.0,0.0,0.0
398.84802,392.59485,78032454,0.8125,0.09574468,-0.01299735,-0.015490731,0.009626061,0.0081753135,-0.02850151,3.355443E-6,0.0,0.0
398.84802,392.59485,78032466,0.825,0.12765957,0.010118868,0.007025928,0.009626061,0.0081753135,-0.02850151,3.355443E-6,0.0,0.0
398.84802,392.59485,78032486,0.8,0.12765957,-0.022185504,-0.022251086,0.009626061,0.0081753135,-0.02850151,3.355443E-6,0.0,0.0
422.3194,403.66113,78032504,0.8,0.12765957,695.8332,334.55957,0.009626061,0.0081753135,-0.02850151,3.355443E-6,0.0,0.0
436.14578,405.0338,78032521,0.8,0.10638297,1112.3876,396.28107,0.009626061,0.0081753135,-0.02850151,0.0,0.0,0.0
449.0713,402.5332,78032537,0.8125,0.10638297,1231.4606,161.17549,0.009626061,0.0081753135,-0.02850151,0.0,0.0,0.0
459.5274,397.50623,78032554,0.8,0.10638297,905.9171,-298.2808,0.009626061,0.0081753135,-0.02850151,0.0,0.0,0.0
466.96045,392.47522,78032571,0.7875,0.09574468,457.70923,-592.9133,0.009626061,0.0081753135,-0.02850151,0.0,0.0,0.0
469.77826,387.67065,78032587,0.7875,0.09574468,225.28773,-484.03033,0.009626061,0.0081753135,-0.02850151,0.0,0.0,0.0
471.3244,380.27063,78032604,0.8,0.09574468,-50.984596,-437.55154,0.009626061,0.0081753135,-0.02850151,0.0,0.0,0.0
469.52594,373.58325,78032621,0.8125,0.08510638,-229.80772,-447.94507,0.009626061,0.0081753135,-0.02850151,0.0,0.0,0.0
463.3177,368.93213,78032638,0.8125,0.08510638,-405.51755,-405.4154,0.009626061,0.0081753135,-0.02850151,0.0,0.0,0.0
450.5943,365.9757,78032654,0.8125,0.08510638,-698.3456,-289.49658,0.009626061,0.0081753135,-0.02850151,0.0,0.0,0.0
434.0526,366.8579,78032671,0.825,0.09574468,-1099.0565,-14.033629,0.009626061,0.0081753135,-0.02850151,0.0,0.0,0.0
417.80856,373.47974,78032688,0.8,0.08510638,-1293.0769,323.10614,0.009626061,0.0081753135,-0.02850151,0.0,0.0,0.0
403.44687,382.82104,78032704,0.825,0.08510638,-1228.3309,646.3618,0.009626061,0.0081753135,-0.02850151,0.0,0.0,0.0
396.20795,389.72412,78032721,0.8125,0.12765957,-830.43945,766.39026,-0.02429916,-0.033459738,0.025197983,0.0,0.0,0.0
390.33557,400.6454,78032738,0.8125,0.10638297,-391.2658,764.5823,-0.02429916,-0.033459738,0.025197983,0.0,0.0,0.0
389.27573,414.27136,78032754,0.8125,0.08510638,-19.900105,806.8759,-0.02429916,-0.033459738,0.025197983,0.0,0.0,0.0
393.7903,428.45605,78032771,0.8,0.08510638,339.11826,931.504,-0.02429916,-0.033459738,0.025197983,0.0,0.0,0.0
401.03015,438.42126,78032788,0.7875,0.09574468,588.4022,908.7521,-0.02429916,-0.033459738,0.025197983,0.0,0.0,0.0
412.88202,447.4087,78032805,0.77500004,0.12765957,863.5768,669.59094,-0.02429916,-0.033459738,0.025197983,0.0,0.0,0.0
428.85202,453.23877,78032821,0.7625,0.12765957,1080.238,346.78644,-0.02429916,-0.033459738,0.025197983,0.0,0.0,0.0
447.1552,455.67847,78032838,0.7625,0.10638297,1284.937,114.17575,-0.02429916,-0.033459738,0.025197983,0.0,0.0,0.0
465.9948,450.67578,78032855,0.7375,0.10638297,1382.492,-187.86781,-0.02429916,-0.033459738,0.025197983,0.0,0.0,0.0
469.8249,448.57056,78032863,0.35,0.09574468,1294.4492,-360.575,-0.02429916,-0.033459738,0.025197983,0.0,0.0,0.0
469.8249,448.57056,78032871,0.35,0.09574468,1294.4492,-360.575,-0.02429916,-0.033459738,0.025197983,0.0,0.0,0.0
477.32245,253.98828,78033056,0.8125,0.11702127,0.0,0.0,-0.02429916,-0.033459738,0.025197983,0.0,0.0,0.0
477.32245,253.98828,78033089,0.8625,0.08510638,-0.0017597625,-3.6050464E-4,-0.02429916,-0.033459738,0.025197983,0.0,0.0,0.0
471.8429,273.469,78033105,0.8125,0.10638297,-356.7112,1268.202,-0.02429916,-0.033459738,0.025197983,0.0,0.0,0.0
472.4129,284.25635,78033122,0.77500004,0.12765957,-210.19339,1337.5184,-0.02429916,-0.033459738,0.025197983,0.0,0.0,0.0
472.8239,295.74792,78033137,0.26250002,0.12765957,-91.3323,1338.3284,-0.02429916,-0.033459738,0.025197983,0.0,0.0,0.0
472.8239,295.74792,78033144,0.26250002,0.12765957,-91.3323,1338.3284,-0.02429916,-0.033459738,0.025197983,0.0,0.0,0.0
476.3228,457.45557,78034015,0.7,0.12765957,0.0,0.0,0.013248533,0.010585755,-0.0030727386,0.0,0.0,0.0
476.3228,457.45557,78034041,0.75,0.12765957,-0.0052625877,-0.0077106366,0.013248533,0.010585755,-0.0030727386,0.0,0.0,0.0
476.3228,457.45557,78034058,0.77500004,0.12765957,-0.014963381,-0.015765421,0.013248533,0.010585755,-0.0030727386,3.355443E-6,0.0,0.0
476.3228,457.45557,78034074,0.7875,0.11702127,0.017587692,0.018621279,0.013248533,0.010585755,-0.0030727386,3.355443E-6,0.0,0.0
487.2484,446.99805,78034091,0.77500004,0.08510638,266.81464,-255.39409,0.013248533,0.010585755,-0.0030727386,3.355443E-6,0.0,0.0
506.6958,428.27368,78034108,0.8,0.08510638,1045.0,-995.21075,0.013248533,0.010585755,-0.0030727386,3.355443E-6,0.0,0.0
517.0396,416.56262,78034125,0.7875,0.10638297,1320.4414,-1308.108,0.013248533,0.010585755,-0.0030727386,0.0,0.0,0.0
524.18933,405.2433,78034142,0.7875,0.11702127,1013.33185,-1160.1783,0.013248533,0.010585755,-0.0030727386,0.0,0.0,0.0
531.27814,387.125,78034158,0.77500004,0.09574468,467.4041,-916.7357,0.013248533,0.010585755,-0.0030727386,0.0,0.0,0.0
534.28186,371.54517,78034175,0.8125,0.09574468,5.6392803,-869.39905,0.013248533,0.010585755,-0.0030727386,0.0,0.0,0.0
534.3039,364.94226,78034192,0.8125,0.11702127,-25.749907,-833.03796,0.013248533,0.010585755,-0.0030727386,0.0,0.0,0.0
533.2457,360.4005,78034208,0.8125,0.12765957,-174.64476,-424.00784,0.013248533,0.010585755,-0.0030727386,0.0,0.0,0.0
531.1167,357.77588,78034225,0.83750004,0.12765957,-272.1818,-3.701086,0.013248533,0.010585755,-0.0030727386,0.0,0.0,0.0
528.54193,355.93164,78034242,0.83750004,0.12765957,-297.44736,206.89474,0.013248533,0.010585755,-0.0030727386,0.0,0.0,0.0
526.62915,356.16614,78034258,0.83750004,0.10638297,-223.13155,145.5567,0.013248533,0.010585755,-0.0030727386,0.0,0.0,0.0
525.8067,357.79675,78034275,0.8125,0.10638297,-137.05492,139.42628,0.013248533,0.010585755,-0.0030727386,0.0,0.0,0.0
527.0553,362.38452,78034292,0.8125,0.09574468,15.365584,270.56763,0.013248533,0.010585755,-0.0030727386,0.0,0.0,0.0
533.53326,371.00146,78034309,0.8125,0.09574468,256.6128,465.67877,0.013248533,0.010585755,-0.0030727386,0.0,0.0,0.0
552.0904,386.6449,78034325,0.8,0.09574468,803.76917,863.1797,-0.005401194,0.008468598,-0.0024576187,0.0,0.0,0.0
571.00183,398.56665,78034342,0.7625,0.12765957,1409.4998,1096.867,-0.005401194,0.008468598,-0.0024576187,0.0,0.0,0.0
586.495,407.76794,78034359,0.7625,0.11702127,1548.324,951.2926,-0.005401194,0.008468598,-0.0024576187,0.0,0.0,0.0
598.25385,416.15686,78034375,0.75,0.08510638,1201.3159,634.09033,-0.005401194,0.008468598,-0.0024576187,0.0,0.0,0.0
606.6743,423.59814,78034392,0.75,0.06382979,627.046,344.69833,-0.005401194,0.008468598,-0.0024576187,0.0,0.0,0.0
609.84656,428.2544,78034409,0.75,0.08510638,152.34471,247.63751,-0.005401194,0.008468598,-0.0024576187,0.0,0.0,0.0
610.77905,434.78723,78034426,0.77500004,0.08510638,-80.65402,264.94635,-0.005401194,0.008468598,-0.0024576187,0.0,0.0,0.0
607.9412,438.10913,78034442,0.7625,0.10638297,-307.4663,212.9216,-0.005401194,0.008468598,-0.0024576187,0.0,0.0,0.0
599.3578,443.74597,78034459,0.77500004,0.11702127,-558.20074,216.32834,-0.005401194,0.008468598,-0.0024576187,0.0,0.0,0.0
587.50934,447.4679,78034476,0.7875,0.10638297,-817.06165,220.44426,-0.005401194,0.008468598,-0.0024576187,0.0,0.0,0.0
575.7444,449.45898,78034492,0.77500004,0.09574468,-993.4994,161.35225,-0.005401194,0.008468598,-0.0024576187,0.0,0.0,0.0
567.43805,449.45898,78034509,0.6875,0.09574468,-862.44904,33.081055,-0.005401194,0.008468598,-0.0024576187,0.0,0.0,0.0
566.2935,449.45898,78034513,0.275,0.09574468,-810.40826,7.9824734,-0.005401194,0.008468598,-0.0024576187,0.0,0.0,0.0
566.2935,449.45898,78034520,0.275,0.09574468,-810.40826,7.9824734,-0.005401194,0.008468598,-0.0024576187,0.0,0.0,0.0
580.7888,378.37878,78034674,0.7625,0.07446808,0.0,0.0,-0.005401194,0.008468598,-0.0024576187,0.0,0.0,0.0
580.7888,378.37878,78034693,0.77500004,0.08510638,0.046403915,0.03004834,-0.005401194,0.008468598,-0.0024576187,0.0,0.0,0.0
580.7888,378.37878,78034702,0.8,0.08510638,0.014926152,0.007895472,-0.005401194,0.008468598,-0.0024576187,0.0,0.0,0.0
580.7888,378.37878,78034726,0.8,0.10638297,0.0141452495,0.008250709,-0.005401194,0.008468598,-0.0024576187,1.342177E-5,0.0,0.0
580.7888,378.37878,78034743,0.8125,0.10638297,-0.008340665,-0.0056287316,-0.005401194,0.008468598,-0.0024576187,1.342177E-5,0.0,0.0
580.7888,378.37878,78034758,0.7875,0.12765957,-0.01911335,-0.012947923,-0.005401194,0.008468598,-0.0024576187,1.342177E-5,0.0,0.0
595.475,369.20642,78034777,0.8,0.12765957,334.60016,-208.99606,-0.005401194,0.008468598,-0.0024576187,1.342177E-5,0.0,0.0
615.3047,364.9431,78034793,0.7875,0.08510638,1043.7694,-477.31796,-0.005401194,0.008468598,-0.0024576187,0.0,0.0,0.0
630.99146,373.74426,78034810,0.77500004,0.08510638,1574.5149,-121.15613,-0.005401194,0.008468598,-0.0024576187,0.0,0.0,0.0
640.3972,381.14172,78034827,0.77500004,0.09574468,1225.6807,468.41556,-0.005401194,0.008468598,-0.0024576187,0.0,0.0,0.0
645.5022,386.68774,78034843,0.77500004,0.10638297,594.5026,745.7678,-0.005401194,0.008468598,-0.0024576187,0.0,0.0,0.0
649.58905,395.3274,78034860,0.75,0.12765957,-94.339676,713.73865,-0.020320952,0.0067748725,-0.033966064,0.0,0.0,0.0
648.9908,406.25903,78034877,0.7625,0.09574468,-174.88702,621.3012,-0.020320952,0.0067748725,-0.033966064,0.0,0.0,0.0
643.35516,420.6333,78034893,0.7375,0.08510638,-389.06674,755.0846,-0.020320952,0.0067748725,-0.033966064,0.0,0.0,0.0
635.41205,427.88232,78034910,0.7625,0.07446808,-589.6455,803.7746,-0.020320952,0.0067748725,-0.033966064,0.0,0.0,0.0
624.70184,433.48743,78034927,0.77500004,0.08510638,-817.498,510.37128,-0.020320952,0.0067748725,-0.033966064,0.0,0.0,0.0
614.928,435.24292,78034944,0.77500004,0.07446808,-851.6618,116.930565,-0.020320952,0.0067748725,-0.033966064,0.0,0.0,0.0
609.9526,433.17566,78034960,0.77500004,0.07446808,-621.0562,-199.21999,-0.020320952,0.0067748725,-0.033966064,0.0,0.0,0.0
607.5367,430.36792,78034977,0.7875,0.08510638,-263.6824,-369.2521,-0.020320952,0.0067748725,-0.033966064,0.0,0.0,0.0
607.68774,426.6859,78034994,0.7875,0.08510638,71.61418,-413.84735,-0.020320952,0.0067748725,-0.033966064,0.0,0.0,0.0
615.644,422.17517,78035010,0.77500004,0.08510638,392.5374,-394.27246,-0.020320952,0.0067748725,-0.033966064,0.0,0.0,0.0
631.6859,422.7943,78035027,0.77500004,0.08510638,871.6354,-232.16956,-0.020320952,0.0067748725,-0.033966064,0.0,0.0,0.0
652.4639,429.2599,78035044,0.75,0.06382979,1407.8049,172.40201,-0.020320952,0.0067748725,-0.033966064,0.0,0.0,0.0
672.5814,437.5421,78035061,0.7375,0.08510638,1680.1495,556.33594,-0.020320952,0.0067748725,-0.033966064,0.0,0.0,0.0
687.18225,443.82507,78035077,0.7375,0.11702127,1471.168,720.1143,-0.020320952,0.0067748725,-0.033966064,0.0,0.0,0.0
698.51276,447.31543,78035094,0.7375,0.10638297,951.5908,554.2237,-0.020320952,0.0067748725,-0.033966064,0.0,0.0,0.0
708.14026,449.76843,78035111,0.7375,0.12765957,534.4559,241.55661,-0.020320952,0.0067748725,-0.033966064,0.0,0.0,0.0
714.37616,450.34753,78035127,0.7375,0.10638297,247.42735,-30.327984,-0.020320952,0.0067748725,-0.033966064,0.0,0.0,0.0
717.28864,448.97534,78035144,0.5375,0.09574468,116.88719,-132.59537,-0.020320952,0.0067748725,-0.033966064,0.0,0.0,0.0
717.7442,448.57056,78035148,0.22500001,0.06382979,77.03875,-154.72302,-0.020320952,0.0067748725,-0.033966064,0.0,0.0,0.0
717.7442,448.57056,78035155,0.22500001,0.06382979,77.03875,-154.72302,-0.020320952,0.0067748725,-0.033966064,0.0,0.0,0.0
639.2698,399.70276,78035260,0.725,0.12765957,0.0,0.0,-0.020320952,0.0067748725,-0.033966064,0.0,0.0,0.0
639.2698,399.70276,78035278,0.7625,0.12765957,-0.6394743,-0.4116901,-0.020320952,0.0067748725,-0.033966064,0.0,0.0,0.0
639.2698,399.70276,78035295,0.77500004,0.11702127,-0.02236993,-0.014516941,-0.020320952,0.0067748725,-0.033966064,0.0,0.0,0.0
657.3795,400.5913,78035328,0.7625,0.12765957,711.52325,37.544502,-0.020320952,0.0067748725,-0.033966064,0.0,0.0,0.0
674.53546,400.5913,78035345,0.75,0.12765957,1202.0154,29.805279,-0.020320952,0.0067748725,-0.033966064,0.0,0.0,0.0
693.2322,399.70276,78035361,0.6,0.12765957,1586.3623,-24.46919,-0.020320952,0.0067748725,-0.033966064,0.0,0.0,0.0
694.7517,399.70276,78035365,0.275,0.12765957,1524.7314,-30.544481,-0.020320952,0.0067748725,-0.033966064,0.0,0.0,0.0
694.7517,399.70276,78035373,0.275,0.12765957,1524.7314,-30.544481,-0.020320952,0.0067748725,-0.033966064,0.0,0.0,0.0
794.2193,383.70972,78035566,0.7,0.07446808,0.0,0.0,-0.016256765,-0.034580097,-0.07517338,0.0,0.0,0.0
794.2193,383.70972,78035595,0.7375,0.07446808,-0.06723734,-0.02939418,-0.016256765,-0.034580097,-0.07517338,0.0,0.0,0.0
794.2193,383.70972,78035612,0.7375,0.07446808,0.039145477,0.01721299,-0.016256765,-0.034580097,-0.07517338,0.0,0.0,0.0
794.2193,383.70972,78035628,0.75,0.08510638,-0.032930315,-0.014948033,-0.016256765,-0.034580097,-0.07517338,0.0,0.0,0.0
794.2193,383.70972,78035645,0.7625,0.08510638,-0.04716433,-0.023541996,-0.016256765,-0.034580097,-0.07517338,0.0,0.0,0.0
768.90906,369.56958,78035662,0.75,0.08510638,-656.97217,-379.9103,-0.016256765,-0.034580097,-0.07517338,1.342177E-5,0.0,0.0
749.1928,367.71667,78035679,0.77500004,0.08510638,-1437.139,-544.86835,-0.016256765,-0.034580097,-0.07517338,1.342177E-5,0.0,0.0
733.01575,369.7494,78035696,0.7625,0.08510638,-1658.06,-286.38205,-0.016256765,-0.034580097,-0.07517338,1.342177E-5,0.0,0.0
719.6163,375.55322,78035712,0.77500004,0.07446808,-1371.0244,198.35756,-0.016256765,-0.034580097,-0.07517338,1.342177E-5,0.0,0.0
710.2825,382.667,78035729,0.77500004,0.09574468,-573.8282,756.3928,-0.016256765,-0.034580097,-0.07517338,0.0,0.0,0.0
704.1916,390.65674,78035746,0.75,0.12765957,-255.58922,780.37195,-0.016256765,-0.034580097,-0.07517338,0.0,0.0,0.0
700.5235,404.6969,78035762,0.77500004,0.11702127,-78.423225,799.09064,-0.016256765,-0.034580097,-0.07517338,0.0,0.0,0.0
702.3132,417.64343,78035779,0.725,0.08510638,157.92802,931.78674,-0.016256765,-0.034580097,-0.07517338,0.0,0.0,0.0
706.972,426.1129,78035796,0.7375,0.07446808,393.61874,846.3482,-0.016256765,-0.034580097,-0.07517338,0.0,0.0,0.0
718.6551,432.5459,78035813,0.7375,0.06382979,693.6698,555.92053,-0.016256765,-0.034580097,-0.07517338,0.0,0.0,0.0
733.9954,435.24292,78035829,0.725,0.07446808,1087.1261,159.96,-0.016256765,-0.034580097,-0.07517338,0.0,0.0,0.0
747.4848,430.59534,78035846,0.7375,0.08510638,1180.6265,-211.64308,-0.016256765,-0.034580097,-0.07517338,0.0,0.0,0.0
760.2967,421.34802,78035863,0.75,0.08510638,1098.134,-611.1505,-0.016256765,-0.034580097,-0.07517338,0.0,0.0,0.0
770.7275,411.2528,78035879,0.75,0.10638297,801.90686,-891.7834,-0.016256765,-0.034580097,-0.07517338,0.0,0.0,0.0
776.4023,402.9419,78035896,0.7625,0.08510638,444.15723,-896.4935,-0.016256765,-0.034580097,-0.07517338,0.0,0.0,0.0
779.98395,396.57532,78035913,0.7625,0.08510638,179.99161,-644.56384,-0.016256765,-0.034580097,-0.07517338,0.0,0.0,0.0
781.36664,392.9745,78035930,0.77500004,0.08510638,-50.077255,-308.61942,0.0189946,0.028335929,0.051861763,0.0,0.0,0.0
781.2235,391.35913,78035946,0.7625,0.08510638,-167.25763,-67.569916,0.0189946,0.028335929,0.051861763,0.0,0.0,0.0
781.7234,389.50964,78035963,0.77500004,0.08510638,-154.72864,39.72971,0.0189946,0.028335929,0.051861763,0.0,0.0,0.0
781.9532,390.33777,78035980,0.7875,0.09574468,-73.306076,80.86971,0.0189946,0.028335929,0.051861763,0.0,0.0,0.0
784.77136,398.05627,78035996,0.7625,0.12765957,42.597733,280.20688,0.0189946,0.028335929,0.051861763,0.0,0.0,0.0
789.74976,411.50317,78036013,0.7625,0.08510638,240.12503,739.37274,0.0189946,0.028335929,0.051861763,0.0,0.0,0.0
795.0438,424.26953,78036030,0.75,0.07446808,394.83176,1103.3961,0.0189946,0.028335929,0.051861763,0.0,0.0,0.0
801.1499,433.82068,78036047,0.725,0.09574468,453.17188,1017.9924,0.0189946,0.028335929,0.051861763,0.0,0.0,0.0
812.3805,442.7013,78036063,0.675,0.10638297,566.83746,633.53546,0.0189946,0.028335929,0.051861763,0.0,0.0,0.0
823.3305,442.4773,78036080,0.4125,0.09574468,674.5814,254.68602,0.0189946,0.028335929,0.051861763,0.0,0.0,0.0
823.7097,442.35095,78036080,0.1875,0.06382979,699.9972,207.60904,0.0189946,0.028335929,0.051861763,0.0,0.0,0.0
823.7097,442.35095,78036088,0.1875,0.06382979,699.9972,207.60904,0.0189946,0.028335929,0.051861763,0.0,0.0,0.0
749.73376,255.76526,78036265,0.7375,0.09574468,0.0,0.0,0.0189946,0.028335929,0.051861763,0.0,0.0,0.0
749.73376,255.76526,78036289,0.7875,0.11702127,0.039868835,0.012181533,0.0189946,0.028335929,0.051861763,0.0,0.0,0.0
749.73376,255.76526,78036314,0.825,0.09574468,-0.020723753,-0.006828877,0.0189946,0.028335929,0.051861763,0.0,0.0,0.0
752.9498,278.11816,78036331,0.7875,0.12765957,166.5219,1186.4918,0.0189946,0.028335929,0.051861763,3.355443E-6,0.0,0.0
757.7667,298.4126,78036347,0.725,0.08510638,300.41833,1578.348,0.0189946,0.028335929,0.051861763,3.355443E-6,0.0,0.0
759.7305,308.187,78036354,0.35,0.08510638,341.3949,1720.2014,0.0189946,0.028335929,0.051861763,3.355443E-6,0.0,0.0
759.7305,308.187,78036361,0.35,0.08510638,341.3949,1720.2014,0.0189946,0.028335929,0.051861763,3.355443E-6,0.0,0.0
831.2073,429.02344,78037243,0.71250004,0.06382979,0.0,0.0,-6.4346194E-4,-0.0074650347,-0.005208969,0.0,0.0,0.0
831.2073,429.02344,78037266,0.7375,0.06382979,0.12841228,0.06533686,-6.4346194E-4,-0.0074650347,-0.005208969,0.0,0.0,0.0
831.2073,429.02344,78037279,0.7625,0.08510638,-0.034649767,-0.015923249,-6.4346194E-4,-0.0074650347,-0.005208969,0.0,0.0,0.0
831.2073,429.02344,78037300,0.7625,0.08510638,0.037745073,0.019499967,-6.4346194E-4,-0.0074650347,-0.005208969,0.0,0.0,0.0
831.2073,429.02344,78037312,0.77500004,0.08510638,-0.025574295,-0.01293227,-6.4346194E-4,-0.0074650347,-0.005208969,0.0,0.0,0.0
831.2073,429.02344,78037347,0.7875,0.08510638,0.007149547,0.00368167,-6.4346194E-4,-0.0074650347,-0.005208969,0.0,0.0,0.0
831.2073,429.02344,78037367,0.77500004,0.10638297,-0.01349738,-0.006065587,-6.4346194E-4,-0.0074650347,-0.005208969,0.0,0.0,0.0
831.2073,429.02344,78037383,0.77500004,0.12765957,-0.04075782,-0.020799007,-6.4346194E-4,-0.0074650347,-0.005208969,0.0,0.0,0.0
829.99207,408.22083,78037400,0.7875,0.12765957,-49.762997,-727.43884,-6.4346194E-4,-0.0074650347,-0.005208969,0.0,0.0,0.0
831.8587,399.74292,78037417,0.8,0.08510638,32.321995,-1154.4731,-6.4346194E-4,-0.0074650347,-0.005208969,0.0,0.0,0.0
836.3743,391.16028,78037434,0.77500004,0.08510638,190.09142,-896.6513,-6.4346194E-4,-0.0074650347,-0.005208969,0.0,0.0,0.0
843.5296,379.4048,78037450,0.77500004,0.08510638,414.58795,-731.7912,-6.4346194E-4,-0.0074650347,-0.005208969,0.0,0.0,0.0
850.8695,368.20728,78037467,0.77500004,0.11702127,596.99384,-565.5624,-6.4346194E-4,-0.0074650347,-0.005208969,0.0,0.0,0.0
855.6104,360.735,78037484,0.7625,0.12765957,512.3984,-653.9007,-6.4346194E-4,-0.0074650347,-0.005208969,0.0,0.0,0.0
857.74603,355.15137,78037500,0.7625,0.11702127,290.37463,-448.26822,-6.4346194E-4,-0.0074650347,-0.005208969,0.0,0.0,0.0
859.3208,350.50818,78037517,0.77500004,0.11702127,59.888256,-211.4235,-6.4346194E-4,-0.0074650347,-0.005208969,0.0,0.0,0.0
859.698,345.99756,78037534,0.8,0.11702127,-66.32483,-124.59475,-5.147755E-4,0.04202798,0.011833191,0.0,0.0,0.0
859.058,344.36646,78037551,0.77500004,0.10638297,-109.87861,-85.9422,-5.147755E-4,0.04202798,0.011833191,0.0,0.0,0.0
854.94135,343.72717,78037567,0.8125,0.12765957,-199.71349,-24.695324,-5.147755E-4,0.04202798,0.011833191,0.0,0.0,0.0
848.1452,344.9911,78037584,0.7875,0.10638297,-387.76105,91.111595,-5.147755E-4,0.04202798,0.011833191,0.0,0.0,0.0
844.2387,346.39258,78037601,0.8,0.10638297,-479.4063,199.01048,-5.147755E-4,0.04202798,0.011833191,0.0,0.0,0.0
842.3372,347.6067,78037617,0.7875,0.12765957,-321.40375,172.34149,-5.147755E-4,0.04202798,0.011833191,0.0,0.0,0.0
845.73413,352.64026,78037634,0.8,0.10638297,17.593576,233.30319,-5.147755E-4,0.04202798,0.011833191,0.0,0.0,0.0
855.7425,361.30713,78037651,0.7875,0.09574468,505.29498,414.9812,-5.147755E-4,0.04202798,0.011833191,0.0,0.0,0.0
870.4337,369.7848,78037667,0.7625,0.08510638,964.23083,627.97626,-5.147755E-4,0.04202798,0.011833191,0.0,0.0,0.0
883.20685,375.47888,78037684,0.77500004,0.08510638,1199.0563,641.49896,-5.147755E-4,0.04202798,0.011833191,0.0,0.0,0.0
893.1371,379.24744,78037701,0.7625,0.08510638,1061.7815,415.98938,-5.147755E-4,0.04202798,0.011833191,0.0,0.0,0.0
899.3652,381.10828,78037718,0.7875,0.08510638,584.03577,111.34896,-5.147755E-4,0.04202798,0.011833191,0.0,0.0,0.0
902.33746,382.95764,78037734,0.7875,0.08510638,192.79984,-19.46548,-5.147755E-4,0.04202798,0.011833191,0.0,0.0,0.0
904.41235,386.98535,78037751,0.7875,0.10638297,-48.175285,39.10255,-5.147755E-4,0.04202798,0.011833191,0.0,0.0,0.0
903.89105,392.74597,78037768,0.77500004,0.12765957,-148.95921,220.18553,-5.147755E-4,0.04202798,0.011833191,0.0,0.0,0.0
900.4779,401.5868,78037784,0.77500004,0.09574468,-259.98874,457.40994,-5.147755E-4,0.04202798,0.011833191,3.355443E-6,0.0,0.0
895.3082,413.22217,78037801,0.77500004,0.08510638,-376.59924,729.36694,-5.147755E-4,0.04202798,0.011833191,3.355443E-6,0.0,0.0
890.5957,427.57422,78037818,0.77500004,0.08510638,-460.472,930.7656,-5.147755E-4,0.04202798,0.011833191,3.355443E-6,0.0,0.0
888.8767,438.3474,78037835,0.77500004,0.08510638,-347.54935,955.5135,-5.147755E-4,0.04202798,0.011833191,3.355443E-6,0.0,0.0
889.88763,444.21533,78037851,0.7625,0.10638297,-70.68058,671.7597,-5.147755E-4,0.04202798,0.011833191,0.0,0.0,0.0
894.4806,448.15234,78037868,0.7375,0.10638297,245.587,263.9163,-5.147755E-4,0.04202798,0.011833191,0.0,0.0,0.0
903.03973,449.45898,78037885,0.725,0.12765957,553.828,-53.131325,-5.147755E-4,0.04202798,0.011833191,0.0,0.0,0.0
906.18286,449.45898,78037894,0.35,0.11702127,645.9384,-153.60686,-5.147755E-4,0.04202798,0.011833191,0.0,0.0,0.0
906.18286,449.45898,78037901,0.35,0.11702127,645.9384,-153.60686,-5.147755E-4,0.04202798,0.011833191,0.0,0.0,0.0
997.1532,377.49023,78038063,0.675,0.06382979,0.0,0.0,-4.118085E-4,-0.014377624,-0.0065336227,0.0,0.0,0.0
997.1532,377.49023,78038085,0.7625,0.06382979,-0.072397776,-0.02859148,-4.118085E-4,-0.014377624,-0.0065336227,0.0,0.0,0.0
997.1532,377.49023,78038102,0.7625,0.08510638,-0.03899204,-0.013234771,-4.118085E-4,-0.014377624,-0.0065336227,0.0,0.0,0.0
997.1532,377.49023,78038119,0.77500004,0.08510638,-0.051219672,-0.019269865,-4.118085E-4,-0.014377624,-0.0065336227,0.0,0.0,0.0
997.1532,377.49023,78038135,0.7625,0.09574468,0.037495065,0.0152085405,-4.118085E-4,-0.014377624,-0.0065336227,0.0,0.0,0.0
973.7599,383.12146,78038152,0.7875,0.08510638,-768.84204,178.70197,-4.118085E-4,-0.014377624,-0.0065336227,0.0,0.0,0.0
960.84216,390.6527,78038169,0.77500004,0.10638297,-1235.527,444.45517,-4.118085E-4,-0.014377624,-0.0065336227,0.0,0.0,0.0
950.4363,398.0105,78038186,0.7625,0.12765957,-1207.4105,588.90393,-4.118085E-4,-0.014377624,-0.0065336227,0.0,0.0,0.0
943.3026,405.37952,78038202,0.77500004,0.08510638,-841.76117,626.5825,-4.118085E-4,-0.014377624,-0.0065336227,0.0,0.0,0.0
937.5234,418.38806,78038219,0.75,0.08510638,-334.37784,689.10486,-4.118085E-4,-0.014377624,-0.0065336227,0.0,0.0,0.0
936.4298,429.07178,78038236,0.7375,0.08510638,-37.849766,774.0173,-4.118085E-4,-0.014377624,-0.0065336227,0.0,0.0,0.0
938.555,434.5116,78038252,0.7375,0.08510638,190.94522,655.8373,-4.118085E-4,-0.014377624,-0.0065336227,0.0,0.0,0.0
945.8527,439.69324,78038269,0.7375,0.08510638,447.39188,368.83167,-4.118085E-4,-0.014377624,-0.0065336227,0.0,0.0,0.0
957.11707,444.55762,78038286,0.7375,0.10638297,775.4575,134.68011,-4.118085E-4,-0.014377624,-0.0065336227,0.0,0.0,0.0
970.1201,445.17078,78038302,0.7375,0.09574468,1011.957,5.45276,-4.118085E-4,-0.014377624,-0.0065336227,0.0,0.0,0.0
982.11255,441.70483,78038319,0.75,0.08510638,1032.8241,-122.527054,-4.118085E-4,-0.014377624,-0.0065336227,0.0,0.0,0.0
992.08496,435.2926,78038336,0.7375,0.06382979,875.0096,-410.86047,-4.118085E-4,-0.014377624,-0.0065336227,0.0,0.0,0.0
998.282,427.90552,78038353,0.7375,0.08510638,534.7982,-646.20483,-4.118085E-4,-0.014377624,-0.0065336227,0.0,0.0,0.0
1004.0687,414.5824,78038369,0.75,0.12765957,287.8832,-819.0587,-4.118085E-4,-0.014377624,-0.0065336227,0.0,0.0,0.0
1004.65076,401.818,78038386,0.7375,0.08510638,49.221493,-936.3961,-4.118085E-4,-0.014377624,-0.0065336227,0.0,0.0,0.0
1001.0547,387.80652,78038403,0.75,0.07446808,-219.36203,-1002.88855,-4.118085E-4,-0.014377624,-0.0065336227,0.0,0.0,0.0
995.5294,378.82373,78038419,0.75,0.08510638,-454.79617,-881.6639,-4.118085E-4,-0.014377624,-0.0065336227,0.0,0.0,0.0
987.1156,370.1443,78038436,0.7625,0.11702127,-647.29724,-560.1487,-4.118085E-4,-0.014377624,-0.0065336227,0.0,0.0,0.0
978.145,364.15625,78038453,0.7875,0.11702127,-730.7978,-331.3925,-4.118085E-4,-0.014377624,-0.0065336227,0.0,0.0,0.0
970.49976,362.38574,78038470,0.7625,0.10638297,-660.694,-112.21342,-4.118085E-4,-0.014377624,-0.0065336227,0.0,0.0,0.0
964.7693,363.00525,78038486,0.7875,0.08510638,-509.65704,103.051895,-4.118085E-4,-0.014377624,-0.0065336227,0.0,0.0,0.0
961.00085,366.4303,78038503,0.7625,0.08510638,-278.6866,315.75568,-4.118085E-4,-0.014377624,-0.0065336227,0.0,0.0,0.0
956.89087,376.69226,78038520,0.7625,0.08510638,-135.06967,592.764,-4.118085E-4,-0.014377624,-0.0065336227,0.0,0.0,0.0
957.1315,386.12756,78038536,0.7625,0.10638297,-24.270576,794.5749,-4.118085E-4,-0.014377624,-0.0065336227,0.0,0.0,0.0
960.1854,391.73022,78038553,0.7375,0.12765957,172.01268,712.00604,-4.118085E-4,-0.014377624,-0.0065336227,0.0,0.0,0.0
968.0575,399.1261,78038570,0.7375,0.12765957,438.95795,541.9943,-4.118085E-4,-0.014377624,-0.0065336227,0.0,0.0,0.0
985.1542,406.51355,78038587,0.75,0.10638297,908.2742,389.7427,-3.2943487E-4,-0.03550209,-0.005227089,0.0,0.0,0.0
1003.72766,408.37085,78038603,0.7625,0.12765957,1333.4397,221.48337,-3.2943487E-4,-0.03550209,-0.005227089,0.0,0.0,0.0
1019.11414,406.26257,78038620,0.7375,0.12765957,1422.0869,4.867284,-3.2943487E-4,-0.03550209,-0.005227089,0.0,0.0,0.0
1035.0394,400.94727,78038637,0.75,0.12765957,1268.1874,-315.5846,-3.2943487E-4,-0.03550209,-0.005227089,0.0,0.0,0.0
1049.6926,393.17126,78038653,0.7625,0.08510638,913.8046,-648.4194,-3.2943487E-4,-0.03550209,-0.005227089,0.0,0.0,0.0
1061.3635,383.00867,78038670,0.75,0.07446808,729.23254,-772.85254,-3.2943487E-4,-0.03550209,-0.005227089,0.0,0.0,0.0
1068.0629,373.73962,78038687,0.7375,0.08510638,509.88596,-772.5868,-3.2943487E-4,-0.03550209,-0.005227089,0.0,0.0,0.0
1073.6539,361.9464,78038704,0.7375,0.12765957,228.50035,-747.59515,-3.2943487E-4,-0.03550209,-0.005227089,0.0,0.0,0.0
1076.9065,353.20068,78038720,0.7375,0.12765957,44.271008,-706.2258,-3.2943487E-4,-0.03550209,-0.005227089,0.0,0.0,0.0
1077.6271,347.59583,78038737,0.75,0.11702127,-51.842564,-508.16156,-3.2943487E-4,-0.03550209,-0.005227089,0.0,0.0,0.0
1078.1268,342.9171,78038754,0.7625,0.09574468,-100.235825,-284.94852,-3.2943487E-4,-0.03550209,-0.005227089,0.0,0.0,0.0
1077.6097,339.22314,78038770,0.7625,0.09574468,-127.681725,-114.52841,-3.2943487E-4,-0.03550209,-0.005227089,0.0,0.0,0.0
1076.5677,337.40173,78038787,0.77500004,0.08510638,-145.88431,-18.385315,-3.2943487E-4,-0.03550209,-0.005227089,0.0,0.0,0.0
1073.8491,335.5652,78038804,0.77500004,0.08510638,-160.95427,-37.543617,-3.2943487E-4,-0.03550209,-0.005227089,0.0,0.0,0.0
1071.8702,334.84204,78038821,0.77500004,0.08510638,-187.42984,-2.3381453,-3.2943487E-4,-0.03550209,-0.005227089,0.0,0.0,0.0
1069.777,334.84204,78038837,0.77500004,0.10638297,-188.25346,35.259773,-3.2943487E-4,-0.03550209,-0.005227089,0.0,0.0,0.0
1068.1301,337.72998,78038854,0.77500004,0.12765957,-152.41498,115.139595,-3.2943487E-4,-0.03550209,-0.005227089,0.0,0.0,0.0
1069.3871,345.08142,78038871,0.75,0.12765957,-18.339,357.55606,-3.2943487E-4,-0.03550209,-0.005227089,0.0,0.0,0.0
1074.6818,356.78296,78038887,0.75,0.09574468,210.66223,681.6922,-3.2943487E-4,-0.03550209,-0.005227089,0.0,0.0,0.0
1081.6204,367.41296,78038904,0.75,0.08510638,467.73206,894.8371,-3.2943487E-4,-0.03550209,-0.005227089,0.0,0.0,0.0
1091.7839,379.85376,78038921,0.7375,0.08510638,702.4425,948.49493,-3.2943487E-4,-0.03550209,-0.005227089,0.0,0.0,0.0
1104.9386,391.54675,78038937,0.75,0.10638297,876.1715,849.0027,-3.2943487E-4,-0.03550209,-0.005227089,0.0,0.0,0.0
1114.1797,400.20447,78038954,0.7375,0.12765957,869.5557,679.26245,-3.2943487E-4,-0.03550209,-0.005227089,0.0,0.0,0.0
1119.5745,405.87036,78038971,0.7375,0.10638297,636.611,446.57788,-3.2943487E-4,-0.03550209,-0.005227089,0.0,0.0,0.0
1122.2213,410.62268,78038988,0.7375,0.08510638,229.86514,215.8258,-3.2943487E-4,-0.03550209,-0.005227089,0.0,0.0,0.0
1122.0417,417.9762,78039004,0.75,0.07446808,-92.60794,197.5846,-3.2943487E-4,-0.03550209,-0.005227089,0.0,0.0,0.0
1116.0198,425.2151,78039021,0.7375,0.06382979,-392.28754,332.58514,-3.2943487E-4,-0.03550209,-0.005227089,0.0,0.0,0.0
1105.7137,434.464,78039038,0.7375,0.08510638,-666.3454,514.29047,-3.2943487E-4,-0.03550209,-0.005227089,0.0,0.0,0.0
1095.245,443.12976,78039054,0.725,0.11702127,-870.188,594.6105,-3.2943487E-4,-0.03550209,-0.005227089,3.355443E-6,0.0,0.0
1085.6066,448.87732,78039071,0.7375,0.12765957,-876.957,473.97736,-3.2943487E-4,-0.03550209,-0.005227089,3.355443E-6,0.0,0.0
1078.2946,452.59802,78039088,0.725,0.12765957,-650.6169,308.7191,-3.2943487E-4,-0.03550209,-0.005227089,3.355443E-6,0.0,0.0
1075.6277,453.9015,78039100,0.3375,0.10638297,-480.42947,179.47601,-3.2943487E-4,-0.03550209,-0.005227089,3.355443E-6,0.0,0.0
1075.6277,453.9015,78039107,0.3375,0.10638297,-480.42947,179.47601,-3.2943487E-4,-0.03550209,-0.005227089,3.355443E-6,0.0,0.0
