x,y,timestamp,pressure,fingerarea,velocityx,velocityy,accelx,accely,accelz,gyrox,gyroy,gyroz
197.4136,324.18005,77913898,0.5,0.07446808,0.0,0.0,0.0044693947,0.037550867,0.018262863,0.0,0.0,0.0
197.4136,324.18005,77913928,0.58750004,0.07446808,0.015304369,0.025969971,0.0044693947,0.037550867,0.018262863,0.0,0.0,0.0
197.4136,324.18005,77913945,0.55,0.08510638,-0.003072118,-0.004980625,0.0044693947,0.037550867,0.018262863,0.0,0.0,0.0
197.4136,324.18005,77913962,0.4,0.12765957,0.0103650335,0.016444352,0.0044693947,0.037550867,0.018262863,0.0,0.0,0.0
197.4136,324.18005,77913962,0.375,0.14893617,-0.007915835,-0.013855122,0.0044693947,0.037550867,0.018262863,0.0,0.0,0.0
197.4136,324.18005,77913970,0.375,0.14893617,-0.007915835,-0.013855122,0.0044693947,0.037550867,0.018262863,0.0,0.0,0.0
202.9118,294.85938,77914004,0.6875,0.12765957,0.0,0.0,0.0044693947,0.037550867,0.018262863,0.0,0.0,0.0
202.9118,294.85938,77914028,0.7625,0.12765957,-0.0036740291,-0.0059710317,0.0044693947,0.037550867,0.018262863,0.0,0.0,0.0
202.9118,294.85938,77914045,0.8,0.12765957,0.0050285663,0.008307227,0.0044693947,0.037550867,0.018262863,0.0,0.0,0.0
202.9118,294.85938,77914062,0.8125,0.12765957,0.0012705533,0.0013709927,0.0044693947,0.037550867,0.018262863,0.0,0.0,0.0
202.9118,294.85938,77914079,0.825,0.11702127,0.0064315745,0.008205544,0.0044693947,0.037550867,0.018262863,0.0,0.0,0.0
204.14462,310.1996,77914112,0.83750004,0.09574468,32.72351,407.21094,0.0044693947,0.037550867,0.018262863,0.0,0.0,0.0
205.24442,324.77295,77914129,0.85,0.09574468,74.820465,959.8578,0.0044693947,0.037550867,0.018262863,0.0,0.0,0.0
205.79132,334.66846,77914145,0.83750004,0.11702127,72.25952,1072.9048,0.0044693947,0.037550867,0.018262863,0.0,0.0,0.0
206.75494,344.1217,77914162,0.825,0.12765957,59.68743,806.3899,0.0044693947,0.037550867,0.018262863,0.0,0.0,0.0
207.88766,356.77454,77914179,0.8125,0.09574468,48.613552,449.26474,0.0044693947,0.037550867,0.018262863,0.0,0.0,0.0
208.92377,370.57983,77914196,0.83750004,0.09574468,59.45178,634.0656,-0.012424484,-0.0019593239,0.0146102905,0.0,0.0,0.0
209.4097,384.4342,77914212,0.83750004,0.11702127,58.429005,868.66986,-0.012424484,-0.0019593239,0.0146102905,0.0,0.0,0.0
209.4097,393.92664,77914229,0.83750004,0.12765957,19.045015,799.7012,-0.012424484,-0.0019593239,0.0146102905,0.0,0.0,0.0
209.4097,403.89038,77914246,0.8125,0.11702127,-16.209398,639.2872,-0.012424484,-0.0019593239,0.0146102905,0.0,0.0,0.0
209.57224,414.76392,77914262,0.825,0.09574468,-26.745209,515.9236,-0.012424484,-0.0019593239,0.0146102905,0.0,0.0,0.0
209.1932,426.00122,77914279,0.8125,0.09574468,-19.917408,583.4451,-0.012424484,-0.0019593239,0.0146102905,0.0,0.0,0.0
208.90985,435.7296,77914296,0.825,0.09574468,-20.897951,685.9844,-0.012424484,-0.0019593239,0.0146102905,0.0,0.0,0.0
208.90985,444.0829,77914313,0.7875,0.11702127,-21.75762,565.9363,-0.012424484,-0.0019593239,0.0146102905,0.0,0.0,0.0
210.07758,453.90918,77914329,0.7625,0.12765957,17.177511,488.68085,-0.012424484,-0.0019593239,0.0146102905,0.0,0.0,0.0
212.91302,464.13123,77914346,0.7,0.08510638,120.40403,496.22003,-0.012424484,-0.0019593239,0.0146102905,0.0,0.0,0.0
214.82147,469.58728,77914363,0.4,0.08510638,205.98767,493.4006,-0.012424484,-0.0019593239,0.0146102905,0.0,0.0,0.0
214.9079,469.89453,77914364,0.26250002,0.09574468,199.73914,465.5169,-0.012424484,-0.0019593239,0.0146102905,0.0,0.0,0.0
214.9079,469.89453,77914371,0.26250002,0.09574468,199.73914,465.5169,-0.012424484,-0.0019593239,0.0146102905,0.0,0.0,0.0
197.4136,328.62256,77914791,0.6,0.07446808,0.0,0.0,0.022060424,-0.017567456,0.02768898,0.0,0.0,0.0
197.4136,328.62256,77914814,0.6625,0.07446808,0.003440943,0.005846378,0.022060424,-0.017567456,0.02768898,0.0,0.0,0.0
197.4136,328.62256,77914830,0.75,0.08510638,-0.0035760633,-0.006954432,0.022060424,-0.017567456,0.02768898,0.0,0.0,0.0
199.40323,302.9768,77914847,0.7875,0.12765957,112.028915,-1447.4266,0.022060424,-0.017567456,0.02768898,0.0,0.0,0.0
200.44452,294.63257,77914864,0.8125,0.11702127,114.32322,-1265.2698,0.022060424,-0.017567456,0.02768898,0.0,0.0,0.0
202.05832,284.30652,77914881,0.83750004,0.09574468,117.97546,-1027.5792,0.022060424,-0.017567456,0.02768898,0.0,0.0,0.0
204.6254,274.36096,77914897,0.83750004,0.09574468,148.42284,-683.0576,0.022060424,-0.017567456,0.02768898,0.0,0.0,0.0
208.34088,262.7411,77914914,0.825,0.08510638,201.705,-526.9669,0.022060424,-0.017567456,0.02768898,0.0,0.0,0.0
210.44632,257.47656,77914931,0.83750004,0.10638297,209.90637,-389.53873,0.022060424,-0.017567456,0.02768898,0.0,0.0,0.0
214.29785,252.3092,77914947,0.83750004,0.12765957,213.07874,-315.25925,0.022060424,-0.017567456,0.02768898,0.0,0.0,0.0
219.4881,249.07727,77914964,0.8625,0.12765957,254.14699,-101.97961,0.022060424,-0.017567456,0.02768898,0.0,0.0,0.0
225.71643,249.19397,77914981,0.83750004,0.09574468,365.0133,50.635517,0.022060424,-0.017567456,0.02768898,0.0,0.0,0.0
232.21573,253.672,77914998,0.85,0.08510638,458.99292,220.57744,0.022060424,-0.017567456,0.02768898,0.0,0.0,0.0
239.78159,263.16003,77915014,0.825,0.08510638,496.51346,550.39343,0.022060424,-0.017567456,0.02768898,0.0,0.0,0.0
248.7623,274.46667,77915031,0.8125,0.11702127,539.06555,865.07654,0.022060424,-0.017567456,0.02768898,0.0,0.0,0.0
257.57068,283.87817,77915048,0.8,0.12765957,576.6094,925.6532,0.022060424,-0.017567456,0.02768898,0.0,0.0,0.0
268.8999,290.4215,77915064,0.8,0.10638297,664.52594,679.2316,0.022060424,-0.017567456,0.02768898,0.0,0.0,0.0
281.32275,294.0415,77915081,0.77500004,0.10638297,762.3532,343.21613,0.022060424,-0.017567456,0.02768898,0.0,0.0,0.0
291.57263,294.85938,77915098,0.7875,0.12765957,767.40485,24.42703,0.022060424,-0.017567456,0.02768898,0.0,0.0,0.0
299.8481,292.86743,77915115,0.77500004,0.12765957,641.5094,-209.30315,0.022060424,-0.017567456,0.02768898,0.0,0.0,0.0
303.992,291.03296,77915131,0.8,0.11702127,375.1975,-305.93292,0.022060424,-0.017567456,0.02768898,0.0,0.0,0.0
306.78134,287.92322,77915148,0.8125,0.09574468,110.234116,-318.00934,0.022060424,-0.017567456,0.02768898,0.0,0.0,0.0
308.85452,284.2379,77915165,0.8125,0.09574468,-27.433485,-278.91144,0.022060424,-0.017567456,0.02768898,0.0,0.0,0.0
309.65564,281.9253,77915181,0.825,0.09574468,-51.06095,-235.86595,0.022060424,-0.017567456,0.02768898,0.0,0.0,0.0
310.69345,280.08057,77915198,0.825,0.09574468,-35.133266,-168.64949,0.022060424,-0.017567456,0.02768898,0.0,0.0,0.0
311.3765,278.25488,77915215,0.8125,0.09574468,-7.7340074,-91.67796,0.022060424,-0.017567456,0.02768898,0.0,0.0,0.0
311.7659,277.9779,77915232,0.85,0.09574468,-4.892044,-20.304241,0.022060424,-0.017567456,0.02768898,0.0,0.0,0.0
312.70618,279.453,77915248,0.8125,0.11702127,15.019149,47.774055,0.022060424,-0.017567456,0.02768898,0.0,0.0,0.0
313.83966,284.00525,77915265,0.8125,0.12765957,50.92933,203.67157,0.0016483366,0.0019460022,-0.025849342,0.0,0.0,0.0
314.37552,291.45044,77915282,0.825,0.11702127,59.87655,448.86353,0.0016483366,0.0019460022,-0.025849342,0.0,0.0,0.0
315.43118,303.55273,77915298,0.825,0.09574468,64.83492,727.4599,0.0016483366,0.0019460022,-0.025849342,0.0,0.0,0.0
315.27725,318.46472,77915315,0.8125,0.09574468,30.28252,991.5292,0.0016483366,0.0019460022,-0.025849342,0.0,0.0,0.0
314.87537,334.04102,77915332,0.8125,0.11702127,-24.549255,1152.8823,0.0016483366,0.0019460022,-0.025849342,0.0,0.0,0.0
313.70425,347.05334,77915348,0.8125,0.11702127,-71.58939,1079.0453,0.0016483366,0.0019460022,-0.025849342,0.0,0.0,0.0
312.6696,363.38965,77915365,0.8,0.09574468,-99.690414,996.453,0.0016483366,0.0019460022,-0.025849342,0.0,0.0,0.0
311.87634,381.10364,77915382,0.8,0.09574468,-88.750534,1010.912,0.0016483366,0.0019460022,-0.025849342,0.0,0.0,0.0
311.87634,393.01733,77915399,0.7875,0.12765957,-33.747578,959.8374,0.0016483366,0.0019460022,-0.025849342,3.355443E-6,0.0,0.0
311.87634,407.10498,77915415,0.8,0.11702127,6.6391993,845.9887,0.0016483366,0.0019460022,-0.025849342,3.355443E-6,0.0,0.0
313.08835,423.80273,77915432,0.7875,0.08510638,56.073055,784.1507,0.0016483366,0.0019460022,-0.025849342,3.355443E-6,0.0,0.0
314.28397,437.82068,77915449,0.77500004,0.09574468,101.22801,864.27496,0.0016483366,0.0019460022,-0.025849342,3.355443E-6,0.0,0.0
316.26462,444.72253,77915465,0.725,0.11702127,130.16689,747.4288,0.0016483366,0.0019460022,-0.025849342,0.0,0.0,0.0
316.8747,446.79346,77915474,0.45000002,0.12765957,137.5541,571.67456,0.0016483366,0.0019460022,-0.025849342,0.0,0.0,0.0
316.8747,446.79346,77915481,0.45000002,0.12765957,137.5541,571.67456,0.0016483366,0.0019460022,-0.025849342,0.0,0.0,0.0
371.8568,368.60522,77915643,0.71250004,0.09574468,0.0,0.0,0.0016483366,0.0019460022,-0.025849342,0.0,0.0,0.0
371.8568,368.60522,77915666,0.75,0.09574468,0.007826656,0.008244617,0.0016483366,0.0019460022,-0.025849342,0.0,0.0,0.0
371.8568,368.60522,77915683,0.7875,0.09574468,-0.0068236664,-0.0050394568,0.0016483366,0.0019460022,-0.025849342,0.0,0.0,0.0
371.8568,368.60522,77915699,0.7875,0.09574468,0.0064906,0.006476346,0.0016483366,0.0019460022,-0.025849342,0.0,0.0,0.0
371.8568,368.60522,77915716,0.8,0.09574468,0.020642664,0.018594867,0.0016483366,0.0019460022,-0.025849342,0.0,0.0,0.0
371.8568,368.60522,77915733,0.8125,0.08510638,-0.0044889655,-0.0053042066,0.0016483366,0.0019460022,-0.025849342,0.0,0.0,0.0
386.04306,383.95496,77915749,0.7875,0.09574468,374.54727,405.2664,0.0016483366,0.0019460022,-0.025849342,0.0,0.0,0.0
401.7867,392.12366,77915766,0.8,0.10638297,909.3083,767.26984,0.0016483366,0.0019460022,-0.025849342,0.0,0.0,0.0
413.02863,393.48328,77915783,0.7875,0.11702127,1214.9832,727.3802,0.0016483366,0.0019460022,-0.025849342,0.0,0.0,0.0
424.72153,393.05652,77915800,0.7875,0.10638297,1099.8032,221.85155,0.0013186634,-0.014443189,0.011320114,0.0,0.0,0.0
436.9143,389.82312,77915816,0.7875,0.08510638,749.8585,-360.85928,0.0013186634,-0.014443189,0.011320114,0.0,0.0,0.0
445.60437,384.80115,77915833,0.77500004,0.08510638,504.61575,-597.37463,0.0013186634,-0.014443189,0.011320114,0.0,0.0,0.0
451.26068,378.25024,77915850,0.7875,0.08510638,396.05206,-529.66077,0.0013186634,-0.014443189,0.011320114,0.0,0.0,0.0
453.95178,371.50256,77915866,0.8,0.08510638,156.22826,-523.7875,0.0013186634,-0.014443189,0.011320114,0.0,0.0,0.0
454.82977,362.8518,77915883,0.8,0.10638297,-71.712715,-569.3861,0.0013186634,-0.014443189,0.011320114,0.0,0.0,0.0
451.9074,357.1455,77915900,0.8,0.10638297,-242.65268,-527.30316,0.0013186634,-0.014443189,0.011320114,0.0,0.0,0.0
444.18176,352.55237,77915917,0.8,0.12765957,-457.5316,-366.80804,0.0013186634,-0.014443189,0.011320114,0.0,0.0,0.0
434.31024,350.83508,77915933,0.7875,0.12765957,-704.43134,-165.34015,0.0013186634,-0.014443189,0.011320114,0.0,0.0,0.0
422.10556,353.83826,77915950,0.8,0.10638297,-892.75323,131.34877,0.0013186634,-0.014443189,0.011320114,0.0,0.0,0.0
407.49042,360.662,77915967,0.8,0.08510638,-1022.6083,428.37015,0.0013186634,-0.014443189,0.011320114,0.0,0.0,0.0
393.7797,372.22144,77915983,0.7875,0.08510638,-1038.8461,748.3917,0.0013186634,-0.014443189,0.011320114,0.0,0.0,0.0
386.07343,381.67065,77916000,0.8,0.10638297,-814.08734,903.52893,0.0013186634,-0.014443189,0.011320114,0.0,0.0,0.0
379.09756,393.49792,77916017,0.8,0.12765957,-449.32538,852.17883,0.0013186634,-0.014443189,0.011320114,0.0,0.0,0.0
376.35535,404.0874,77916034,0.8,0.11702127,-132.6457,773.31885,0.0013186634,-0.014443189,0.011320114,0.0,0.0,0.0
377.84573,414.77502,77916050,0.8,0.08510638,136.77953,675.7561,0.0013186634,-0.014443189,0.011320114,0.0,0.0,0.0
382.09808,425.63562,77916067,0.8,0.07446808,353.62308,653.5693,0.0013186634,-0.014443189,0.011320114,0.0,0.0,0.0
389.79245,433.4995,77916084,0.7875,0.08510638,580.07776,554.1665,0.0013186634,-0.014443189,0.011320114,0.0,0.0,0.0
403.64404,441.10583,77916100,0.8,0.08510638,854.73737,440.24756,0.0013186634,-0.014443189,0.011320114,0.0,0.0,0.0
416.22665,445.87073,77916117,0.77500004,0.11702127,1029.77,325.42297,0.0013186634,-0.014443189,0.011320114,0.0,0.0,0.0
430.06613,448.59595,77916134,0.7875,0.10638297,1045.385,142.52391,0.0013186634,-0.014443189,0.011320114,0.0,0.0,0.0
447.36182,447.44153,77916151,0.7,0.08510638,1024.4706,-54.105206,0.0013186634,-0.014443189,0.011320114,0.0,0.0,0.0
456.72815,444.89832,77916167,0.26250002,0.09574468,904.65985,-247.55699,0.0013186634,-0.014443189,0.011320114,0.0,0.0,0.0
456.72815,444.89832,77916173,0.26250002,0.09574468,904.65985,-247.55699,0.0013186634,-0.014443189,0.011320114,0.0,0.0,0.0
466.82587,224.66772,77916375,0.7625,0.08510638,0.0,0.0,0.017054945,0.05244544,0.07305622,0.0,0.0,0.0
466.82587,224.66772,77916401,0.8125,0.08510638,-0.07963478,-0.03765658,0.017054945,0.05244544,0.07305622,0.0,0.0,0.0
466.82587,224.66772,77916418,0.825,0.09574468,0.023196423,0.012263128,0.017054945,0.05244544,0.07305622,0.0,0.0,0.0
454.94946,251.83911,77916435,0.825,0.08510638,-608.9126,1359.5436,0.017054945,0.05244544,0.07305622,0.0,0.0,0.0
447.89642,274.5735,77916451,0.7625,0.08510638,-767.26624,2009.0017,0.017054945,0.05244544,0.07305622,0.0,0.0,0.0
444.5121,293.0171,77916468,0.6,0.09574468,-635.3778,2025.2142,0.017054945,0.05244544,0.07305622,0.0,0.0,0.0
444.3332,293.97095,77916471,0.25,0.09574468,-574.8669,1914.6152,0.017054945,0.05244544,0.07305622,0.0,0.0,0.0
444.3332,293.97095,77916479,0.25,0.09574468,-574.8669,1914.6152,0.017054945,0.05244544,0.07305622,0.0,0.0,0.0
468.32538,449.45898,77916882,0.6875,0.10638297,0.0,0.0,-0.0023560524,-0.046043634,-0.15755463,0.0,0.0,0.0
468.32538,449.45898,77916903,0.7375,0.08510638,0.13542353,0.12765527,-0.0023560524,-0.046043634,-0.15755463,0.0,0.0,0.0
468.32538,449.45898,77916918,0.7625,0.08510638,-0.031885788,-0.031127475,-0.0023560524,-0.046043634,-0.15755463,0.0,0.0,0.0
468.32538,449.45898,77916953,0.7875,0.09574468,0.006045495,0.0058698314,-0.0023560524,-0.046043634,-0.15755463,0.0,0.0,0.0
468.32538,449.45898,77916969,0.7875,0.09574468,-0.0073929103,-0.0070553916,-0.0023560524,-0.046043634,-0.15755463,0.0,0.0,0.0
477.1093,438.18213,77916986,0.77500004,0.09574468,264.8697,-340.07812,-0.0023560524,-0.046043634,-0.15755463,0.0,0.0,0.0
487.39423,425.36926,77917003,0.7875,0.10638297,626.7793,-790.3528,-0.0023560524,-0.046043634,-0.15755463,0.0,0.0,0.0
495.24585,415.1239,77917020,0.8,0.10638297,771.1855,-983.2892,-0.0023560524,-0.046043634,-0.15755463,0.0,0.0,0.0
500.8092,405.93225,77917036,0.8,0.09574468,639.758,-877.2961,-0.0023560524,-0.046043634,-0.15755463,0.0,0.0,0.0
504.54498,397.32007,77917053,0.8,0.08510638,338.343,-601.4678,-0.0023560524,-0.046043634,-0.15755463,0.0,0.0,0.0
508.662,380.64612,77917070,0.8125,0.08510638,131.38257,-664.6123,-0.0023560524,-0.046043634,-0.15755463,0.0,0.0,0.0
509.8119,370.26782,77917086,0.825,0.10638297,46.746593,-796.8514,-0.0023560524,-0.046043634,-0.15755463,0.0,0.0,0.0
509.06262,363.72107,77917103,0.825,0.10638297,-54.760098,-677.34235,-0.0023560524,-0.046043634,-0.15755463,0.0,0.0,0.0
508.02838,359.59888,77917120,0.8125,0.12765957,-154.4073,-312.11588,-0.0023560524,-0.046043634,-0.15755463,0.0,0.0,0.0
507.00006,357.38745,77917137,0.825,0.10638297,-191.30147,44.936287,-0.0023560524,-0.046043634,-0.15755463,0.0,0.0,0.0
505.953,355.52625,77917153,0.825,0.12765957,-133.04536,92.51469,-0.0023560524,-0.046043634,-0.15755463,0.0,0.0,0.0
504.97156,354.38916,77917170,0.825,0.12765957,-80.69885,45.798283,-0.0023560524,-0.046043634,-0.15755463,0.0,0.0,0.0
504.81354,354.38916,77917185,0.83750004,0.10638297,-46.0851,47.321957,-0.0023560524,-0.046043634,-0.15755463,0.0,0.0,0.0
506.2343,356.07288,77917203,0.83750004,0.09574468,25.64204,80.966866,-0.0023560524,-0.046043634,-0.15755463,0.0,0.0,0.0
512.48035,360.75903,77917220,0.825,0.08510638,249.67007,237.06213,-0.0023560524,-0.046043634,-0.15755463,0.0,0.0,0.0
521.77783,370.93884,77917237,0.8,0.09574468,539.70465,525.34796,-0.0023560524,-0.046043634,-0.15755463,0.0,0.0,0.0
532.5331,382.2351,77917253,0.7875,0.10638297,772.16034,791.6617,-0.0023560524,-0.046043634,-0.15755463,0.0,0.0,0.0
547.0803,393.64954,77917270,0.7875,0.10638297,967.80316,925.9194,-0.0023560524,-0.046043634,-0.15755463,0.0,0.0,0.0
561.75385,403.1604,77917287,0.77500004,0.10638297,1029.3147,790.70874,-0.0023560524,-0.046043634,-0.15755463,0.0,0.0,0.0
572.0909,409.78687,77917304,0.7625,0.08510638,941.4043,592.6422,-0.0023560524,-0.046043634,-0.15755463,0.0,0.0,0.0
578.3499,414.86096,77917320,0.77500004,0.09574468,589.3439,292.87787,-0.0023560524,-0.046043634,-0.15755463,0.0,0.0,0.0
581.89166,419.43335,77917337,0.77500004,0.09574468,185.02003,159.2797,-0.0023560524,-0.046043634,-0.15755463,0.0,0.0,0.0
584.32697,424.99365,77917354,0.77500004,0.09574468,-54.20065,157.98323,-0.0023560524,-0.046043634,-0.15755463,0.0,0.0,0.0
584.9034,432.64197,77917370,0.7625,0.09574468,-116.30234,313.67438,-0.0023560524,-0.046043634,-0.15755463,0.0,0.0,0.0
582.0705,437.57422,77917387,0.77500004,0.08510638,-193.82655,402.31775,-0.0023560524,-0.046043634,-0.15755463,0.0,0.0,0.0
573.16534,443.04004,77917404,0.77500004,0.09574468,-421.2662,388.40042,0.01411517,0.0351651,0.057955742,0.0,0.0,0.0
562.26196,447.69263,77917421,0.77500004,0.10638297,-751.8766,299.13644,0.01411517,0.0351651,0.057955742,0.0,0.0,0.0
552.4534,449.52698,77917437,0.7875,0.12765957,-892.4274,152.81264,0.01411517,0.0351651,0.057955742,0.0,0.0,0.0
545.88806,450.34753,77917454,0.77500004,0.11702127,-741.2037,45.158516,0.01411517,0.0351651,0.057955742,0.0,0.0,0.0
543.0454,450.34753,77917471,0.77500004,0.11702127,-369.2663,-58.548527,0.01411517,0.0351651,0.057955742,0.0,0.0,0.0
541.80145,449.45898,77917485,0.32500002,0.09574468,-86.96111,-141.74988,0.01411517,0.0351651,0.057955742,0.0,0.0,0.0
541.80145,449.45898,77917492,0.32500002,0.09574468,-86.96111,-141.74988,0.01411517,0.0351651,0.057955742,0.0,0.0,0.0
584.28766,397.92578,77917654,0.71250004,0.10638297,0.0,0.0,0.01411517,0.0351651,0.057955742,3.355443E-6,0.0,0.0
584.28766,397.92578,77917671,0.7375,0.10638297,-0.24769998,-0.15446544,0.01411517,0.0351651,0.057955742,0.0,0.0,0.0
584.28766,397.92578,77917688,0.77500004,0.08510638,-0.026452474,-0.02077887,0.01411517,0.0351651,0.057955742,0.0,0.0,0.0
570.708,372.51562,77917705,0.77500004,0.08510638,-812.17566,-1514.8073,0.01411517,0.0351651,0.057955742,0.0,0.0,0.0
569.29254,368.03198,77917721,0.8,0.09574468,-595.7784,-1173.1945,0.01411517,0.0351651,0.057955742,0.0,0.0,0.0
570.0397,361.50635,77917738,0.77500004,0.12765957,-262.80603,-839.3027,0.01411517,0.0351651,0.057955742,0.0,0.0,0.0
574.0329,355.87952,77917755,0.7875,0.12765957,207.80101,-341.02435,0.01411517,0.0351651,0.057955742,0.0,0.0,0.0
582.2637,347.5968,77917771,0.7875,0.11702127,632.5851,-134.287,0.01411517,0.0351651,0.057955742,0.0,0.0,0.0
594.5222,340.89575,77917788,0.8,0.10638297,859.11224,-329.8857,0.01411517,0.0351651,0.057955742,0.0,0.0,0.0
608.12317,338.39612,77917805,0.7875,0.09574468,1021.47614,-336.67715,0.01411517,0.0351651,0.057955742,0.0,0.0,0.0
623.8842,342.54187,77917822,0.8,0.10638297,1121.2709,-1.540887,0.01411517,0.0351651,0.057955742,0.0,0.0,0.0
636.6239,349.8518,77917838,0.77500004,0.12765957,1060.385,487.89957,0.01411517,0.0351651,0.057955742,0.0,0.0,0.0
644.4654,358.1936,77917855,0.77500004,0.08510638,735.4573,766.43274,0.01411517,0.0351651,0.057955742,0.0,0.0,0.0
654.3982,375.16418,77917872,0.77500004,0.08510638,492.71494,1010.35864,0.01411517,0.0351651,0.057955742,0.0,0.0,0.0
659.32104,388.9984,77917888,0.7625,0.12765957,287.65726,1114.9525,0.01411517,0.0351651,0.057955742,0.0,0.0,0.0
658.0937,402.70435,77917905,0.75,0.10638297,10.196775,1101.8599,0.01411517,0.0351651,0.057955742,0.0,0.0,0.0
653.871,414.04822,77917922,0.7375,0.08510638,-269.11407,953.73785,0.01411517,0.0351651,0.057955742,0.0,0.0,0.0
648.0724,421.64404,77917939,0.75,0.08510638,-573.1247,553.57745,0.01129213,0.012132078,0.014364243,0.0,0.0,0.0
638.69617,428.61853,77917955,0.75,0.07446808,-717.8423,310.31866,0.01129213,0.012132078,0.014364243,0.0,0.0,0.0
628.2263,432.23035,77917972,0.75,0.06382979,-771.9833,144.45642,0.01129213,0.012132078,0.014364243,0.0,0.0,0.0
620.86804,431.9662,77917989,0.7625,0.06382979,-715.5365,-42.901886,0.01129213,0.012132078,0.014364243,0.0,0.0,0.0
616.13306,430.12268,77918005,0.7625,0.07446808,-493.78494,-216.93988,0.01129213,0.012132078,0.014364243,0.0,0.0,0.0
614.858,429.16614,77918022,0.7625,0.06382979,-156.24855,-284.63367,0.01129213,0.012132078,0.014364243,0.0,0.0,0.0
616.22003,429.02344,77918039,0.7625,0.06382979,148.91852,-224.98813,0.01129213,0.012132078,0.014364243,0.0,0.0,0.0
625.7718,430.79968,77918056,0.7625,0.07446808,476.56216,-24.724873,0.01129213,0.012132078,0.014364243,0.0,0.0,0.0
640.9564,435.45837,77918072,0.75,0.08510638,920.8206,223.31627,0.01129213,0.012132078,0.014364243,0.0,0.0,0.0
657.74506,442.01672,77918089,0.75,0.08510638,1255.9055,420.00928,0.01129213,0.012132078,0.014364243,0.0,0.0,0.0
671.85333,447.44727,77918106,0.75,0.09574468,1326.5485,505.4378,0.01129213,0.012132078,0.014364243,0.0,0.0,0.0
682.64624,451.78503,77918122,0.7375,0.12765957,1052.2878,444.7642,0.01129213,0.012132078,0.014364243,0.0,0.0,0.0
692.08374,455.12793,77918139,0.7375,0.12765957,670.1933,295.44275,0.01129213,0.012132078,0.014364243,0.0,0.0,0.0
698.1742,456.56702,77918156,0.71250004,0.12765957,306.6261,94.118576,0.01129213,0.012132078,0.014364243,0.0,0.0,0.0
703.8577,456.56702,77918173,0.575,0.12765957,167.73903,-36.962734,0.01129213,0.012132078,0.014364243,0.0,0.0,0.0
704.7484,456.56702,77918176,0.3125,0.12765957,154.0453,-53.393368,0.01129213,0.012132078,0.014364243,0.0,0.0,0.0
704.7484,456.56702,77918183,0.3125,0.12765957,154.0453,-53.393368,0.01129213,0.012132078,0.014364243,0.0,0.0,0.0
620.77576,402.3683,77918313,0.71250004,0.10638297,0.0,0.0,0.01129213,0.012132078,0.014364243,0.0,0.0,0.0
620.77576,402.3683,77918340,0.7625,0.10638297,0.04835463,0.03275863,0.01129213,0.012132078,0.014364243,0.0,0.0,0.0
620.77576,402.3683,77918356,0.77500004,0.12765957,-0.04834315,-0.032448653,0.01129213,0.012132078,0.014364243,0.0,0.0,0.0
642.0557,401.47986,77918373,0.7625,0.12765957,1042.046,-47.119564,0.01129213,0.012132078,0.014364243,0.0,0.0,0.0
659.586,401.9972,77918390,0.7625,0.10638297,1486.9586,-22.352121,0.01129213,0.012132078,0.014364243,0.0,0.0,0.0
674.26715,402.3683,77918407,0.6875,0.10638297,1554.1372,16.514557,0.01129213,0.012132078,0.014364243,0.0,0.0,0.0
675.25806,402.3683,77918409,0.4375,0.12765957,1474.9551,19.322447,0.01129213,0.012132078,0.014364243,0.0,0.0,0.0
675.25806,402.3683,77918417,0.4375,0.12765957,1474.9551,19.322447,0.01129213,0.012132078,0.014364243,0.0,0.0,0.0
781.7234,379.2672,77918642,0.6125,0.053191487,0.0,0.0,-0.006966293,-0.022294343,0.0114917755,0.0,0.0,0.0
781.7234,379.2672,77918674,0.6875,0.06382979,0.049694438,0.02312224,-0.006966293,-0.022294343,0.0114917755,0.0,0.0,0.0
781.7234,379.2672,77918687,0.725,0.08510638,0.053501673,0.024649091,-0.006966293,-0.022294343,0.0114917755,0.0,0.0,0.0
781.7234,379.2672,77918707,0.725,0.10638297,-0.0073891794,-0.0043741106,-0.006966293,-0.022294343,0.0114917755,0.0,0.0,0.0
764.76843,366.79602,77918724,0.725,0.11702127,-529.8699,-389.74716,-0.006966293,-0.022294343,0.0114917755,0.0,0.0,0.0
752.1494,362.8412,77918741,0.75,0.10638297,-954.4337,-558.4045,-0.006966293,-0.022294343,0.0114917755,0.0,0.0,0.0
736.52313,362.38574,77918757,0.7625,0.08510638,-1290.938,-466.302,-0.006966293,-0.022294343,0.0114917755,0.0,0.0,0.0
722.88513,365.7494,77918774,0.7625,0.08510638,-1291.4502,-94.540504,-0.006966293,-0.022294343,0.0114917755,0.0,0.0,0.0
711.60394,371.18555,77918791,0.7625,0.09574468,-846.92725,494.53708,-0.006966293,-0.022294343,0.0114917755,0.0,0.0,0.0
704.36206,378.07996,77918808,0.75,0.09574468,-480.39166,691.1265,-0.006966293,-0.022294343,0.0114917755,0.0,0.0,0.0
698.83167,385.91052,77918824,0.75,0.10638297,-265.48956,604.435,-0.006966293,-0.022294343,0.0114917755,0.0,0.0,0.0
696.2512,396.26526,77918841,0.725,0.12765957,-51.393177,653.9434,-0.006966293,-0.022294343,0.0114917755,0.0,0.0,0.0
697.94147,406.41736,77918858,0.725,0.11702127,146.09363,694.47095,-0.006966293,-0.022294343,0.0114917755,0.0,0.0,0.0
703.3239,415.98022,77918874,0.71250004,0.07446808,364.72864,698.24506,-0.006966293,-0.022294343,0.0114917755,0.0,0.0,0.0
714.9844,424.4265,77918891,0.7,0.06382979,689.8712,631.3584,-0.006966293,-0.022294343,0.0114917755,0.0,0.0,0.0
728.4861,427.28003,77918908,0.7,0.07446808,1004.9737,342.54007,-0.006966293,-0.022294343,0.0114917755,0.0,0.0,0.0
739.84576,424.36462,77918925,0.7,0.08510638,1044.0065,-47.90516,-0.006966293,-0.022294343,0.0114917755,0.0,0.0,0.0
748.454,418.70166,77918941,0.71250004,0.11702127,850.7181,-441.7104,-0.006966293,-0.022294343,0.0114917755,0.0,0.0,0.0
756.3636,410.99243,77918958,0.725,0.12765957,542.2336,-692.2359,-0.006966293,-0.022294343,0.0114917755,0.0,0.0,0.0
761.5456,404.83533,77918975,0.725,0.10638297,289.0469,-704.3325,-0.006966293,-0.022294343,0.0114917755,0.0,0.0,0.0
763.6515,399.84094,77918991,0.725,0.08510638,108.08537,-533.0535,-0.006966293,-0.022294343,0.0114917755,0.0,0.0,0.0
764.9756,396.59888,77919008,0.7375,0.08510638,-8.982837,-276.5117,0.010426968,-0.0018354952,0.04119301,0.0,0.0,0.0
765.22876,394.74182,77919025,0.75,0.08510638,-95.687164,-97.74952,0.010426968,-0.0018354952,0.04119301,0.0,0.0,0.0
765.22876,393.48328,77919041,0.7625,0.08510638,-116.51228,0.5226967,0.010426968,-0.0018354952,0.04119301,0.0,0.0,0.0
765.22876,393.48328,77919058,0.75,0.10638297,-76.596,58.86865,0.010426968,-0.0018354952,0.04119301,0.0,0.0,0.0
766.519,399.8473,77919075,0.75,0.12765957,-14.02937,233.0444,0.010426968,-0.0018354952,0.04119301,0.0,0.0,0.0
769.0095,411.23816,77919092,0.75,0.08510638,90.560776,565.0342,0.010426968,-0.0018354952,0.04119301,0.0,0.0,0.0
773.6798,427.062,77919108,0.7375,0.06382979,246.4272,1017.2877,0.010426968,-0.0018354952,0.04119301,0.0,0.0,0.0
779.37695,438.17993,77919125,0.71250004,0.09574468,386.69952,1140.9142,0.010426968,-0.0018354952,0.04119301,0.0,0.0,0.0
785.31586,443.76697,77919142,0.6875,0.10638297,437.24036,792.01685,0.010426968,-0.0018354952,0.04119301,0.0,0.0,0.0
792.5772,448.1173,77919158,0.6625,0.12765957,479.72012,333.43384,0.010426968,-0.0018354952,0.04119301,0.0,0.0,0.0
797.71814,448.57056,77919173,0.275,0.11702127,485.04272,4.8565865,0.010426968,-0.0018354952,0.04119301,0.0,0.0,0.0
797.71814,448.57056,77919180,0.275,0.11702127,485.04272,4.8565865,0.010426968,-0.0018354952,0.04119301,0.0,0.0,0.0
738.23755,256.6538,77919383,0.725,0.08510638,0.0,0.0,0.010426968,-0.0018354952,0.04119301,0.0,0.0,0.0
738.23755,256.6538,77919409,0.8,0.10638297,0.048408203,0.017013,0.010426968,-0.0018354952,0.04119301,0.0,0.0,0.0
738.23755,256.6538,77919426,0.8125,0.08510638,-0.0036443577,-7.170325E-4,0.010426968,-0.0018354952,0.04119301,0.0,0.0,0.0
740.4133,268.25684,77919442,0.7875,0.08510638,74.01822,394.6767,0.010426968,-0.0018354952,0.04119301,0.0,0.0,0.0
746.10223,293.49902,77919459,0.7375,0.12765957,303.9026,1469.7023,0.010426968,-0.0018354952,0.04119301,0.0,0.0,0.0
751.9402,313.62585,77919476,0.675,0.08510638,447.17838,1865.8445,0.010426968,-0.0018354952,0.04119301,0.0,0.0,0.0
752.233,314.4065,77919478,0.32500002,0.09574468,444.83456,1812.7366,0.010426968,-0.0018354952,0.04119301,0.0,0.0,0.0
752.233,314.4065,77919486,0.32500002,0.09574468,444.83456,1812.7366,0.010426968,-0.0018354952,0.04119301,0.0,0.0,0.0
798.218,437.90845,77919727,0.6375,0.07446808,0.0,0.0,-0.007658422,-0.025468394,9.54628E-4,0.0,0.0,0.0
798.218,437.90845,77919760,0.7,0.07446808,-0.05841624,-0.03157341,-0.007658422,-0.025468394,9.54628E-4,0.0,0.0,0.0
798.218,437.90845,77919772,0.71250004,0.07446808,0.015611093,0.008582466,-0.007658422,-0.025468394,9.54628E-4,0.0,0.0,0.0
798.218,437.90845,77919792,0.725,0.07446808,0.02399088,0.013922867,-0.007658422,-0.025468394,9.54628E-4,0.0,0.0,0.0
798.218,437.90845,77919810,0.7375,0.09574468,0.011569414,0.0060487185,-0.007658422,-0.025468394,9.54628E-4,3.355443E-6,0.0,0.0
798.218,437.90845,77919827,0.725,0.09574468,-0.024217518,-0.013775211,-0.007658422,-0.025468394,9.54628E-4,3.355443E-6,0.0,0.0
810.6245,412.7848,77919844,0.75,0.12765957,426.2631,-857.41766,-0.007658422,-0.025468394,9.54628E-4,3.355443E-6,0.0,0.0
816.5477,394.42017,77919860,0.75,0.08510638,596.11884,-1359.7842,-0.007658422,-0.025468394,9.54628E-4,3.355443E-6,0.0,0.0
820.0151,374.40234,77919877,0.75,0.08510638,519.0908,-1668.2224,-0.007658422,-0.025468394,9.54628E-4,0.0,0.0,0.0
819.5209,360.75842,77919894,0.7625,0.12765957,181.80754,-1403.47,-0.007658422,-0.025468394,9.54628E-4,0.0,0.0,0.0
817.09625,351.74597,77919910,0.75,0.11702127,-296.63013,-625.1974,-0.007658422,-0.025468394,9.54628E-4,0.0,0.0,0.0
814.47284,345.96643,77919927,0.7875,0.11702127,-316.7962,-376.38214,-0.007658422,-0.025468394,9.54628E-4,0.0,0.0,0.0
812.7465,341.17993,77919944,0.7625,0.09574468,-333.10394,8.589572,-0.007658422,-0.025468394,9.54628E-4,0.0,0.0,0.0
811.70715,339.27307,77919961,0.7625,0.09574468,-162.61043,38.61108,-0.007658422,-0.025468394,9.54628E-4,0.0,0.0,0.0
811.21375,338.39612,77919977,0.77500004,0.11702127,-42.661266,64.42495,-0.007658422,-0.025468394,9.54628E-4,0.0,0.0,0.0
815.20386,338.39612,77919994,0.77500004,0.10638297,124.76293,96.77211,-0.007658422,-0.025468394,9.54628E-4,0.0,0.0,0.0
830.15643,342.59937,77920011,0.7625,0.10638297,581.4011,227.24493,-0.007658422,-0.025468394,9.54628E-4,0.0,0.0,0.0
848.18195,348.16382,77920027,0.75,0.12765957,1130.7677,374.8303,-0.007658422,-0.025468394,9.54628E-4,0.0,0.0,0.0
861.1845,353.31836,77920044,0.7625,0.11702127,1364.7748,465.57965,-0.007658422,-0.025468394,9.54628E-4,0.0,0.0,0.0
870.8949,357.02954,77920061,0.7625,0.10638297,1050.7516,401.55673,-0.007658422,-0.025468394,9.54628E-4,0.0,0.0,0.0
878.6053,361.11096,77920078,0.7625,0.08510638,519.9918,278.3141,0.025873259,0.03562528,-0.031235695,0.0,0.0,0.0
882.338,362.96094,77920094,0.75,0.08510638,144.3804,144.97276,0.025873259,0.03562528,-0.031235695,0.0,0.0,0.0
883.9175,366.7478,77920111,0.75,0.08510638,-44.185867,101.471504,0.025873259,0.03562528,-0.031235695,0.0,0.0,0.0
883.11115,373.82776,77920128,0.7625,0.08510638,-164.06558,254.67564,0.025873259,0.03562528,-0.031235695,0.0,0.0,0.0
879.3707,381.72058,77920144,0.77500004,0.08510638,-314.40268,478.0914,0.025873259,0.03562528,-0.031235695,0.0,0.0,0.0
874.74786,388.0874,77920161,0.77500004,0.10638297,-426.10364,580.88055,0.025873259,0.03562528,-0.031235695,0.0,0.0,0.0
868.5691,399.03833,77920178,0.75,0.11702127,-470.65222,614.53876,0.025873259,0.03562528,-0.031235695,0.0,0.0,0.0
864.4148,410.22705,77920195,0.75,0.09574468,-429.64252,659.99475,0.025873259,0.03562528,-0.031235695,0.0,0.0,0.0
862.5933,425.16724,77920211,0.7375,0.08510638,-261.84283,842.1319,0.025873259,0.03562528,-0.031235695,0.0,0.0,0.0
863.46265,435.0631,77920228,0.725,0.09574468,-34.868862,891.6692,0.025873259,0.03562528,-0.031235695,0.0,0.0,0.0
866.1921,439.3871,77920245,0.71250004,0.10638297,185.9062,604.7649,0.025873259,0.03562528,-0.031235695,0.0,0.0,0.0
876.01227,442.74182,77920261,0.6375,0.08510638,503.25073,213.92783,0.025873259,0.03562528,-0.031235695,0.0,0.0,0.0
877.69214,443.2395,77920266,0.375,0.08510638,576.78845,100.19323,0.025873259,0.03562528,-0.031235695,0.0,0.0,0.0
877.69214,443.2395,77920273,0.375,0.08510638,576.78845,100.19323,0.025873259,0.03562528,-0.031235695,0.0,0.0,0.0
962.1647,372.15918,77920387,0.71250004,0.07446808,0.0,0.0,0.025873259,0.03562528,-0.031235695,0.0,0.0,0.0
962.1647,372.15918,77920412,0.7375,0.08510638,-0.11287689,-0.047227547,0.025873259,0.03562528,-0.031235695,0.0,0.0,0.0
962.1647,372.15918,77920424,0.7625,0.08510638,-0.07976304,-0.03270956,0.025873259,0.03562528,-0.031235695,0.0,0.0,0.0
962.1647,372.15918,77920445,0.7625,0.08510638,0.014607067,0.005963695,0.025873259,0.03562528,-0.031235695,0.0,0.0,0.0
937.52405,372.57776,77920479,0.7625,0.08510638,-830.9984,2.449272,0.025873259,0.03562528,-0.031235695,0.0,0.0,0.0
931.0408,377.16504,77920495,0.7375,0.09574468,-894.1452,149.38716,0.025873259,0.03562528,-0.031235695,0.0,0.0,0.0
926.1114,382.7129,77920512,0.75,0.11702127,-547.897,366.32208,0.025873259,0.03562528,-0.031235695,0.0,0.0,0.0
920.78644,392.75037,77920529,0.75,0.12765957,-183.93353,598.3945,0.025873259,0.03562528,-0.031235695,0.0,0.0,0.0
917.98816,401.26953,77920546,0.7375,0.11702127,-142.283,676.7499,0.025873259,0.03562528,-0.031235695,0.0,0.0,0.0
916.26355,408.87952,77920562,0.75,0.09574468,-64.99836,649.3557,0.025873259,0.03562528,-0.031235695,0.0,0.0,0.0
916.1796,416.3661,77920579,0.725,0.09574468,11.993808,534.5158,0.025873259,0.03562528,-0.031235695,0.0,0.0,0.0
917.6954,421.95874,77920596,0.7375,0.09574468,128.61339,378.88507,0.025873259,0.03562528,-0.031235695,0.0,0.0,0.0
920.9022,424.78003,77920612,0.725,0.07446808,229.76198,200.58434,-0.027301386,-0.003499806,-0.00898838,0.0,0.0,0.0
929.64124,428.47827,77920629,0.71250004,0.06382979,431.2738,131.51537,-0.027301386,-0.003499806,-0.00898838,0.0,0.0,0.0
940.57697,429.02344,77920646,0.7375,0.06382979,700.3418,29.927935,-0.027301386,-0.003499806,-0.00898838,0.0,0.0,0.0
949.27374,425.6449,77920663,0.7375,0.08510638,802.82715,-137.59233,-0.027301386,-0.003499806,-0.00898838,0.0,0.0,0.0
956.9193,419.91357,77920679,0.75,0.08510638,724.7924,-351.62534,-0.027301386,-0.003499806,-0.00898838,0.0,0.0,0.0
963.6566,413.48462,77920696,0.725,0.12765957,456.44016,-566.3326,-0.027301386,-0.003499806,-0.00898838,0.0,0.0,0.0
968.31824,406.5343,77920713,0.7375,0.11702127,265.6731,-584.66595,-0.027301386,-0.003499806,-0.00898838,0.0,0.0,0.0
973.4502,392.77136,77920729,0.75,0.09574468,214.45544,-685.63776,-0.027301386,-0.003499806,-0.00898838,0.0,0.0,0.0
977.0242,375.864,77920746,0.75,0.09574468,181.52866,-993.2734,-0.027301386,-0.003499806,-0.00898838,0.0,0.0,0.0
976.7742,364.2893,77920763,0.75,0.11702127,61.134995,-1097.2988,-0.027301386,-0.003499806,-0.00898838,0.0,0.0,0.0
974.7722,355.6748,77920780,0.7375,0.12765957,-123.26706,-881.48676,-0.027301386,-0.003499806,-0.00898838,0.0,0.0,0.0
972.204,350.02234,77920796,0.75,0.12765957,-283.4621,-438.33334,-0.027301386,-0.003499806,-0.00898838,0.0,0.0,0.0
969.16614,346.3971,77920813,0.7625,0.10638297,-339.214,-67.032646,-0.027301386,-0.003499806,-0.00898838,0.0,0.0,0.0
963.2698,344.49878,77920830,0.77500004,0.12765957,-354.00577,35.057323,-0.027301386,-0.003499806,-0.00898838,0.0,0.0,0.0
954.2109,345.693,77920846,0.77500004,0.10638297,-488.74344,122.089775,-0.027301386,-0.003499806,-0.00898838,0.0,0.0,0.0
949.32513,347.58093,77920863,0.7625,0.10638297,-520.8651,218.25851,-0.027301386,-0.003499806,-0.00898838,0.0,0.0,0.0
945.5636,349.41724,77920880,0.77500004,0.10638297,-418.87332,257.04837,-0.027301386,-0.003499806,-0.00898838,0.0,0.0,0.0
942.9486,355.08044,77920897,0.77500004,0.08510638,-172.83922,308.87646,-0.027301386,-0.003499806,-0.00898838,0.0,0.0,0.0
943.9549,363.8202,77920913,0.75,0.08510638,48.0812,483.18787,-0.027301386,-0.003499806,-0.00898838,0.0,0.0,0.0
948.0786,372.88684,77920930,0.7375,0.08510638,256.8601,676.8856,-0.027301386,-0.003499806,-0.00898838,0.0,0.0,0.0
955.55963,379.77502,77920947,0.75,0.08510638,492.31708,672.83014,-0.027301386,-0.003499806,-0.00898838,0.0,0.0,0.0
965.1,385.74512,77920963,0.75,0.09574468,709.2789,493.7597,-0.027301386,-0.003499806,-0.00898838,0.0,0.0,0.0
976.5718,387.2638,77920980,0.75,0.08510638,820.5293,194.15848,-0.027301386,-0.003499806,-0.00898838,0.0,0.0,0.0
992.02454,385.62683,77920997,0.75,0.08510638,951.97986,-76.26182,-0.027301386,-0.003499806,-0.00898838,0.0,0.0,0.0
1004.6781,381.031,77921014,0.7625,0.08510638,996.93713,-344.77014,-0.027301386,-0.003499806,-0.00898838,0.0,0.0,0.0
1015.0083,373.61572,77921030,0.75,0.09574468,852.6174,-572.2077,-0.027301386,-0.003499806,-0.00898838,0.0,0.0,0.0
1023.3159,365.34338,77921047,0.7625,0.11702127,608.1319,-682.61206,-0.027301386,-0.003499806,-0.00898838,0.0,0.0,0.0
1031.6646,355.91895,77921064,0.77500004,0.12765957,391.51813,-702.3274,-0.027301386,-0.003499806,-0.00898838,0.0,0.0,0.0
1038.5505,346.37903,77921080,0.77500004,0.10638297,296.8956,-677.7977,-0.027301386,-0.003499806,-0.00898838,0.0,0.0,0.0
1040.2161,341.47168,77921097,0.77500004,0.08510638,194.77774,-522.3586,-0.027301386,-0.003499806,-0.00898838,0.0,0.0,0.0
1041.8766,335.35083,77921114,0.77500004,0.08510638,49.913177,-353.49533,-0.027301386,-0.003499806,-0.00898838,0.0,0.0,0.0
1042.1385,331.68298,77921131,0.7625,0.08510638,-94.99581,-226.06725,-0.027301386,-0.003499806,-0.00898838,0.0,0.0,0.0
1041.844,329.87598,77921147,0.77500004,0.08510638,-137.53754,-82.587006,0.042158887,0.06120017,0.09680939,0.0,0.0,0.0
1040.0798,327.995,77921164,0.7875,0.08510638,-144.58215,-12.310441,0.042158887,0.06120017,0.09680939,0.0,0.0,0.0
1037.4532,327.734,77921181,0.7875,0.09574468,-194.69888,50.573875,0.042158887,0.06120017,0.09680939,0.0,0.0,0.0
1035.3115,329.35938,77921197,0.77500004,0.09574468,-213.62024,101.28601,0.042158887,0.06120017,0.09680939,0.0,0.0,0.0
1033.6677,332.9713,77921214,0.77500004,0.11702127,-188.57367,203.3923,0.042158887,0.06120017,0.09680939,0.0,0.0,0.0
1034.6555,338.4734,77921231,0.7625,0.12765957,-42.5501,365.16895,0.042158887,0.06120017,0.09680939,0.0,0.0,0.0
1038.8616,344.91125,77921248,0.7625,0.10638297,178.34502,477.08685,0.042158887,0.06120017,0.09680939,0.0,0.0,0.0
1049.8599,355.39282,77921264,0.7625,0.08510638,516.6151,607.65955,0.042158887,0.06120017,0.09680939,0.0,0.0,0.0
1060.416,367.06787,77921281,0.75,0.08510638,798.44696,736.5244,0.042158887,0.06120017,0.09680939,0.0,0.0,0.0
1068.8918,377.80054,77921298,0.7375,0.09574468,855.9865,812.44025,0.042158887,0.06120017,0.09680939,0.0,0.0,0.0
1074.6649,384.8153,77921314,0.7375,0.11702127,670.0683,711.15015,0.042158887,0.06120017,0.09680939,0.0,0.0,0.0
1078.8905,389.9458,77921331,0.75,0.12765957,295.00003,413.25058,0.042158887,0.06120017,0.09680939,0.0,0.0,0.0
1082.2136,396.4619,77921348,0.7375,0.12765957,95.88173,225.05708,0.042158887,0.06120017,0.09680939,3.355443E-6,0.0,0.0
1082.2908,402.3761,77921365,0.75,0.11702127,-29.1373,214.41722,0.042158887,0.06120017,0.09680939,3.355443E-6,0.0,0.0
1079.5065,406.5857,77921381,0.7375,0.11702127,-186.52759,268.94656,0.042158887,0.06120017,0.09680939,3.355443E-6,0.0,0.0
1072.963,412.37134,77921398,0.77500004,0.08510638,-390.6418,276.54108,0.042158887,0.06120017,0.09680939,3.355443E-6,0.0,0.0
1059.7607,418.97095,77921415,0.7625,0.08510638,-743.9668,322.81052,0.042158887,0.06120017,0.09680939,0.0,0.0,0.0
1049.1864,423.6726,77921431,0.75,0.08510638,-971.07666,337.2016,0.042158887,0.06120017,0.09680939,0.0,0.0,0.0
1042.4724,426.417,77921448,0.7375,0.09574468,-803.59045,269.3905,0.042158887,0.06120017,0.09680939,0.0,0.0,0.0
1038.6398,428.1349,77921456,0.625,0.09574468,-724.0678,230.05617,0.042158887,0.06120017,0.09680939,0.0,0.0,0.0
1038.6398,428.1349,77921463,0.625,0.09574468,-724.0678,230.05617,0.042158887,0.06120017,0.09680939,0.0,0.0,0.0
