x,y,timestamp,pressure,fingerarea,velocityx,velocityy,accelx,accely,accelz,gyrox,gyroy,gyroz
204.91116,302.85596,77959778,0.6375,0.11702127,0.0,0.0,-0.00824365,-0.039907455,-0.031633377,0.0,0.0,0.0
204.91116,302.85596,77959798,0.675,0.12765957,-0.0072936825,-0.009531897,-0.00824365,-0.039907455,-0.031633377,0.0,0.0,0.0
204.91116,302.85596,77959805,0.6875,0.12765957,0.009554542,0.015875723,-0.00824365,-0.039907455,-0.031633377,0.0,0.0,0.0
204.91116,302.85596,77959831,0.7,0.12765957,0.011267897,0.016700214,-0.00824365,-0.039907455,-0.031633377,0.0,0.0,0.0
204.91116,302.85596,77959848,0.75,0.10638297,-0.0075694607,-0.0089586545,-0.00824365,-0.039907455,-0.031633377,0.0,0.0,0.0
204.91116,302.85596,77959861,0.8,0.10638297,-0.0018335743,-0.003358812,-0.00824365,-0.039907455,-0.031633377,0.0,0.0,0.0
204.91116,302.85596,77959881,0.825,0.10638297,0.003395172,0.0034057233,-0.00824365,-0.039907455,-0.031633377,0.0,0.0,0.0
204.91116,302.85596,77959898,0.83750004,0.10638297,-2.985154E-4,-0.0012086615,-0.00824365,-0.039907455,-0.031633377,0.0,0.0,0.0
204.91116,302.85596,77959910,0.83750004,0.12765957,-0.008142186,-0.010883809,-0.00824365,-0.039907455,-0.031633377,0.0,0.0,0.0
204.91116,302.85596,77959931,0.8625,0.11702127,-0.004980088,-0.006818298,-0.00824365,-0.039907455,-0.031633377,0.0,0.0,0.0
204.91116,302.85596,77959948,0.83750004,0.09574468,0.0044328733,0.0057578394,-0.00824365,-0.039907455,-0.031633377,0.0,0.0,0.0
209.61539,332.4364,77959965,0.83750004,0.11702127,164.95325,979.6244,-0.00824365,-0.039907455,-0.031633377,0.0,0.0,0.0
210.15506,347.219,77959982,0.825,0.11702127,184.37769,1512.5626,-0.00824365,-0.039907455,-0.031633377,0.0,0.0,0.0
212.18707,365.6543,77959998,0.85,0.08510638,155.81157,1580.2435,-0.00824365,-0.039907455,-0.031633377,0.0,0.0,0.0
212.74292,384.90833,77960015,0.83750004,0.08510638,68.83813,1403.4463,-0.00824365,-0.039907455,-0.031633377,0.0,0.0,0.0
213.77713,402.4701,77960032,0.8125,0.12765957,5.1131697,1032.9829,-0.00824365,-0.039907455,-0.031633377,0.0,0.0,0.0
213.90823,424.8297,77960048,0.8125,0.08510638,34.878212,1245.6438,-0.00824365,-0.039907455,-0.031633377,0.0,0.0,0.0
214.85968,442.5537,77960065,0.8125,0.10638297,12.775239,1257.4103,-0.00824365,-0.039907455,-0.031633377,0.0,0.0,0.0
216.38412,457.28992,77960082,0.8125,0.12765957,41.671642,1038.6444,-0.00824365,-0.039907455,-0.031633377,0.0,0.0,0.0
218.47104,472.12866,77960099,0.7875,0.07446808,113.10706,888.4135,-0.00824365,-0.039907455,-0.031633377,0.0,0.0,0.0
220.56042,484.9336,77960115,0.725,0.08510638,155.03185,700.33514,-0.00824365,-0.039907455,-0.031633377,0.0,0.0,0.0
220.90594,486.77612,77960125,0.5,0.10638297,154.66013,523.2211,-0.006594926,0.016074032,-0.04130745,0.0,0.0,0.0
220.90594,486.77612,77960129,0.5,0.10638297,154.66013,523.2211,-0.006594926,0.016074032,-0.04130745,0.0,0.0,0.0
202.9118,340.1731,77960437,0.6625,0.11702127,0.0,0.0,-0.006594926,0.016074032,-0.04130745,0.0,0.0,0.0
202.9118,340.1731,77960466,0.75,0.08510638,-0.0139253065,-0.023526145,-0.006594926,0.016074032,-0.04130745,0.0,0.0,0.0
202.9118,340.1731,77960481,0.8,0.07446808,0.0135635855,0.021621501,-0.006594926,0.016074032,-0.04130745,0.0,0.0,0.0
198.50223,319.95605,77960500,0.825,0.08510638,-229.09825,-992.3439,-0.006594926,0.016074032,-0.04130745,0.0,0.0,0.0
199.81018,309.5315,77960516,0.8,0.10638297,-126.982635,-1119.1947,-0.006594926,0.016074032,-0.04130745,0.0,0.0,0.0
203.3855,298.48315,77960533,0.8125,0.12765957,55.088055,-1044.5547,-0.006594926,0.016074032,-0.04130745,0.0,0.0,0.0
208.70404,289.98132,77960550,0.83750004,0.08510638,322.2152,-747.9261,-0.006594926,0.016074032,-0.04130745,0.0,0.0,0.0
216.92224,277.19348,77960566,0.8125,0.08510638,573.6987,-597.7019,-0.006594926,0.016074032,-0.04130745,0.0,0.0,0.0
224.7168,267.17358,77960583,0.8625,0.08510638,621.8296,-672.85913,-0.006594926,0.016074032,-0.04130745,0.0,0.0,0.0
230.88287,261.114,77960600,0.85,0.08510638,564.9995,-550.8059,-0.006594926,0.016074032,-0.04130745,0.0,0.0,0.0
237.22232,260.54333,77960617,0.8625,0.08510638,450.27444,-234.48795,-0.006594926,0.016074032,-0.04130745,0.0,0.0,0.0
244.7745,264.0962,77960633,0.83750004,0.08510638,365.73288,293.52686,-0.006594926,0.016074032,-0.04130745,0.0,0.0,0.0
252.05103,272.375,77960650,0.825,0.09574468,423.92047,616.56024,-0.006594926,0.016074032,-0.04130745,0.0,0.0,0.0
259.98642,281.5232,77960667,0.8125,0.12765957,486.93063,822.6245,0.042724058,-0.01914081,-0.049045563,0.0,0.0,0.0
269.6617,290.79797,77960683,0.8125,0.12765957,535.663,836.7748,0.042724058,-0.01914081,-0.049045563,0.0,0.0,0.0
282.6883,299.18494,77960700,0.8,0.09574468,683.7875,697.4762,0.042724058,-0.01914081,-0.049045563,0.0,0.0,0.0
295.48425,305.23157,77960717,0.8,0.08510638,851.3098,507.8948,0.042724058,-0.01914081,-0.049045563,0.0,0.0,0.0
304.54117,307.2235,77960734,0.77500004,0.09574468,803.0491,227.21027,0.042724058,-0.01914081,-0.049045563,0.0,0.0,0.0
312.94055,307.29846,77960750,0.8,0.08510638,607.5914,-34.101685,0.042724058,-0.01914081,-0.049045563,0.0,0.0,0.0
319.18558,305.4292,77960767,0.8,0.10638297,371.49316,-224.49034,0.042724058,-0.01914081,-0.049045563,0.0,0.0,0.0
326.9652,300.62683,77960784,0.8,0.10638297,299.34567,-364.90454,0.042724058,-0.01914081,-0.049045563,0.0,0.0,0.0
332.10464,295.8529,77960800,0.825,0.10638297,287.31384,-418.4073,0.042724058,-0.01914081,-0.049045563,0.0,0.0,0.0
335.46924,292.37085,77960817,0.825,0.09574468,227.74673,-391.76474,0.042724058,-0.01914081,-0.049045563,0.0,0.0,0.0
337.7717,290.0581,77960834,0.825,0.09574468,130.08142,-289.8206,0.042724058,-0.01914081,-0.049045563,0.0,0.0,0.0
339.85236,288.20886,77960850,0.825,0.09574468,29.699757,-113.308235,0.042724058,-0.01914081,-0.049045563,0.0,0.0,0.0
341.1471,287.75146,77960867,0.825,0.09574468,21.639635,-11.139135,0.042724058,-0.01914081,-0.049045563,0.0,0.0,0.0
342.1821,287.75146,77960884,0.825,0.10638297,17.067188,53.630062,0.042724058,-0.01914081,-0.049045563,0.0,0.0,0.0
343.92868,290.52844,77960901,0.8125,0.10638297,34.075947,129.67542,0.042724058,-0.01914081,-0.049045563,0.0,0.0,0.0
345.7388,298.84167,77960917,0.8,0.09574468,83.16507,357.99548,0.042724058,-0.01914081,-0.049045563,0.0,0.0,0.0
346.78195,313.07874,77960934,0.7875,0.08510638,94.87048,744.05725,0.042724058,-0.01914081,-0.049045563,0.0,0.0,0.0
345.86526,328.38574,77960951,0.8,0.08510638,30.798914,1141.9043,0.042724058,-0.01914081,-0.049045563,0.0,0.0,0.0
344.8429,344.09058,77960967,0.8,0.10638297,-75.82838,1254.393,0.042724058,-0.01914081,-0.049045563,0.0,0.0,0.0
343.8,359.8861,77960984,0.77500004,0.08510638,-129.74432,1169.568,0.042724058,-0.01914081,-0.049045563,0.0,0.0,0.0
342.86624,379.18127,77961001,0.7875,0.08510638,-118.80619,1143.1807,0.042724058,-0.01914081,-0.049045563,0.0,0.0,0.0
340.4037,396.2279,77961018,0.77500004,0.10638297,-113.607796,1105.7058,0.042724058,-0.01914081,-0.049045563,0.0,0.0,0.0
340.15814,415.33862,77961034,0.77500004,0.06382979,-82.57925,1151.6104,0.042724058,-0.01914081,-0.049045563,0.0,0.0,0.0
338.86755,434.41296,77961051,0.77500004,0.08510638,-82.552,1204.3418,0.042724058,-0.01914081,-0.049045563,0.0,0.0,0.0
339.87845,447.30762,77961068,0.7625,0.10638297,-6.9453554,1029.2372,0.042724058,-0.01914081,-0.049045563,0.0,0.0,0.0
342.05063,461.66394,77961084,0.7375,0.09574468,108.10291,849.1925,0.042724058,-0.01914081,-0.049045563,0.0,0.0,0.0
344.69168,472.52124,77961101,0.6625,0.06382979,223.56773,624.4101,0.042724058,-0.01914081,-0.049045563,0.0,0.0,0.0
345.36542,475.2256,77961112,0.2375,0.08510638,222.39786,450.48917,0.042724058,-0.01914081,-0.049045563,0.0,0.0,0.0
345.36542,475.2256,77961119,0.2375,0.08510638,222.39786,450.48917,0.042724058,-0.01914081,-0.049045563,0.0,0.0,0.0
399.34787,405.92236,77961297,0.7375,0.10638297,0.0,0.0,-0.013820767,-0.015312642,-0.023237228,0.0,0.0,0.0
399.34787,405.92236,77961318,0.75,0.10638297,0.024951648,0.02366334,-0.013820767,-0.015312642,-0.023237228,0.0,0.0,0.0
399.34787,405.92236,77961335,0.7625,0.10638297,0.00625841,0.008919459,-0.013820767,-0.015312642,-0.023237228,0.0,0.0,0.0
399.34787,405.92236,77961351,0.77500004,0.09574468,0.0010344406,0.00206179,-0.013820767,-0.015312642,-0.023237228,0.0,0.0,0.0
399.34787,405.92236,77961385,0.7625,0.09574468,-0.0049717245,-0.0052406234,-0.013820767,-0.015312642,-0.023237228,0.0,0.0,0.0
427.0642,420.41467,77961402,0.7625,0.07446808,972.0105,516.7698,-0.013820767,-0.015312642,-0.023237228,0.0,0.0,0.0
440.1948,422.088,77961419,0.7625,0.08510638,1358.8615,551.13403,-0.013820767,-0.015312642,-0.023237228,0.0,0.0,0.0
449.89178,420.8175,77961435,0.7625,0.08510638,1260.2957,293.57602,-0.013820767,-0.015312642,-0.023237228,0.0,0.0,0.0
458.5786,416.58447,77961451,0.7625,0.10638297,490.54285,-354.70203,-0.013820767,-0.015312642,-0.023237228,0.0,0.0,0.0
462.43378,412.312,77961469,0.7625,0.12765957,258.05002,-502.10324,-0.013820767,-0.015312642,-0.023237228,0.0,0.0,0.0
464.0642,408.21057,77961485,0.77500004,0.12765957,54.81342,-431.62778,-0.013820767,-0.015312642,-0.023237228,0.0,0.0,0.0
464.06018,402.72424,77961502,0.77500004,0.10638297,-123.7144,-391.58783,-0.013820767,-0.015312642,-0.023237228,0.0,0.0,0.0
461.34998,396.76758,77961519,0.77500004,0.08510638,-271.62714,-374.0362,-0.013820767,-0.015312642,-0.023237228,0.0,0.0,0.0
452.3297,390.65588,77961536,0.7625,0.08510638,-485.00436,-390.9251,-0.013820767,-0.015312642,-0.023237228,0.0,0.0,0.0
440.49908,387.43628,77961552,0.77500004,0.08510638,-782.9846,-331.91803,-0.013820767,-0.015312642,-0.023237228,0.0,0.0,0.0
427.2286,388.0393,77961569,0.7875,0.09574468,-1008.24945,-117.35568,-0.013820767,-0.015312642,-0.023237228,0.0,0.0,0.0
413.12204,392.48877,77961586,0.7875,0.09574468,-1098.1971,209.74747,-0.013820767,-0.015312642,-0.023237228,0.0,0.0,0.0
400.11798,398.0371,77961602,0.77500004,0.10638297,-983.46014,483.12665,-0.013820767,-0.015312642,-0.023237228,0.0,0.0,0.0
390.25595,405.50366,77961619,0.77500004,0.10638297,-763.56067,617.0445,-0.013820767,-0.015312642,-0.023237228,0.0,0.0,0.0
383.1228,415.21667,77961636,0.77500004,0.07446808,-511.12833,660.22174,-0.013820767,-0.015312642,-0.023237228,0.0,0.0,0.0
378.78046,432.46252,77961653,0.77500004,0.08510638,-243.28249,896.3125,-0.013820767,-0.015312642,-0.023237228,0.0,0.0,0.0
380.71237,444.26196,77961669,0.77500004,0.12765957,69.71918,1033.7133,-0.013820767,-0.015312642,-0.023237228,0.0,0.0,0.0
385.65137,454.04822,77961686,0.7875,0.09574468,369.1309,944.09235,-0.013820767,-0.015312642,-0.023237228,0.0,0.0,0.0
396.9241,466.8518,77961703,0.7625,0.08510638,721.05255,704.344,-0.013820767,-0.015312642,-0.023237228,0.0,0.0,0.0
413.9853,476.9756,77961719,0.7375,0.08510638,1109.4983,549.69055,-0.013820767,-0.015312642,-0.023237228,0.0,0.0,0.0
433.58713,482.04492,77961736,0.7375,0.07446808,1416.2942,451.34894,-0.027056605,0.01974991,-0.034589767,0.0,0.0,0.0
454.411,480.31287,77961753,0.7375,0.06382979,1575.6589,113.49659,-0.027056605,0.01974991,-0.034589767,0.0,0.0,0.0
473.21436,470.79773,77961770,0.71250004,0.09574468,1475.1027,-500.11127,-0.027056605,0.01974991,-0.034589767,0.0,0.0,0.0
496.19202,455.58923,77961786,0.675,0.10638297,1340.71,-1085.3103,-0.027056605,0.01974991,-0.034589767,0.0,0.0,0.0
497.31598,454.79004,77961787,0.4625,0.09574468,1355.1613,-1110.2501,-0.027056605,0.01974991,-0.034589767,0.0,0.0,0.0
497.31598,454.79004,77961795,0.4625,0.09574468,1355.1613,-1110.2501,-0.027056605,0.01974991,-0.034589767,0.0,0.0,0.0
457.8288,269.0929,77961980,0.7625,0.06382979,0.0,0.0,-0.027056605,0.01974991,-0.034589767,0.0,0.0,0.0
457.8288,269.0929,77962003,0.7875,0.08510638,-0.030103669,-0.01794416,-0.027056605,0.01974991,-0.034589767,0.0,0.0,0.0
457.8288,269.0929,77962017,0.8125,0.08510638,-0.029967839,-0.018134777,-0.027056605,0.01974991,-0.034589767,0.0,0.0,0.0
454.50446,293.71472,77962037,0.8,0.09574468,-159.06067,1178.1127,-0.027056605,0.01974991,-0.034589767,0.0,0.0,0.0
455.42834,311.00464,77962054,0.7375,0.06382979,-93.83301,1641.4177,-0.027056605,0.01974991,-0.034589767,0.0,0.0,0.0
456.32928,320.62598,77962060,0.4625,0.08510638,-50.402668,1781.1576,-0.027056605,0.01974991,-0.034589767,0.0,0.0,0.0
456.32928,320.62598,77962068,0.4625,0.08510638,-50.402668,1781.1576,-0.027056605,0.01974991,-0.034589767,0.0,0.0,0.0
483.3205,469.89453,77962447,0.71250004,0.09574468,0.0,0.0,-0.005645275,-0.03220007,0.0043287277,0.0,0.0,0.0
483.3205,469.89453,77962471,0.7375,0.09574468,-0.112058446,-0.10523557,-0.005645275,-0.03220007,0.0043287277,0.0,0.0,0.0
483.3205,469.89453,77962488,0.7625,0.11702127,-0.011109364,-0.008886319,-0.005645275,-0.03220007,0.0043287277,0.0,0.0,0.0
483.3205,469.89453,77962505,0.7625,0.10638297,-9.1921276E-4,8.012919E-4,-0.005645275,-0.03220007,0.0043287277,0.0,0.0,0.0
483.3205,469.89453,77962521,0.77500004,0.10638297,-0.0032007473,-0.003509328,-0.005645275,-0.03220007,0.0043287277,0.0,0.0,0.0
504.5025,461.1089,77962538,0.7625,0.10638297,524.1038,-217.40541,-0.005645275,-0.03220007,0.0043287277,0.0,0.0,0.0
510.56976,456.06702,77962555,0.7875,0.10638297,952.11145,-468.12497,-0.005645275,-0.03220007,0.0043287277,0.0,0.0,0.0
518.2168,446.95764,77962572,0.77500004,0.08510638,980.0135,-664.87933,-0.005645275,-0.03220007,0.0043287277,0.0,0.0,0.0
525.5017,431.68286,77962588,0.77500004,0.09574468,660.82025,-865.5581,-0.005645275,-0.03220007,0.0043287277,0.0,0.0,0.0
530.74945,416.7821,77962605,0.77500004,0.12765957,160.97093,-1056.6702,-0.005645275,-0.03220007,0.0043287277,0.0,0.0,0.0
532.6577,406.3374,77962622,0.7875,0.12765957,30.523968,-989.6927,-0.005645275,-0.03220007,0.0043287277,0.0,0.0,0.0
532.5162,396.20068,77962638,0.7875,0.09574468,-34.56018,-765.0574,-0.005645275,-0.03220007,0.0043287277,0.0,0.0,0.0
530.4721,384.59973,77962655,0.8,0.08510638,-209.79633,-539.58246,-0.005645275,-0.03220007,0.0043287277,0.0,0.0,0.0
526.8916,375.9154,77962672,0.7875,0.08510638,-347.60883,-471.35458,-0.005645275,-0.03220007,0.0043287277,0.0,0.0,0.0
524.78,372.1112,77962689,0.8,0.08510638,-296.06885,-382.73904,-0.005645275,-0.03220007,0.0043287277,0.0,0.0,0.0
522.7532,369.39673,77962705,0.7875,0.08510638,-225.55003,-148.06316,-0.005645275,-0.03220007,0.0043287277,0.0,0.0,0.0
521.20874,367.53992,77962722,0.8,0.08510638,-126.14015,44.972477,-0.005645275,-0.03220007,0.0043287277,0.0,0.0,0.0
520.16077,365.67712,77962739,0.8125,0.08510638,-48.87095,82.94393,-0.005645275,-0.03220007,0.0043287277,0.0,0.0,0.0
520.96014,366.51892,77962755,0.7875,0.08510638,17.55445,63.208096,-0.005645275,-0.03220007,0.0043287277,0.0,0.0,0.0
524.5731,370.99353,77962772,0.77500004,0.09574468,139.72963,167.76733,-0.005645275,-0.03220007,0.0043287277,0.0,0.0,0.0
534.35284,381.32178,77962789,0.77500004,0.08510638,443.29947,513.0009,-0.004516214,-0.025760055,0.0034627914,0.0,0.0,0.0
552.04846,394.90515,77962806,0.7625,0.10638297,964.0233,914.1007,-0.004516214,-0.025760055,0.0034627914,0.0,0.0,0.0
570.54376,406.1731,77962822,0.7625,0.10638297,1410.168,1065.3954,-0.004516214,-0.025760055,0.0034627914,0.0,0.0,0.0
584.9571,415.42273,77962839,0.75,0.09574468,1408.7792,879.9207,-0.004516214,-0.025760055,0.0034627914,0.0,0.0,0.0
600.091,425.54358,77962856,0.75,0.06382979,1139.739,620.9641,-0.004516214,-0.025760055,0.0034627914,0.0,0.0,0.0
610.2479,434.77087,77962872,0.75,0.06382979,745.8568,482.14633,-0.004516214,-0.025760055,0.0034627914,0.0,0.0,0.0
615.2315,440.51257,77962889,0.7375,0.09574468,369.55612,403.0487,-0.004516214,-0.025760055,0.0034627914,0.0,0.0,0.0
617.3287,446.089,77962906,0.75,0.10638297,59.660866,309.13907,-0.004516214,-0.025760055,0.0034627914,0.0,0.0,0.0
616.08234,453.24402,77962923,0.75,0.09574468,-212.94983,283.57648,-0.004516214,-0.025760055,0.0034627914,0.0,0.0,0.0
611.0916,458.06628,77962939,0.7625,0.08510638,-432.03186,269.75818,-0.004516214,-0.025760055,0.0034627914,0.0,0.0,0.0
600.26624,465.64136,77962956,0.7625,0.09574468,-678.3275,357.87097,-0.004516214,-0.025760055,0.0034627914,0.0,0.0,0.0
591.1924,468.9441,77962973,0.7375,0.08510638,-811.33795,326.9869,-0.004516214,-0.025760055,0.0034627914,0.0,0.0,0.0
584.495,471.1659,77962989,0.7625,0.08510638,-732.45667,166.15598,-0.004516214,-0.025760055,0.0034627914,0.0,0.0,0.0
579.2335,471.67163,77963006,0.75,0.08510638,-480.98917,32.11754,-0.004516214,-0.025760055,0.0034627914,0.0,0.0,0.0
574.8833,471.67163,77963023,0.52500004,0.08510638,-230.29883,-105.53991,-0.004516214,-0.025760055,0.0034627914,0.0,0.0,0.0
574.2909,471.67163,77963026,0.175,0.07446808,-211.2813,-111.55516,-0.004516214,-0.025760055,0.0034627914,0.0,0.0,0.0
574.2909,471.67163,77963034,0.175,0.07446808,-211.2813,-111.55516,-0.004516214,-0.025760055,0.0034627914,0.0,0.0,0.0
614.7777,410.36487,77963195,0.7375,0.09574468,0.0,0.0,-0.004516214,-0.025760055,0.0034627914,0.0,0.0,0.0
614.7777,410.36487,77963223,0.7625,0.10638297,0.035170797,0.023224754,-0.004516214,-0.025760055,0.0034627914,0.0,0.0,0.0
614.7777,410.36487,77963240,0.77500004,0.12765957,-0.016387219,-0.0125599075,-0.004516214,-0.025760055,0.0034627914,0.0,0.0,0.0
614.7777,410.36487,77963257,0.7875,0.10638297,-0.016795354,-0.01139107,-0.004516214,-0.025760055,0.0034627914,0.0,0.0,0.0
615.9182,398.87646,77963273,0.7875,0.08510638,27.54778,-277.44598,-0.004516214,-0.025760055,0.0034627914,0.0,0.0,0.0
618.9437,383.7079,77963290,0.7875,0.06382979,114.63505,-844.9163,-0.004516214,-0.025760055,0.0034627914,0.0,0.0,0.0
623.1517,375.04382,77963307,0.7875,0.08510638,249.61258,-1103.9312,-0.004516214,-0.025760055,0.0034627914,0.0,0.0,0.0
631.3903,366.7234,77963324,0.7875,0.11702127,457.475,-883.3966,-0.0036129653,-0.004608065,0.050769806,0.0,0.0,0.0
637.54767,361.30005,77963340,0.77500004,0.11702127,545.49677,-466.85703,-0.0036129653,-0.004608065,0.050769806,0.0,0.0,0.0
645.51624,359.7202,77963357,0.77500004,0.10638297,557.64,-31.374636,-0.0036129653,-0.004608065,0.050769806,0.0,0.0,0.0
654.4201,361.95337,77963374,0.7875,0.08510638,565.087,145.09091,-0.0036129653,-0.004608065,0.050769806,0.0,0.0,0.0
661.48425,370.15588,77963390,0.75,0.06382979,518.924,473.52298,-0.0036129653,-0.004608065,0.050769806,0.0,0.0,0.0
668.3059,384.0171,77963407,0.75,0.09574468,462.09827,872.2274,-0.0036129653,-0.004608065,0.050769806,0.0,0.0,0.0
673.00415,397.90393,77963424,0.7375,0.10638297,348.01877,1145.1317,-0.0036129653,-0.004608065,0.050769806,0.0,0.0,0.0
674.25836,414.64417,77963441,0.7375,0.08510638,139.31708,1232.5361,-0.0036129653,-0.004608065,0.050769806,0.0,0.0,0.0
672.6198,430.33264,77963457,0.725,0.06382979,-96.53722,1189.25,-0.0036129653,-0.004608065,0.050769806,0.0,0.0,0.0
670.16046,440.51294,77963474,0.725,0.09574468,-289.92563,919.99115,-0.0036129653,-0.004608065,0.050769806,0.0,0.0,0.0
667.45294,444.84558,77963491,0.725,0.10638297,-356.62057,471.23874,-0.0036129653,-0.004608065,0.050769806,0.0,0.0,0.0
660.64343,447.58533,77963507,0.7375,0.12765957,-391.7434,41.13086,-0.0036129653,-0.004608065,0.050769806,0.0,0.0,0.0
653.34076,448.57056,77963524,0.7375,0.11702127,-487.5359,-218.12343,-0.0036129653,-0.004608065,0.050769806,0.0,0.0,0.0
649.18286,447.63245,77963541,0.75,0.09574468,-464.60925,-231.27963,-0.0036129653,-0.004608065,0.050769806,0.0,0.0,0.0
647.1269,445.7804,77963558,0.75,0.09574468,-292.0675,-225.71323,-0.0036129653,-0.004608065,0.050769806,0.0,0.0,0.0
646.16235,445.90503,77963574,0.7375,0.09574468,-62.21057,-166.07884,-0.0036129653,-0.004608065,0.050769806,0.0,0.0,0.0
645.5177,445.90503,77963585,0.75,0.09574468,64.03582,-119.835,-0.0036129653,-0.004608065,0.050769806,0.0,0.0,0.0
650.19775,445.90503,77963608,0.7625,0.08510638,218.64845,0.9549931,-0.0036129653,-0.004608065,0.050769806,0.0,0.0,0.0
664.31836,449.3606,77963624,0.75,0.09574468,600.6605,138.73204,-0.0036129653,-0.004608065,0.050769806,0.0,0.0,0.0
679.9485,454.41882,77963641,0.725,0.12765957,1096.3226,280.2742,-0.0036129653,-0.004608065,0.050769806,0.0,0.0,0.0
691.722,459.927,77963658,0.7375,0.11702127,1225.6301,422.8907,-0.0036129653,-0.004608065,0.050769806,0.0,0.0,0.0
705.70844,466.3927,77963675,0.725,0.08510638,1069.546,493.29196,-0.0036129653,-0.004608065,0.050769806,0.0,0.0,0.0
717.06555,471.93164,77963691,0.725,0.06382979,779.5186,450.12128,-0.0036129653,-0.004608065,0.050769806,0.0,0.0,0.0
726.89514,477.44006,77963708,0.71250004,0.06382979,590.1311,372.94586,-0.0036129653,-0.004608065,0.050769806,0.0,0.0,0.0
735.4132,480.48438,77963725,0.675,0.06382979,507.2915,274.80606,-0.0036129653,-0.004608065,0.050769806,0.0,0.0,0.0
737.7377,481.44507,77963733,0.275,0.09574468,433.75012,203.11975,-0.0036129653,-0.004608065,0.050769806,0.0,0.0,0.0
737.7377,481.44507,77963741,0.275,0.09574468,433.75012,203.11975,-0.0036129653,-0.004608065,0.050769806,0.0,0.0,0.0
651.7657,421.9154,77963886,0.7,0.07446808,0.0,0.0,0.013109639,-0.0036864579,-0.03938389,0.0,0.0,0.0
651.7657,421.9154,77963908,0.725,0.08510638,0.0113130445,0.010304467,0.013109639,-0.0036864579,-0.03938389,0.0,0.0,0.0
651.7657,421.9154,77963914,0.7625,0.08510638,-0.038798764,-0.025652263,0.013109639,-0.0036864579,-0.03938389,0.0,0.0,0.0
673.5723,420.11255,77963959,0.7625,0.08510638,861.42865,-71.229904,0.013109639,-0.0036864579,-0.03938389,0.0,0.0,0.0
688.0014,418.26648,77963975,0.7625,0.09574468,1151.5616,-118.29334,0.013109639,-0.0036864579,-0.03938389,0.0,0.0,0.0
704.3624,418.36133,77963992,0.7625,0.08510638,1303.3398,-77.58891,0.013109639,-0.0036864579,-0.03938389,0.0,0.0,0.0
723.34607,417.25366,77964009,0.7375,0.08510638,1369.8181,-54.340298,0.013109639,-0.0036864579,-0.03938389,0.0,0.0,0.0
737.1848,415.4154,77964025,0.675,0.11702127,949.5257,-57.47696,0.013109639,-0.0036864579,-0.03938389,0.0,0.0,0.0
739.2372,414.80737,77964031,0.425,0.11702127,862.61694,-70.61632,0.013109639,-0.0036864579,-0.03938389,0.0,0.0,0.0
739.2372,414.80737,77964038,0.425,0.11702127,862.61694,-70.61632,0.013109639,-0.0036864579,-0.03938389,0.0,0.0,0.0
829.20795,394.37183,77964280,0.65000004,0.08510638,0.0,0.0,0.013109639,-0.0036864579,-0.03938389,0.0,0.0,0.0
829.20795,394.37183,77964309,0.725,0.08510638,0.020598039,0.0109887365,0.013109639,-0.0036864579,-0.03938389,0.0,0.0,0.0
829.20795,394.37183,77964326,0.75,0.07446808,0.07772535,0.03810846,0.013109639,-0.0036864579,-0.03938389,0.0,0.0,0.0
812.21344,388.47742,77964343,0.75,0.08510638,-608.13074,-210.9131,0.013109639,-0.0036864579,-0.03938389,0.0,0.0,0.0
787.2917,386.37524,77964360,0.75,0.08510638,-1576.9646,-346.35876,0.013109639,-0.0036864579,-0.03938389,0.0,0.0,0.0
767.3687,388.8274,77964376,0.75,0.09574468,-1899.5237,-183.4945,0.013109639,-0.0036864579,-0.03938389,0.0,0.0,0.0
748.68604,392.70947,77964393,0.7625,0.09574468,-1815.8425,138.7742,-0.0215123,-0.0029491782,-0.047507286,0.0,0.0,0.0
735.33826,397.30396,77964410,0.7625,0.10638297,-1238.4757,408.83243,-0.0215123,-0.0029491782,-0.047507286,0.0,0.0,0.0
726.9105,403.00098,77964426,0.75,0.10638297,-518.24445,524.4259,-0.0215123,-0.0029491782,-0.047507286,0.0,0.0,0.0
721.3114,413.1848,77964443,0.7625,0.08510638,-201.94302,527.18475,-0.0215123,-0.0029491782,-0.047507286,0.0,0.0,0.0
719.0178,429.57068,77964460,0.75,0.06382979,22.549786,829.909,-0.0215123,-0.0029491782,-0.047507286,0.0,0.0,0.0
724.66254,441.8009,77964477,0.7375,0.09574468,332.22128,1060.5281,-0.0215123,-0.0029491782,-0.047507286,0.0,0.0,0.0
733.7722,450.0968,77964493,0.725,0.12765957,636.97363,908.7376,-0.0215123,-0.0029491782,-0.047507286,0.0,0.0,0.0
746.61304,456.45728,77964510,0.71250004,0.12765957,970.5274,510.48602,-0.0215123,-0.0029491782,-0.047507286,0.0,0.0,0.0
763.69574,457.73926,77964527,0.71250004,0.12765957,1220.1517,51.518494,-0.0215123,-0.0029491782,-0.047507286,0.0,0.0,0.0
780.9865,452.8368,77964543,0.725,0.10638297,1306.4153,-297.73145,-0.0215123,-0.0029491782,-0.047507286,0.0,0.0,0.0
794.3722,444.75513,77964560,0.725,0.08510638,1192.2032,-625.42706,-0.0215123,-0.0029491782,-0.047507286,0.0,0.0,0.0
802.5328,432.90405,77964577,0.7375,0.08510638,811.3065,-933.6675,-0.0215123,-0.0029491782,-0.047507286,0.0,0.0,0.0
809.6839,420.18567,77964594,0.725,0.10638297,387.0309,-1047.8273,-0.0215123,-0.0029491782,-0.047507286,0.0,0.0,0.0
815.90796,407.26453,77964610,0.75,0.10638297,167.17691,-1004.8658,-0.0215123,-0.0029491782,-0.047507286,0.0,0.0,0.0
816.80273,403.82263,77964627,0.75,0.10638297,29.172224,-647.0774,-0.0215123,-0.0029491782,-0.047507286,0.0,0.0,0.0
816.712,401.26892,77964644,0.7625,0.10638297,-92.19388,-215.2441,-0.0215123,-0.0029491782,-0.047507286,0.0,0.0,0.0
816.712,399.42334,77964660,0.75,0.10638297,-167.90451,94.54185,-0.0215123,-0.0029491782,-0.047507286,0.0,0.0,0.0
816.712,398.81433,77964677,0.7625,0.12765957,-180.19632,194.47067,-0.0215123,-0.0029491782,-0.047507286,0.0,0.0,0.0
815.4667,401.90125,77964694,0.75,0.12765957,-75.87949,146.73491,-0.0215123,-0.0029491782,-0.047507286,0.0,0.0,0.0
814.9925,411.67908,77964711,0.75,0.09574468,-69.944,423.59964,-0.0215123,-0.0029491782,-0.047507286,0.0,0.0,0.0
816.51276,427.0786,77964727,0.7375,0.07446808,1.4315544,904.13184,-0.0215123,-0.0029491782,-0.047507286,0.0,0.0,0.0
819.5564,440.60596,77964744,0.7375,0.10638297,132.33678,1198.3453,-0.0215123,-0.0029491782,-0.047507286,0.0,0.0,0.0
826.3997,449.8402,77964761,0.725,0.10638297,331.90292,1029.6544,-0.0215123,-0.0029491782,-0.047507286,0.0,0.0,0.0
837.6465,461.0298,77964777,0.7,0.09574468,633.6768,629.8698,-0.0215123,-0.0029491782,-0.047507286,0.0,0.0,0.0
847.5765,466.29602,77964794,0.6375,0.08510638,851.79553,423.15454,-0.0215123,-0.0029491782,-0.047507286,0.0,0.0,0.0
847.7019,466.34058,77964794,0.375,0.09574468,830.1175,399.47586,-0.0215123,-0.0029491782,-0.047507286,0.0,0.0,0.0
847.7019,466.34058,77964802,0.375,0.09574468,830.1175,399.47586,-0.0215123,-0.0029491782,-0.047507286,0.0,0.0,0.0
773.72595,253.98828,77965003,0.7375,0.08510638,0.0,0.0,-0.0012098551,-0.0023593605,-0.006006241,0.0,0.0,0.0
773.72595,253.98828,77965028,0.7875,0.10638297,0.15701057,0.052360278,-0.0012098551,-0.0023593605,-0.006006241,0.0,0.0,0.0
773.72595,253.98828,77965045,0.8,0.08510638,0.019900039,0.0063233958,-0.0012098551,-0.0023593605,-0.006006241,0.0,0.0,0.0
773.72595,271.98816,77965061,0.77500004,0.08510638,0.054482985,919.7829,-0.0012098551,-0.0023593605,-0.006006241,3.355443E-6,0.0,0.0
774.37024,286.50745,77965078,0.77500004,0.12765957,23.657297,1325.583,-0.0012098551,-0.0023593605,-0.006006241,3.355443E-6,0.0,0.0
776.10126,305.3086,77965095,0.7375,0.08510638,75.07264,1509.9518,-0.0012098551,-0.0023593605,-0.006006241,3.355443E-6,0.0,0.0
776.725,319.73755,77965108,0.55,0.08510638,104.406784,1578.4584,-0.0012098551,-0.0023593605,-0.006006241,3.355443E-6,0.0,0.0
776.725,319.73755,77965115,0.55,0.08510638,104.406784,1578.4584,-0.0012098551,-0.0023593605,-0.006006241,3.355443E-6,0.0,0.0
838.70483,460.1211,77965431,0.675,0.10638297,0.0,0.0,-0.0012098551,-0.0023593605,-0.006006241,0.0,0.0,0.0
838.70483,460.1211,77965462,0.71250004,0.10638297,0.0481582,0.024277097,0.047032118,-0.041887462,0.04319477,0.0,0.0,0.0
838.70483,460.1211,77965479,0.71250004,0.12765957,0.029312365,0.015577964,0.047032118,-0.041887462,0.04319477,0.0,0.0,0.0
858.36584,455.39807,77965496,0.725,0.11702127,929.8873,-223.38966,0.047032118,-0.041887462,0.04319477,0.0,0.0,0.0
870.33295,449.79578,77965513,0.7375,0.08510638,1154.3362,-373.57288,0.047032118,-0.041887462,0.04319477,0.0,0.0,0.0
879.2632,443.28162,77965529,0.725,0.06382979,1053.2407,-467.43137,0.047032118,-0.041887462,0.04319477,0.0,0.0,0.0
887.65485,435.7174,77965546,0.725,0.06382979,801.3241,-558.911,0.047032118,-0.041887462,0.04319477,0.0,0.0,0.0
893.05554,426.5918,77965563,0.7375,0.08510638,385.0334,-603.61084,0.047032118,-0.041887462,0.04319477,0.0,0.0,0.0
898.7039,412.5282,77965579,0.725,0.12765957,229.26875,-756.16437,0.047032118,-0.041887462,0.04319477,0.0,0.0,0.0
899.685,402.48987,77965596,0.725,0.08510638,112.26391,-840.7704,0.047032118,-0.041887462,0.04319477,0.0,0.0,0.0
897.84753,392.2882,77965613,0.75,0.07446808,-101.119736,-765.96594,0.047032118,-0.041887462,0.04319477,0.0,0.0,0.0
893.6749,384.3601,77965630,0.7375,0.06382979,-334.74734,-593.6547,0.047032118,-0.041887462,0.04319477,0.0,0.0,0.0
887.6969,377.94165,77965646,0.7375,0.07446808,-509.74026,-370.4567,0.047032118,-0.041887462,0.04319477,0.0,0.0,0.0
881.04144,373.28125,77965663,0.75,0.08510638,-561.05304,-209.83041,0.047032118,-0.041887462,0.04319477,0.0,0.0,0.0
877.7021,371.2766,77965680,0.75,0.09574468,-455.81335,-112.97279,0.047032118,-0.041887462,0.04319477,0.0,0.0,0.0
876.15924,369.43433,77965696,0.7375,0.08510638,-218.81598,-2.459937,0.047032118,-0.041887462,0.04319477,0.0,0.0,0.0
875.6928,369.49365,77965713,0.75,0.08510638,-17.267986,59.554714,0.047032118,-0.041887462,0.04319477,0.0,0.0,0.0
878.64886,369.49365,77965730,0.725,0.06382979,185.20013,95.46574,0.047032118,-0.041887462,0.04319477,0.0,0.0,0.0
889.809,370.3822,77965747,0.725,0.06382979,518.12177,109.86911,0.047032118,-0.041887462,0.04319477,0.0,0.0,0.0
902.33215,372.5061,77965763,0.7375,0.07446808,854.185,134.34818,0.047032118,-0.041887462,0.04319477,0.0,0.0,0.0
912.73376,376.5381,77965780,0.725,0.08510638,1004.81165,217.7384,0.047032118,-0.041887462,0.04319477,0.0,0.0,0.0
921.5327,380.20898,77965797,0.7375,0.08510638,823.4001,288.48468,0.047032118,-0.041887462,0.04319477,0.0,0.0,0.0
927.92267,383.92908,77965813,0.75,0.08510638,483.63495,302.64392,0.047032118,-0.041887462,0.04319477,0.0,0.0,0.0
932.1686,387.55298,77965830,0.7375,0.09574468,222.4481,269.69952,0.047032118,-0.041887462,0.04319477,0.0,0.0,0.0
933.9017,391.62744,77965847,0.75,0.10638297,48.31266,218.79814,0.047032118,-0.041887462,0.04319477,0.0,0.0,0.0
935.1734,399.16296,77965864,0.7625,0.12765957,-53.654358,330.82214,0.047032118,-0.041887462,0.04319477,3.355443E-6,0.0,0.0
934.2399,409.18225,77965880,0.75,0.08510638,-115.22055,543.609,0.047032118,-0.041887462,0.04319477,3.355443E-6,0.0,0.0
931.6513,421.1233,77965897,0.725,0.07446808,-199.458,763.5257,0.047032118,-0.041887462,0.04319477,3.355443E-6,0.0,0.0
929.11176,433.8617,77965914,0.725,0.08510638,-255.33223,895.69763,0.047032118,-0.041887462,0.04319477,3.355443E-6,0.0,0.0
927.0004,440.15356,77965930,0.725,0.11702127,-244.50206,731.00916,0.047032118,-0.041887462,0.04319477,0.0,0.0,0.0
924.90796,448.87634,77965947,0.725,0.12765957,-186.86928,520.014,0.047032118,-0.041887462,0.04319477,0.0,0.0,0.0
923.9936,456.09412,77965964,0.71250004,0.11702127,-95.99229,366.11005,0.047032118,-0.041887462,0.04319477,0.0,0.0,0.0
925.08057,462.44495,77965981,0.7,0.08510638,8.084982,302.8352,0.047032118,-0.041887462,0.04319477,0.0,0.0,0.0
927.81433,467.14978,77965997,0.7,0.08510638,144.65172,328.69006,0.005625695,0.022490025,0.0025558472,0.0,0.0,0.0
934.80414,470.39685,77966014,0.58750004,0.08510638,379.95203,207.59285,0.005625695,0.022490025,0.0025558472,0.0,0.0,0.0
935.6733,470.78308,77966017,0.275,0.09574468,408.07443,181.87021,0.005625695,0.022490025,0.0025558472,0.0,0.0,0.0
935.6733,470.78308,77966025,0.275,0.09574468,408.07443,181.87021,0.005625695,0.022490025,0.0025558472,0.0,0.0,0.0
998.6527,409.47632,77966155,0.6875,0.10638297,0.0,0.0,0.005625695,0.022490025,0.0025558472,0.0,0.0,0.0
998.6527,409.47632,77966181,0.725,0.12765957,-0.023985477,-0.0083033135,0.005625695,0.022490025,0.0025558472,0.0,0.0,0.0
998.6527,409.47632,77966198,0.725,0.12765957,0.105728835,0.043307506,0.005625695,0.022490025,0.0025558472,0.0,0.0,0.0
998.6527,409.47632,77966214,0.725,0.12765957,-0.0018364072,0.0023807567,0.005625695,0.022490025,0.0025558472,0.0,0.0,0.0
998.6527,409.47632,77966231,0.7375,0.11702127,0.058692914,0.024500446,0.005625695,0.022490025,0.0025558472,0.0,0.0,0.0
998.6527,409.47632,77966248,0.7375,0.09574468,0.05574602,0.022769306,0.005625695,0.022490025,0.0025558472,0.0,0.0,0.0
981.4265,427.52112,77966265,0.725,0.08510638,-476.39212,493.82712,0.005625695,0.022490025,0.0025558472,0.0,0.0,0.0
973.60693,440.51135,77966281,0.725,0.11702127,-871.6165,1029.441,0.005625695,0.022490025,0.0025558472,0.0,0.0,0.0
972.1614,449.08618,77966298,0.71250004,0.12765957,-745.2445,1139.858,0.005625695,0.022490025,0.0025558472,0.0,0.0,0.0
974.13184,456.4983,77966315,0.7,0.11702127,-192.83076,818.4139,0.005625695,0.022490025,0.0025558472,0.0,0.0,0.0
977.81665,461.17712,77966331,0.71250004,0.08510638,416.67044,282.30487,0.005625695,0.022490025,0.0025558472,0.0,0.0,0.0
987.9773,463.80774,77966348,0.71250004,0.09574468,760.0193,8.557703,0.005625695,0.022490025,0.0025558472,0.0,0.0,0.0
998.131,462.59338,77966365,0.71250004,0.12765957,827.89825,-90.409615,0.005625695,0.022490025,0.0025558472,0.0,0.0,0.0
1009.7363,457.5747,77966382,0.71250004,0.12765957,894.0736,-307.6748,0.005625695,0.022490025,0.0025558472,0.0,0.0,0.0
1016.9442,450.47778,77966398,0.725,0.09574468,773.8971,-534.82574,0.005625695,0.022490025,0.0025558472,0.0,0.0,0.0
1023.93494,438.37415,77966415,0.71250004,0.08510638,459.48712,-771.7798,0.005625695,0.022490025,0.0025558472,0.0,0.0,0.0
1028.9352,424.43066,77966432,0.725,0.09574468,279.04355,-995.82837,0.005625695,0.022490025,0.0025558472,0.0,0.0,0.0
1030.1425,414.74048,77966448,0.71250004,0.12765957,93.0043,-955.1561,0.005625695,0.022490025,0.0025558472,0.0,0.0,0.0
1028.4657,406.18066,77966465,0.7375,0.12765957,-116.12271,-726.463,0.005625695,0.022490025,0.0025558472,0.0,0.0,0.0
1025.1068,398.74805,77966482,0.725,0.09574468,-319.36115,-432.11975,0.005625695,0.022490025,0.0025558472,0.0,0.0,0.0
1021.04395,393.01965,77966499,0.7375,0.08510638,-420.82996,-248.54614,0.005625695,0.022490025,0.0025558472,0.0,0.0,0.0
1012.07983,385.7655,77966515,0.75,0.07446808,-502.8406,-285.81223,0.005625695,0.022490025,0.0025558472,0.0,0.0,0.0
1001.1455,381.042,77966532,0.725,0.07446808,-700.25195,-295.78574,0.004500553,0.033992022,0.05004406,0.0,0.0,0.0
991.84875,380.15576,77966549,0.7375,0.07446808,-784.4928,-158.24191,0.004500553,0.033992022,0.05004406,0.0,0.0,0.0
984.1582,381.19226,77966565,0.7375,0.09574468,-693.9568,51.48307,0.004500553,0.033992022,0.05004406,0.0,0.0,0.0
981.286,383.04187,77966582,0.7375,0.09574468,-379.12897,235.35454,0.004500553,0.033992022,0.05004406,0.0,0.0,0.0
978.34644,387.20947,77966599,0.725,0.11702127,-83.651825,349.97357,0.004500553,0.033992022,0.05004406,0.0,0.0,0.0
978.0559,394.35608,77966615,0.725,0.12765957,65.95902,440.47617,0.004500553,0.033992022,0.05004406,0.0,0.0,0.0
981.37085,402.74597,77966632,0.725,0.10638297,205.92146,587.0851,0.004500553,0.033992022,0.05004406,0.0,0.0,0.0
988.5127,410.1847,77966649,0.725,0.08510638,396.15958,622.55994,0.004500553,0.033992022,0.05004406,0.0,0.0,0.0
1000.3157,417.38232,77966666,0.725,0.08510638,753.10425,568.4858,0.004500553,0.033992022,0.05004406,0.0,0.0,0.0
1013.2897,419.8844,77966682,0.7375,0.08510638,988.2182,328.76694,0.004500553,0.033992022,0.05004406,0.0,0.0,0.0
1027.9938,419.4331,77966699,0.725,0.09574468,1072.8588,31.830439,0.004500553,0.033992022,0.05004406,0.0,0.0,0.0
1042.7694,415.1637,77966716,0.7375,0.08510638,1080.5719,-268.22205,0.004500553,0.033992022,0.05004406,0.0,0.0,0.0
1057.237,407.95105,77966732,0.725,0.12765957,984.023,-550.0189,0.004500553,0.033992022,0.05004406,0.0,0.0,0.0
1067.7545,400.49316,77966749,0.725,0.11702127,817.76385,-661.5577,0.004500553,0.033992022,0.05004406,0.0,0.0,0.0
1075.4922,391.151,77966766,0.725,0.08510638,546.4235,-692.5201,0.004500553,0.033992022,0.05004406,0.0,0.0,0.0
1083.193,381.09204,77966783,0.75,0.08510638,349.77487,-710.9801,0.004500553,0.033992022,0.05004406,0.0,0.0,0.0
1087.63,373.92517,77966799,0.7375,0.08510638,200.16043,-613.6338,0.004500553,0.033992022,0.05004406,0.0,0.0,0.0
1090.464,367.69568,77966816,0.725,0.10638297,92.55373,-470.39096,0.004500553,0.033992022,0.05004406,0.0,0.0,0.0
1094.426,360.9563,77966833,0.75,0.12765957,77.36749,-355.12732,0.004500553,0.033992022,0.05004406,0.0,0.0,0.0
1097.1162,353.51636,77966849,0.77500004,0.12765957,80.96077,-316.99887,0.004500553,0.033992022,0.05004406,0.0,0.0,0.0
1098.6202,347.5315,77966866,0.7625,0.10638297,106.364235,-393.47083,0.004500553,0.033992022,0.05004406,0.0,0.0,0.0
1098.6202,343.4702,77966883,0.7375,0.08510638,33.09988,-336.1907,0.004500553,0.033992022,0.05004406,0.0,0.0,0.0
1097.7532,340.40894,77966900,0.7625,0.08510638,-76.76189,-205.31914,0.004500553,0.033992022,0.05004406,0.0,0.0,0.0
1096.7208,338.57385,77966916,0.7625,0.08510638,-145.54031,-54.720398,0.004500553,0.033992022,0.05004406,0.0,0.0,0.0
1095.6917,337.50757,77966933,0.7625,0.08510638,-144.58186,16.616358,0.004500553,0.033992022,0.05004406,0.0,0.0,0.0
1094.635,337.50757,77966950,0.75,0.10638297,-102.4117,42.121353,0.004500553,0.033992022,0.05004406,0.0,0.0,0.0
1094.1217,337.50757,77966966,0.7625,0.12765957,-61.798733,61.564396,0.004500553,0.033992022,0.05004406,0.0,0.0,0.0
1095.2476,340.39758,77966983,0.75,0.12765957,12.379575,133.71626,0.004500553,0.033992022,0.05004406,0.0,0.0,0.0
1098.4437,344.99878,77967000,0.75,0.09574468,143.4728,268.22217,0.004500553,0.033992022,0.05004406,0.0,0.0,0.0
1103.9435,352.9453,77967017,0.75,0.08510638,311.75043,442.75104,0.004500553,0.033992022,0.05004406,0.0,0.0,0.0
1113.6232,370.7207,77967033,0.7375,0.06382979,534.6911,826.23737,0.004500553,0.033992022,0.05004406,0.0,0.0,0.0
1118.4293,378.05103,77967050,0.7375,0.08510638,574.7055,954.02814,0.004500553,0.033992022,0.05004406,0.0,0.0,0.0
1124.6741,388.26306,77967067,0.7375,0.12765957,495.52402,853.30475,0.0036004484,-0.028806403,-0.05596447,0.0,0.0,0.0
1131.1199,398.83264,77967083,0.725,0.11702127,404.26782,683.4772,0.0036004484,-0.028806403,-0.05596447,0.0,0.0,0.0
1136.9414,410.958,77967100,0.71250004,0.09574468,322.11768,557.3425,0.0036004484,-0.028806403,-0.05596447,0.0,0.0,0.0
1141.7338,424.14575,77967117,0.71250004,0.08510638,316.22485,736.1613,0.0036004484,-0.028806403,-0.05596447,0.0,0.0,0.0
1143.017,433.7234,77967134,0.725,0.09574468,174.7739,761.4003,0.0036004484,-0.028806403,-0.05596447,0.0,0.0,0.0
1142.1514,439.4441,77967150,0.725,0.09574468,-31.006182,545.68726,0.0036004484,-0.028806403,-0.05596447,0.0,0.0,0.0
1139.6124,442.34766,77967167,0.725,0.11702127,-225.94806,216.43176,0.0036004484,-0.028806403,-0.05596447,0.0,0.0,0.0
1131.2125,447.9386,77967184,0.7375,0.12765957,-466.16565,39.49858,0.0036004484,-0.028806403,-0.05596447,0.0,0.0,0.0
1114.8827,454.28784,77967200,0.7375,0.12765957,-861.26733,175.02094,0.0036004484,-0.028806403,-0.05596447,0.0,0.0,0.0
1101.7993,458.8131,77967217,0.725,0.12765957,-1134.981,294.75937,0.0036004484,-0.028806403,-0.05596447,0.0,0.0,0.0
1092.2024,461.32495,77967234,0.725,0.11702127,-1061.0027,275.43942,0.0036004484,-0.028806403,-0.05596447,0.0,0.0,0.0
1088.1237,462.7865,77967247,0.25,0.12765957,-785.03656,178.78894,0.0036004484,-0.028806403,-0.05596447,0.0,0.0,0.0
1088.1237,462.7865,77967255,0.25,0.12765957,-785.03656,178.78894,0.0036004484,-0.028806403,-0.05596447,0.0,0.0,0.0
