x,y,timestamp,pressure,fingerarea,velocityx,velocityy,accelx,accely,accelz,gyrox,gyroy,gyroz
179.41945,268.20435,12846358,0.6875,0.053191487,0.0,0.0,0.029893175,0.016870737,0.0035276413,0.0,0.0,0.0
179.41945,268.20435,12846379,0.725,0.06382979,-0.003454025,-0.0019860056,0.029893175,0.016870737,0.0035276413,0.0,0.0,0.0
179.41945,268.20435,12846396,0.7625,0.08510638,0.012332484,0.0186329,0.029893175,0.016870737,0.0035276413,0.0,0.0,0.0
179.41945,268.20435,12846410,0.77500004,0.08510638,0.0028949657,0.003493237,0.029893175,0.016870737,0.0035276413,0.0,0.0,0.0
179.41945,268.20435,12846429,0.7875,0.08510638,-0.007487917,-0.011352019,0.029893175,0.016870737,0.0035276413,0.0,0.0,0.0
176.4316,290.33752,12846446,0.8,0.10638297,-88.37849,658.1876,0.029893175,0.016870737,0.0035276413,0.0,0.0,0.0
176.42043,301.43457,12846463,0.8125,0.08510638,-106.82761,1147.2052,0.029893175,0.016870737,0.0035276413,0.0,0.0,0.0
176.99605,316.37256,12846480,0.8,0.08510638,-44.603115,1252.204,0.029893175,0.016870737,0.0035276413,0.0,0.0,0.0
176.92027,329.15015,12846496,0.8125,0.09574468,17.650057,1117.545,0.029893175,0.016870737,0.0035276413,0.0,0.0,0.0
176.92027,342.58264,12846513,0.825,0.10638297,65.964264,699.5938,0.029893175,0.016870737,0.0035276413,0.0,0.0,0.0
176.92027,358.97742,12846530,0.825,0.08510638,37.041843,789.9834,0.029893175,0.016870737,0.0035276413,0.0,0.0,0.0
176.42043,378.48535,12846546,0.825,0.08510638,-23.939163,1105.8152,0.007914539,-0.018503398,-0.013177872,0.0,0.0,0.0
175.9206,394.6648,12846563,0.8125,0.10638297,-39.124256,1197.5178,0.007914539,-0.018503398,-0.013177872,0.0,0.0,0.0
175.9206,412.32544,12846580,0.8125,0.08510638,-30.744154,1163.1798,0.007914539,-0.018503398,-0.013177872,0.0,0.0,0.0
175.77289,430.47693,12846597,0.7875,0.08510638,-19.146643,1079.7137,0.007914539,-0.018503398,-0.013177872,0.0,0.0,0.0
175.9206,443.62292,12846613,0.77500004,0.09574468,9.812804,915.93506,0.007914539,-0.018503398,-0.013177872,0.0,0.0,0.0
176.3517,455.83398,12846630,0.75,0.10638297,26.389656,771.56213,0.007914539,-0.018503398,-0.013177872,0.0,0.0,0.0
176.92027,466.18933,12846647,0.675,0.08510638,44.239624,587.915,0.007914539,-0.018503398,-0.013177872,0.0,0.0,0.0
176.92027,468.11755,12846655,0.1875,0.07446808,40.964104,438.31238,0.007914539,-0.018503398,-0.013177872,0.0,0.0,0.0
176.92027,468.11755,12846662,0.1875,0.07446808,40.964104,438.31238,0.007914539,-0.018503398,-0.013177872,0.0,0.0,0.0
132.93459,301.07898,12846962,0.6375,0.10638297,0.0,0.0,0.007914539,-0.018503398,-0.013177872,0.0,0.0,0.0
132.93459,301.07898,12846981,0.6875,0.10638297,-0.0028249382,-0.010333622,0.007914539,-0.018503398,-0.013177872,0.0,0.0,0.0
135.2139,292.16528,12846998,0.725,0.09574468,158.20479,-618.6566,0.007914539,-0.018503398,-0.013177872,0.0,0.0,0.0
142.80821,266.10535,12847014,0.7875,0.08510638,550.35834,-1978.5486,0.007914539,-0.018503398,-0.013177872,0.0,0.0,0.0
149.78305,250.14478,12847031,0.8,0.12765957,621.9565,-1800.5815,0.007914539,-0.018503398,-0.013177872,0.0,0.0,0.0
155.01678,241.1206,12847048,0.8125,0.10638297,552.3352,-1294.273,0.007914539,-0.018503398,-0.013177872,0.0,0.0,0.0
162.50932,232.58923,12847064,0.83750004,0.08510638,452.736,-522.05927,0.007914539,-0.018503398,-0.013177872,0.0,0.0,0.0
169.87955,229.24805,12847081,0.83750004,0.08510638,419.44302,-0.6600969,0.05433163,0.13719726,0.069457054,0.0,0.0,0.0
178.63814,229.93616,12847098,0.83750004,0.09574468,495.2475,159.38011,0.05433163,0.13719726,0.069457054,0.0,0.0,0.0
186.46704,235.37402,12847115,0.825,0.12765957,541.6203,385.80322,0.05433163,0.13719726,0.069457054,0.0,0.0,0.0
197.61154,257.25378,12847131,0.83750004,0.09574468,592.95905,990.1144,0.05433163,0.13719726,0.069457054,0.0,0.0,0.0
204.86087,277.39966,12847148,0.8,0.11702127,586.3204,1612.5486,0.05433163,0.13719726,0.069457054,0.0,0.0,0.0
210.38431,288.16223,12847165,0.7875,0.10638297,467.86526,1566.2317,0.05433163,0.13719726,0.069457054,0.0,0.0,0.0
221.4013,300.07642,12847181,0.8,0.08510638,450.2902,1123.4895,0.05433163,0.13719726,0.069457054,0.0,0.0,0.0
238.10184,307.65405,12847198,0.77500004,0.08510638,711.69507,544.54913,0.05433163,0.13719726,0.069457054,0.0,0.0,0.0
252.29764,306.43896,12847215,0.77500004,0.11702127,1041.4265,-89.68118,0.05433163,0.13719726,0.069457054,0.0,0.0,0.0
267.06964,298.95032,12847231,0.7875,0.12765957,1146.062,-417.56842,0.05433163,0.13719726,0.069457054,0.0,0.0,0.0
281.5985,285.81055,12847248,0.8,0.08510638,994.0827,-967.9746,0.05433163,0.13719726,0.069457054,0.0,0.0,0.0
291.75958,270.20044,12847265,0.8,0.08510638,738.0722,-1328.8187,0.05433163,0.13719726,0.069457054,0.0,0.0,0.0
301.76736,249.92651,12847282,0.7875,0.12765957,583.7202,-1476.8182,0.05433163,0.13719726,0.069457054,0.0,0.0,0.0
304.75604,240.20789,12847298,0.825,0.10638297,310.33295,-1239.9786,0.05433163,0.13719726,0.069457054,0.0,0.0,0.0
304.8786,234.51343,12847315,0.825,0.08510638,-51.107677,-686.6096,0.05433163,0.13719726,0.069457054,0.0,0.0,0.0
304.8786,231.74316,12847332,0.83750004,0.10638297,-233.71252,-95.603035,0.05433163,0.13719726,0.069457054,0.0,0.0,0.0
304.32126,230.8872,12847348,0.8125,0.10638297,-257.0159,226.07027,0.05433163,0.13719726,0.069457054,0.0,0.0,0.0
302.06924,233.92029,12847365,0.825,0.12765957,-222.58998,346.6413,0.05433163,0.13719726,0.069457054,0.0,0.0,0.0
296.777,248.13904,12847382,0.825,0.08510638,-270.55225,648.2187,0.05433163,0.13719726,0.069457054,0.0,0.0,0.0
290.1344,273.90173,12847399,0.825,0.09574468,-413.1558,1338.1316,0.05433163,0.13719726,0.069457054,0.0,0.0,0.0
287.73834,292.7246,12847415,0.825,0.10638297,-410.4346,1747.8153,0.05433163,0.13719726,0.069457054,0.0,0.0,0.0
286.38464,319.87805,12847432,0.8,0.08510638,-215.60678,1932.7983,0.05433163,0.13719726,0.069457054,0.0,0.0,0.0
286.0889,346.28162,12847449,0.7875,0.10638297,15.768099,1857.1726,0.05433163,0.13719726,0.069457054,0.0,0.0,0.0
285.8848,377.0995,12847465,0.77500004,0.08510638,103.78672,1860.2656,0.05433163,0.13719726,0.069457054,0.0,0.0,0.0
286.25806,407.65356,12847482,0.77500004,0.10638297,93.06441,1989.843,0.05433163,0.13719726,0.069457054,0.0,0.0,0.0
286.7928,435.95276,12847499,0.75,0.08510638,72.82736,1912.6486,0.05433163,0.13719726,0.069457054,0.0,0.0,0.0
287.83615,457.49072,12847516,0.75,0.10638297,67.73514,1615.4958,0.05433163,0.13719726,0.069457054,0.0,0.0,0.0
290.86725,475.15002,12847532,0.7375,0.06382979,136.2874,1158.3556,0.05433163,0.13719726,0.069457054,0.0,0.0,0.0
294.52084,488.0348,12847549,0.6875,0.08510638,226.0236,672.65265,0.05433163,0.13719726,0.069457054,0.0,0.0,0.0
295.88153,489.44165,12847557,0.55,0.10638297,254.6818,464.4367,0.05433163,0.13719726,0.069457054,0.0,0.0,0.0
295.88153,489.44165,12847564,0.55,0.10638297,254.6818,464.4367,0.05433163,0.13719726,0.069457054,0.0,0.0,0.0
361.36023,362.38574,12847717,0.7625,0.08510638,0.0,0.0,0.011465304,-0.058242194,-0.040433884,0.0,0.0,0.0
361.36023,362.38574,12847749,0.8,0.10638297,0.0040436834,0.0028908427,0.011465304,-0.058242194,-0.040433884,0.0,0.0,0.0
361.36023,362.38574,12847766,0.8,0.08510638,0.01663885,0.018021066,0.011465304,-0.058242194,-0.040433884,0.0,0.0,0.0
361.36023,362.38574,12847800,0.8,0.09574468,-0.01938813,-0.01949454,0.011465304,-0.058242194,-0.040433884,0.0,0.0,0.0
369.1531,381.56934,12847816,0.7875,0.10638297,242.82458,605.05914,0.011465304,-0.058242194,-0.040433884,0.0,0.0,0.0
377.62216,387.99634,12847833,0.7875,0.09574468,499.40622,840.59863,0.011465304,-0.058242194,-0.040433884,0.0,0.0,0.0
390.37656,390.81775,12847850,0.7875,0.09574468,823.26917,575.0753,0.011465304,-0.058242194,-0.040433884,0.0,0.0,0.0
402.06018,388.37207,12847867,0.8,0.08510638,880.9512,-325.8225,0.011465304,-0.058242194,-0.040433884,0.0,0.0,0.0
410.67062,381.3474,12847883,0.7875,0.08510638,804.6339,-612.3521,0.011465304,-0.058242194,-0.040433884,0.0,0.0,0.0
415.42368,374.0404,12847900,0.7625,0.09574468,526.7143,-676.4141,0.011465304,-0.058242194,-0.040433884,0.0,0.0,0.0
417.64163,367.54004,12847917,0.7875,0.11702127,107.08489,-697.9979,0.011465304,-0.058242194,-0.040433884,0.0,0.0,0.0
416.95352,361.79407,12847933,0.7875,0.12765957,-148.44308,-538.2356,0.011465304,-0.058242194,-0.040433884,0.0,0.0,0.0
408.4655,358.8495,12847950,0.7875,0.10638297,-415.83807,-305.06827,0.011465304,-0.058242194,-0.040433884,0.0,0.0,0.0
388.70773,361.61755,12847967,0.77500004,0.08510638,-1023.40283,26.68479,0.011465304,-0.058242194,-0.040433884,0.0,0.0,0.0
369.9974,371.1454,12847983,0.77500004,0.08510638,-1483.7556,460.48532,0.011465304,-0.058242194,-0.040433884,0.0,0.0,0.0
349.65955,382.21948,12848000,0.8,0.08510638,-1665.0812,848.37286,0.011465304,-0.058242194,-0.040433884,0.0,0.0,0.0
335.32056,391.14258,12848017,0.8,0.12765957,-1422.4983,965.7041,0.011465304,-0.058242194,-0.040433884,0.0,0.0,0.0
328.86987,398.81592,12848034,0.8125,0.12765957,-791.777,771.8754,0.011465304,-0.058242194,-0.040433884,0.0,0.0,0.0
322.7002,416.43286,12848050,0.8125,0.09574468,-226.30177,726.7602,0.011465304,-0.058242194,-0.040433884,0.0,0.0,0.0
322.661,436.77917,12848067,0.7875,0.08510638,131.23647,1130.5227,0.011465304,-0.058242194,-0.040433884,0.0,0.0,0.0
327.58633,450.72974,12848084,0.7875,0.12765957,423.84412,1327.593,0.011465304,-0.058242194,-0.040433884,0.0,0.0,0.0
338.14743,462.59082,12848100,0.7625,0.08510638,690.5268,1055.6802,0.011465304,-0.058242194,-0.040433884,0.0,0.0,0.0
356.76978,469.688,12848117,0.75,0.08510638,1180.7795,535.85345,0.011465304,-0.058242194,-0.040433884,0.0,0.0,0.0
380.11383,461.49915,12848134,0.71250004,0.09574468,1573.4025,-164.22026,0.011465304,-0.058242194,-0.040433884,0.0,0.0,0.0
400.84738,446.79346,12848144,0.2875,0.08510638,1878.9136,-728.2172,-0.0068277605,-0.06259376,-0.032346725,0.0,0.0,0.0
400.84738,446.79346,12848150,0.2875,0.08510638,1878.9136,-728.2172,-0.0068277605,-0.06259376,-0.032346725,0.0,0.0,0.0
416.34232,197.12402,12848393,0.8,0.12765957,0.0,0.0,-0.0068277605,-0.06259376,-0.032346725,0.0,0.0,0.0
416.34232,197.12402,12848418,0.825,0.12765957,0.053198516,0.024427896,-0.0068277605,-0.06259376,-0.032346725,0.0,0.0,0.0
416.34232,197.12402,12848435,0.85,0.10638297,-0.009992974,-0.0049847937,-0.0068277605,-0.06259376,-0.032346725,0.0,0.0,0.0
403.99188,228.76538,12848451,0.8125,0.10638297,-702.3658,1810.729,-0.0068277605,-0.06259376,-0.032346725,0.0,0.0,0.0
399.94263,255.47266,12848468,0.7625,0.08510638,-629.01996,2219.1206,-0.0068277605,-0.06259376,-0.032346725,0.0,0.0,0.0
398.84802,265.53882,12848481,0.175,0.07446808,-481.10577,2119.2334,-0.0068277605,-0.06259376,-0.032346725,0.0,0.0,0.0
398.84802,265.53882,12848488,0.175,0.07446808,-481.10577,2119.2334,-0.0068277605,-0.06259376,-0.032346725,0.0,0.0,0.0
411.84378,463.67505,12848795,0.6625,0.10638297,0.0,0.0,0.010537788,-0.0020750165,0.054122925,0.0,0.0,0.0
411.84378,463.67505,12848819,0.6875,0.10638297,0.010673429,0.009265713,0.010537788,-0.0020750165,0.054122925,0.0,0.0,0.0
411.84378,463.67505,12848836,0.7375,0.12765957,0.01089083,0.013064944,0.010537788,-0.0020750165,0.054122925,0.0,0.0,0.0
411.84378,463.67505,12848852,0.75,0.12765957,0.024635827,0.025797084,0.010537788,-0.0020750165,0.054122925,0.0,0.0,0.0
411.84378,463.67505,12848864,0.7625,0.12765957,0.019783663,0.022051694,0.010537788,-0.0020750165,0.054122925,0.0,0.0,0.0
411.84378,463.67505,12848886,0.77500004,0.09574468,-0.0034907055,-0.005248429,0.010537788,-0.0020750165,0.054122925,0.0,0.0,0.0
427.20633,433.00708,12848903,0.77500004,0.08510638,486.15347,-956.26764,0.010537788,-0.0020750165,0.054122925,0.0,0.0,0.0
432.22333,420.8568,12848919,0.7875,0.12765957,640.6376,-1348.8788,0.010537788,-0.0020750165,0.054122925,0.0,0.0,0.0
439.8313,404.59863,12848936,0.77500004,0.09574468,680.3438,-1469.6838,0.010537788,-0.0020750165,0.054122925,0.0,0.0,0.0
445.51117,387.36,12848953,0.77500004,0.08510638,492.87213,-1216.5087,0.010537788,-0.0020750165,0.054122925,0.0,0.0,0.0
448.49652,373.05835,12848969,0.8,0.08510638,177.4185,-828.5665,0.010537788,-0.0020750165,0.054122925,0.0,0.0,0.0
449.3316,365.0746,12848986,0.7875,0.09574468,97.830925,-763.0894,0.010537788,-0.0020750165,0.054122925,0.0,0.0,0.0
448.9361,360.0913,12849003,0.8,0.10638297,-103.04159,-343.48044,0.010537788,-0.0020750165,0.054122925,0.0,0.0,0.0
447.88287,358.03345,12849020,0.8,0.12765957,-190.0005,27.041807,0.010537788,-0.0020750165,0.054122925,0.0,0.0,0.0
446.8407,356.1809,12849036,0.8125,0.12765957,-183.1664,180.4156,0.010537788,-0.0020750165,0.054122925,0.0,0.0,0.0
446.33258,355.2777,12849053,0.8,0.10638297,-113.72637,106.46692,0.010537788,-0.0020750165,0.054122925,0.0,0.0,0.0
446.8673,355.2777,12849070,0.7875,0.09574468,-25.763676,77.05806,0.010537788,-0.0020750165,0.054122925,0.0,0.0,0.0
454.3697,357.26,12849086,0.8,0.10638297,220.5975,114.2305,0.010537788,-0.0020750165,0.054122925,0.0,0.0,0.0
470.47614,362.3806,12849103,0.7875,0.09574468,720.917,250.2579,0.010537788,-0.0020750165,0.054122925,0.0,0.0,0.0
486.36377,370.26257,12849120,0.7875,0.08510638,1167.0851,460.64725,0.010537788,-0.0020750165,0.054122925,0.0,0.0,0.0
505.25116,379.5265,12849137,0.77500004,0.08510638,1471.6461,666.6816,0.010537788,-0.0020750165,0.054122925,0.0,0.0,0.0
516.7272,386.91882,12849153,0.77500004,0.10638297,1149.34,679.01575,0.010537788,-0.0020750165,0.054122925,0.0,0.0,0.0
523.85065,392.46326,12849170,0.7625,0.12765957,674.57513,518.9259,0.010537788,-0.0020750165,0.054122925,0.0,0.0,0.0
528.20294,399.25195,12849187,0.7625,0.12765957,175.9583,336.69662,0.010537788,-0.0020750165,0.054122925,0.0,0.0,0.0
531.069,409.1067,12849203,0.77500004,0.09574468,-117.820656,377.27792,0.010537788,-0.0020750165,0.054122925,0.0,0.0,0.0
529.0679,420.09485,12849220,0.77500004,0.09574468,-204.2938,594.7886,-0.03956977,0.030339986,-0.0047016144,0.0,0.0,0.0
523.5283,428.78796,12849237,0.77500004,0.08510638,-361.2334,717.9293,-0.03956977,0.030339986,-0.0047016144,0.0,0.0,0.0
514.6951,436.2224,12849254,0.7875,0.09574468,-607.02136,584.1605,-0.03956977,0.030339986,-0.0047016144,0.0,0.0,0.0
504.31976,442.61426,12849270,0.7875,0.10638297,-810.8777,413.25464,-0.03956977,0.030339986,-0.0047016144,0.0,0.0,0.0
497.00623,446.97693,12849287,0.77500004,0.12765957,-773.8835,253.03384,-0.03956977,0.030339986,-0.0047016144,0.0,0.0,0.0
493.4292,448.8004,12849304,0.7625,0.12765957,-497.6447,107.93401,-0.03956977,0.030339986,-0.0047016144,0.0,0.0,0.0
491.4425,451.90295,12849320,0.6625,0.12765957,-164.13982,45.380146,-0.03956977,0.030339986,-0.0047016144,0.0,0.0,0.0
491.31793,452.1245,12849327,0.425,0.12765957,-29.607365,19.181679,-0.03956977,0.030339986,-0.0047016144,0.0,0.0,0.0
491.31793,452.1245,12849333,0.425,0.12765957,-29.607365,19.181679,-0.03956977,0.030339986,-0.0047016144,0.0,0.0,0.0
526.3065,389.92932,12849543,0.7,0.08510638,0.0,0.0,-0.03956977,0.030339986,-0.0047016144,0.0,0.0,0.0
526.3065,389.92932,12849571,0.75,0.08510638,0.034518383,0.023838867,-0.03956977,0.030339986,-0.0047016144,0.0,0.0,0.0
526.0073,378.76086,12849588,0.75,0.08510638,-16.648432,-622.2689,-0.03956977,0.030339986,-0.0047016144,0.0,0.0,0.0
527.82074,360.84375,12849604,0.7625,0.12765957,63.192596,-1445.3721,-0.03956977,0.030339986,-0.0047016144,0.0,0.0,0.0
530.81506,353.4829,12849621,0.77500004,0.12765957,169.88263,-1191.8512,-0.03956977,0.030339986,-0.0047016144,0.0,0.0,0.0
539.7552,343.68433,12849638,0.77500004,0.10638297,372.43094,-937.1448,-0.03956977,0.030339986,-0.0047016144,0.0,0.0,0.0
555.5674,336.86218,12849655,0.7875,0.08510638,807.0877,-516.914,-0.03956977,0.030339986,-0.0047016144,0.0,0.0,0.0
569.7745,336.6167,12849671,0.7875,0.10638297,1156.7217,-26.287325,-0.03956977,0.030339986,-0.0047016144,0.0,0.0,0.0
580.636,340.37878,12849688,0.77500004,0.12765957,1087.0994,183.62206,-0.03956977,0.030339986,-0.0047016144,0.0,0.0,0.0
590.05884,349.97388,12849705,0.77500004,0.10638297,790.24084,600.5962,-0.03956977,0.030339986,-0.0047016144,0.0,0.0,0.0
602.1499,377.47375,12849721,0.7625,0.08510638,543.44086,1328.3291,-0.03956977,0.030339986,-0.0047016144,0.0,0.0,0.0
603.62714,395.66687,12849738,0.75,0.12765957,298.5744,1762.7139,-0.03956977,0.030339986,-0.0047016144,0.0,0.0,0.0
601.7042,413.4447,12849755,0.725,0.08510638,6.5580688,1757.6433,-0.015655816,0.024271995,-0.0037612915,0.0,0.0,0.0
597.355,428.83264,12849772,0.7375,0.07446808,-396.1838,1281.7019,-0.015655816,0.024271995,-0.0037612915,0.0,0.0,0.0
593.47076,436.6892,12849788,0.725,0.09574468,-596.3139,591.43134,-0.015655816,0.024271995,-0.0037612915,0.0,0.0,0.0
590.9712,439.68542,12849805,0.7375,0.11702127,-455.34546,92.23261,-0.015655816,0.024271995,-0.0037612915,0.0,0.0,0.0
589.93335,439.68542,12849822,0.7375,0.09574468,-182.38641,-228.60425,-0.015655816,0.024271995,-0.0037612915,0.0,0.0,0.0
589.0361,439.68542,12849836,0.7375,0.09574468,-43.834015,-367.4222,-0.015655816,0.024271995,-0.0037612915,0.0,0.0,0.0
590.1466,438.0321,12849855,0.7375,0.09574468,81.104,-315.1228,-0.015655816,0.024271995,-0.0037612915,0.0,0.0,0.0
596.54034,436.18555,12849872,0.75,0.08510638,244.31094,-225.19995,-0.015655816,0.024271995,-0.0037612915,0.0,0.0,0.0
610.91455,435.24292,12849889,0.75,0.08510638,697.7291,-142.89278,-0.015655816,0.024271995,-0.0037612915,0.0,0.0,0.0
624.9733,438.0995,12849905,0.75,0.08510638,1077.0536,12.638685,-0.015655816,0.024271995,-0.0037612915,0.0,0.0,0.0
635.70886,441.7959,12849922,0.75,0.09574468,1112.0088,207.56667,-0.015655816,0.024271995,-0.0037612915,0.0,0.0,0.0
645.8881,446.40283,12849939,0.7375,0.10638297,797.79895,388.1921,-0.015655816,0.024271995,-0.0037612915,0.0,0.0,0.0
655.84045,450.15918,12849955,0.71250004,0.10638297,599.9788,385.28873,-0.015655816,0.024271995,-0.0037612915,0.0,0.0,0.0
665.4157,455.00403,12849972,0.71250004,0.10638297,474.98837,333.5948,-0.015655816,0.024271995,-0.0037612915,0.0,0.0,0.0
671.2473,459.2218,12849989,0.7,0.09574468,428.36234,282.51373,-0.015655816,0.024271995,-0.0037612915,0.0,0.0,0.0
675.6213,462.40942,12850005,0.675,0.09574468,265.58286,247.6446,-0.015655816,0.024271995,-0.0037612915,0.0,0.0,0.0
677.2574,463.67505,12850017,0.32500002,0.10638297,152.73943,196.0846,-0.015655816,0.024271995,-0.0037612915,0.0,0.0,0.0
677.2574,463.67505,12850024,0.32500002,0.10638297,152.73943,196.0846,-0.015655816,0.024271995,-0.0037612915,0.0,0.0,0.0
591.2854,383.70972,12850146,0.7,0.08510638,0.0,0.0,-0.015655816,0.024271995,-0.0037612915,0.0,0.0,0.0
591.2854,383.70972,12850173,0.75,0.09574468,-0.064327925,-0.041642465,-0.015655816,0.024271995,-0.0037612915,0.0,0.0,0.0
591.2854,383.70972,12850189,0.7625,0.08510638,-0.031584773,-0.019872256,-0.015655816,0.024271995,-0.0037612915,0.0,0.0,0.0
615.4569,384.17395,12850206,0.7625,0.08510638,1207.226,15.473773,-0.015655816,0.024271995,-0.0037612915,0.0,0.0,0.0
632.4075,386.02356,12850223,0.75,0.09574468,1593.6918,88.97698,-0.015655816,0.024271995,-0.0037612915,0.0,0.0,0.0
655.07776,383.64026,12850239,0.6375,0.08510638,1754.0697,32.60762,-0.015655816,0.024271995,-0.0037612915,0.0,0.0,0.0
658.7634,382.8213,12850242,0.25,0.053191487,1764.7909,-6.391721,-0.015655816,0.024271995,-0.0037612915,0.0,0.0,0.0
658.7634,382.8213,12850250,0.25,0.053191487,1764.7909,-6.391721,-0.015655816,0.024271995,-0.0037612915,0.0,0.0,0.0
787.72144,375.71326,12850475,0.6875,0.06382979,0.0,0.0,-0.0125246495,-0.028582394,0.028990746,0.0,0.0,0.0
787.72144,375.71326,12850503,0.725,0.08510638,0.07340243,0.032506246,-0.0125246495,-0.028582394,0.028990746,0.0,0.0,0.0
787.72144,375.71326,12850524,0.71250004,0.09574468,0.015442172,0.005954386,-0.0125246495,-0.028582394,0.028990746,0.0,0.0,0.0
762.3256,362.89612,12850540,0.725,0.11702127,-1272.2817,-648.1855,-0.0125246495,-0.028582394,0.028990746,0.0,0.0,0.0
734.3833,363.4491,12850557,0.7375,0.08510638,-1933.595,-448.70807,-0.0125246495,-0.028582394,0.028990746,0.0,0.0,0.0
709.6276,365.74927,12850574,0.7375,0.09574468,-2210.4612,-165.11853,-0.0125246495,-0.028582394,0.028990746,0.0,0.0,0.0
689.53284,371.28577,12850590,0.75,0.08510638,-2063.5034,240.44705,-0.0125246495,-0.028582394,0.028990746,0.0,0.0,0.0
679.0793,375.94263,12850607,0.75,0.08510638,-995.7411,624.2756,-0.0125246495,-0.028582394,0.028990746,0.0,0.0,0.0
672.0061,381.4917,12850624,0.77500004,0.08510638,-325.93863,481.68808,-0.0125246495,-0.028582394,0.028990746,0.0,0.0,0.0
667.40155,391.71423,12850641,0.7625,0.10638297,80.09757,513.7814,-0.0125246495,-0.028582394,0.028990746,0.0,0.0,0.0
668.16455,404.34058,12850657,0.75,0.09574468,204.96222,723.0703,-0.0125246495,-0.028582394,0.028990746,0.0,0.0,0.0
673.57,416.49402,12850674,0.7375,0.08510638,424.5019,924.262,-0.0125246495,-0.028582394,0.028990746,0.0,0.0,0.0
683.0519,427.8568,12850691,0.7,0.07446808,676.2302,888.71796,-0.0125246495,-0.028582394,0.028990746,0.0,0.0,0.0
695.0026,434.91016,12850707,0.725,0.09574468,919.66156,655.8042,-0.0125246495,-0.028582394,0.028990746,0.0,0.0,0.0
710.1116,433.50024,12850724,0.71250004,0.06382979,1098.1356,187.6445,-0.0125246495,-0.028582394,0.028990746,0.0,0.0,0.0
723.61584,425.2141,12850741,0.725,0.08510638,1075.7864,-443.44495,-0.0125246495,-0.028582394,0.028990746,0.0,0.0,0.0
732.79944,415.96228,12850757,0.71250004,0.12765957,871.207,-865.3991,-0.0125246495,-0.028582394,0.028990746,0.0,0.0,0.0
736.6637,405.48694,12850774,0.7375,0.10638297,451.0847,-1022.2116,-0.0125246495,-0.028582394,0.028990746,0.0,0.0,0.0
738.23755,398.04626,12850791,0.75,0.08510638,46.820175,-855.1525,-0.0125246495,-0.028582394,0.028990746,0.0,0.0,0.0
737.56055,394.057,12850808,0.7625,0.08510638,-225.97154,-497.7687,-0.0125246495,-0.028582394,0.028990746,0.0,0.0,0.0
736.5146,392.59485,12850824,0.75,0.08510638,-278.47025,-98.663895,0.0059802793,-0.0068659186,-0.008807182,0.0,0.0,0.0
735.4748,394.00012,12850841,0.7625,0.12765957,-214.1094,164.1844,0.0059802793,-0.0068659186,-0.008807182,0.0,0.0,0.0
735.73834,405.80396,12850858,0.725,0.09574468,-112.8877,562.6229,0.0059802793,-0.0068659186,-0.008807182,0.0,0.0,0.0
738.6118,425.9115,12850874,0.7375,0.06382979,63.475513,1155.4419,0.0059802793,-0.0068659186,-0.008807182,0.0,0.0,0.0
743.1509,441.78406,12850891,0.7,0.10638297,259.9448,1528.77,0.0059802793,-0.0068659186,-0.008807182,0.0,0.0,0.0
749.27637,451.58252,12850908,0.6625,0.12765957,427.55066,1321.5566,0.0059802793,-0.0068659186,-0.008807182,0.0,0.0,0.0
758.48083,459.0548,12850925,0.625,0.09574468,598.9957,714.5094,0.0059802793,-0.0068659186,-0.008807182,0.0,0.0,0.0
768.7276,465.45203,12850933,0.175,0.07446808,732.3671,458.41425,0.0059802793,-0.0068659186,-0.008807182,0.0,0.0,0.0
768.7276,465.45203,12850940,0.175,0.07446808,732.3671,458.41425,0.0059802793,-0.0068659186,-0.008807182,0.0,0.0,0.0
702.7491,221.11365,12851183,0.71250004,0.09574468,0.0,0.0,0.0059802793,-0.0068659186,-0.008807182,0.0,0.0,0.0
702.7491,221.11365,12851209,0.7875,0.09574468,0.121116504,0.038022786,0.0059802793,-0.0068659186,-0.008807182,0.0,0.0,0.0
702.7491,221.11365,12851225,0.8125,0.11702127,0.029579803,0.010089017,0.0059802793,-0.0068659186,-0.008807182,0.0,0.0,0.0
702.7491,221.11365,12851242,0.825,0.11702127,0.012974198,0.005121018,0.0059802793,-0.0068659186,-0.008807182,0.0,0.0,0.0
705.39014,240.56335,12851259,0.8,0.12765957,83.47118,614.4495,0.0059802793,-0.0068659186,-0.008807182,0.0,0.0,0.0
708.90753,263.35583,12851276,0.77500004,0.08510638,198.19946,1387.6445,0.0059802793,-0.0068659186,-0.008807182,0.0,0.0,0.0
712.91473,277.9839,12851292,0.6875,0.09574468,313.3728,1765.5304,0.0059802793,-0.0068659186,-0.008807182,0.0,0.0,0.0
713.24567,278.86633,12851295,0.4,0.10638297,310.83432,1666.7887,0.0059802793,-0.0068659186,-0.008807182,0.0,0.0,0.0
713.24567,278.86633,12851302,0.4,0.10638297,310.83432,1666.7887,0.0059802793,-0.0068659186,-0.008807182,0.0,0.0,0.0
758.231,457.45557,12851714,0.6625,0.12765957,0.0,0.0,-0.027215779,-0.005492747,-0.055045128,0.0,0.0,0.0
758.231,457.45557,12851743,0.6875,0.12765957,-0.03508555,-0.023397347,-0.027215779,-0.005492747,-0.055045128,0.0,0.0,0.0
758.231,457.45557,12851758,0.725,0.09574468,9.6549257E-4,5.7255395E-4,-0.027215779,-0.005492747,-0.055045128,0.0,0.0,0.0
775.5694,448.8545,12851777,0.71250004,0.09574468,622.06573,-308.57196,-0.027215779,-0.005492747,-0.055045128,0.0,0.0,0.0
791.46094,437.64258,12851794,0.725,0.07446808,1272.0352,-733.5942,-0.027215779,-0.005492747,-0.055045128,0.0,0.0,0.0
800.56793,425.67566,12851810,0.725,0.09574468,1245.7814,-927.2104,-0.027215779,-0.005492747,-0.055045128,0.0,0.0,0.0
807.87506,414.56335,12851827,0.7375,0.12765957,851.89557,-976.91144,-0.027215779,-0.005492747,-0.055045128,0.0,0.0,0.0
814.22327,399.34412,12851844,0.7375,0.08510638,378.78116,-934.8727,-0.027215779,-0.005492747,-0.055045128,0.0,0.0,0.0
816.3138,382.9729,12851860,0.7375,0.08510638,-44.213856,-941.9873,-0.027215779,-0.005492747,-0.055045128,0.0,0.0,0.0
813.1429,371.5277,12851877,0.75,0.09574468,-123.857666,-972.78864,-0.027215779,-0.005492747,-0.055045128,0.0,0.0,0.0
810.44714,366.354,12851894,0.7625,0.12765957,-330.76364,-662.5233,0.010227378,-0.020394191,-0.04403591,0.0,0.0,0.0
804.85034,359.45508,12851911,0.75,0.12765957,-501.90576,-250.45212,0.010227378,-0.020394191,-0.04403591,0.0,0.0,0.0
801.4496,354.8025,12851927,0.7625,0.12765957,-443.3148,-36.739048,0.010227378,-0.020394191,-0.04403591,0.0,0.0,0.0
800.5148,350.3064,12851944,0.7625,0.12765957,-220.84258,-116.13075,0.010227378,-0.020394191,-0.04403591,0.0,0.0,0.0
806.92224,346.37305,12851961,0.75,0.11702127,131.15784,-172.56267,0.010227378,-0.020394191,-0.04403591,0.0,0.0,0.0
825.9846,343.72717,12851977,0.7625,0.09574468,837.5913,-168.19595,0.010227378,-0.020394191,-0.04403591,0.0,0.0,0.0
845.3633,344.4668,12851994,0.7625,0.12765957,1506.5509,-44.321102,0.010227378,-0.020394191,-0.04403591,0.0,0.0,0.0
856.843,346.31348,12852011,0.75,0.12765957,1559.6022,135.83127,0.010227378,-0.020394191,-0.04403591,0.0,0.0,0.0
861.68823,349.05273,12852028,0.75,0.12765957,944.65393,273.36755,0.010227378,-0.020394191,-0.04403591,0.0,0.0,0.0
863.76874,353.7566,12852044,0.7625,0.11702127,89.67178,343.9181,0.010227378,-0.020394191,-0.04403591,0.0,0.0,0.0
862.4692,364.08423,12852061,0.7625,0.09574468,-358.75955,514.02216,0.010227378,-0.020394191,-0.04403591,0.0,0.0,0.0
857.288,378.03772,12852078,0.7625,0.08510638,-512.0322,831.98517,0.010227378,-0.020394191,-0.04403591,0.0,0.0,0.0
851.9923,385.141,12852094,0.7625,0.10638297,-537.87994,856.1989,0.010227378,-0.020394191,-0.04403591,0.0,0.0,0.0
843.9165,396.33154,12852111,0.75,0.09574468,-613.87256,786.3702,0.010227378,-0.020394191,-0.04403591,0.0,0.0,0.0
834.8097,416.75256,12852128,0.75,0.08510638,-655.7486,865.8771,0.010227378,-0.020394191,-0.04403591,0.0,0.0,0.0
831.7071,432.3994,12852145,0.7375,0.08510638,-493.8984,1127.2375,0.010227378,-0.020394191,-0.04403591,0.0,0.0,0.0
833.3139,440.76465,12852161,0.725,0.09574468,-121.73674,1063.7909,0.010227378,-0.020394191,-0.04403591,0.0,0.0,0.0
843.1354,448.40906,12852178,0.7,0.10638297,450.43268,563.9372,0.010227378,-0.020394191,-0.04403591,0.0,0.0,0.0
857.95215,452.8236,12852195,0.52500004,0.12765957,1065.5325,122.45098,0.010227378,-0.020394191,-0.04403591,0.0,0.0,0.0
873.6934,446.79346,12852205,0.15,0.07446808,1368.9851,-167.23425,0.010227378,-0.020394191,-0.04403591,0.0,0.0,0.0
873.6934,446.79346,12852212,0.15,0.07446808,1368.9851,-167.23425,0.010227378,-0.020394191,-0.04403591,0.0,0.0,0.0
972.1614,379.2672,12852454,0.5625,0.08510638,0.0,0.0,-0.007818095,0.04768464,0.012770653,0.0,0.0,0.0
972.1614,379.2672,12852479,0.6875,0.07446808,0.06586461,0.020101408,-0.007818095,0.04768464,0.012770653,0.0,0.0,0.0
972.1614,379.2672,12852495,0.7,0.08510638,-0.0075041847,-0.005671393,-0.007818095,0.04768464,0.012770653,0.0,0.0,0.0
949.83673,376.60168,12852512,0.725,0.08510638,-1123.6721,-140.5666,-0.007818095,0.04768464,0.012770653,0.0,0.0,0.0
930.0542,379.02222,12852529,0.71250004,0.09574468,-1686.1243,-27.722324,-0.007818095,0.04768464,0.012770653,0.0,0.0,0.0
916.0506,385.22717,12852546,0.7375,0.08510638,-1634.4294,212.04614,-0.007818095,0.04768464,0.012770653,0.0,0.0,0.0
900.4964,393.00244,12852562,0.7375,0.10638297,-1381.1826,513.69653,-0.007818095,0.04768464,0.012770653,0.0,0.0,0.0
889.12036,400.38928,12852579,0.7375,0.12765957,-804.88104,686.6573,-0.007818095,0.04768464,0.012770653,0.0,0.0,0.0
883.02386,408.8838,12852596,0.75,0.08510638,-297.43307,625.49945,-0.007818095,0.04768464,0.012770653,0.0,0.0,0.0
878.06726,425.24585,12852612,0.725,0.08510638,-178.3056,761.9619,-0.007818095,0.04768464,0.012770653,0.0,0.0,0.0
878.0957,437.9414,12852629,0.7375,0.08510638,92.87737,964.61536,-0.007818095,0.04768464,0.012770653,0.0,0.0,0.0
881.9716,446.50146,12852646,0.725,0.10638297,315.9364,894.48956,-0.007818095,0.04768464,0.012770653,0.0,0.0,0.0
890.6518,456.53137,12852663,0.71250004,0.09574468,564.4087,675.86334,-0.007818095,0.04768464,0.012770653,0.0,0.0,0.0
902.0685,462.97278,12852679,0.7,0.09574468,850.0454,368.2731,-0.007818095,0.04768464,0.012770653,0.0,0.0,0.0
912.9548,464.5636,12852696,0.725,0.11702127,940.6266,133.56207,-0.007818095,0.04768464,0.012770653,0.0,0.0,0.0
927.1499,462.18213,12852713,0.71250004,0.10638297,959.6195,-107.52231,-0.007818095,0.04768464,0.012770653,0.0,0.0,0.0
941.9981,455.46436,12852729,0.71250004,0.09574468,977.31226,-463.61127,-0.007818095,0.04768464,0.012770653,0.0,0.0,0.0
949.57336,446.07446,12852746,0.725,0.08510638,814.6116,-760.5588,-0.007818095,0.04768464,0.012770653,0.0,0.0,0.0
956.81323,428.90918,12852763,0.725,0.08510638,506.94873,-1028.2539,-0.007818095,0.04768464,0.012770653,0.0,0.0,0.0
958.13806,414.6089,12852780,0.725,0.12765957,128.80016,-1191.4697,-0.007818095,0.04768464,0.012770653,0.0,0.0,0.0
952.99536,400.28528,12852796,0.7375,0.09574468,-316.98123,-1154.0814,-0.007818095,0.04768464,0.012770653,0.0,0.0,0.0
946.03937,388.53845,12852813,0.7375,0.08510638,-617.7403,-922.4888,-0.007818095,0.04768464,0.012770653,0.0,0.0,0.0
934.25836,375.09265,12852830,0.7625,0.09574468,-890.7216,-734.927,-0.007818095,0.04768464,0.012770653,0.0,0.0,0.0
925.2305,367.1974,12852846,0.7625,0.11702127,-944.7386,-560.2368,-0.007818095,0.04768464,0.012770653,0.0,0.0,0.0
917.36865,364.21887,12852863,0.7625,0.10638297,-737.3011,-320.17233,-0.007818095,0.04768464,0.012770653,0.0,0.0,0.0
912.16364,365.05725,12852880,0.75,0.08510638,-442.76306,71.25848,-0.007818095,0.04768464,0.012770653,0.0,0.0,0.0
908.5439,366.91016,12852896,0.75,0.08510638,-200.7648,346.1796,-0.007818095,0.04768464,0.012770653,0.0,0.0,0.0
907.18256,377.45947,12852913,0.75,0.08510638,-27.438915,623.3506,-0.007818095,0.04768464,0.012770653,0.0,0.0,0.0
909.93604,384.16187,12852930,0.7625,0.11702127,152.07545,726.3344,-0.007818095,0.04768464,0.012770653,0.0,0.0,0.0
913.33386,389.02295,12852947,0.7375,0.12765957,316.2304,625.60486,0.009745523,-0.00985229,0.0422163,0.0,0.0,0.0
926.5312,398.84924,12852963,0.725,0.12765957,636.9345,567.7864,0.009745523,-0.00985229,0.0422163,0.0,0.0,0.0
942.1029,405.01648,12852980,0.7375,0.10638297,1047.7206,435.86588,0.009745523,-0.00985229,0.0422163,0.0,0.0,0.0
957.36145,406.8108,12852997,0.725,0.12765957,1246.4119,291.002,0.009745523,-0.00985229,0.0422163,0.0,0.0,0.0
969.68787,404.82178,12853013,0.725,0.12765957,1141.7839,-6.6045337,0.009745523,-0.00985229,0.0422163,0.0,0.0,0.0
982.1172,400.4496,12853030,0.725,0.10638297,852.11926,-384.49692,0.009745523,-0.00985229,0.0422163,0.0,0.0,0.0
995.55786,391.703,12853047,0.7375,0.08510638,700.4701,-633.10315,0.009745523,-0.00985229,0.0422163,0.0,0.0,0.0
1005.53906,379.24792,12853064,0.7625,0.08510638,632.90216,-814.57214,0.009745523,-0.00985229,0.0422163,0.0,0.0,0.0
1013.51514,366.17566,12853080,0.7375,0.10638297,536.7099,-985.8283,0.009745523,-0.00985229,0.0422163,0.0,0.0,0.0
1021.86096,347.67114,12853097,0.75,0.09574468,412.9923,-1143.591,0.009745523,-0.00985229,0.0422163,0.0,0.0,0.0
1026.7734,330.7113,12853114,0.7625,0.09574468,286.98477,-1236.3556,0.009745523,-0.00985229,0.0422163,0.0,0.0,0.0
1029.4503,312.83508,12853130,0.77500004,0.11702127,151.06361,-1207.2094,0.009745523,-0.00985229,0.0422163,0.0,0.0,0.0
1029.1428,304.20764,12853147,0.77500004,0.12765957,-18.074247,-946.19885,0.009745523,-0.00985229,0.0422163,0.0,0.0,0.0
1027.2303,297.31238,12853164,0.77500004,0.12765957,-196.63484,-540.03534,0.009745523,-0.00985229,0.0422163,0.0,0.0,0.0
1025.2151,294.47827,12853181,0.77500004,0.12765957,-294.4899,-113.52502,0.009745523,-0.00985229,0.0422163,0.0,0.0,0.0
1023.1301,293.0824,12853197,0.7875,0.12765957,-246.00131,144.21584,0.009745523,-0.00985229,0.0422163,0.0,0.0,0.0
1021.85815,294.10266,12853214,0.77500004,0.12765957,-163.7246,218.7043,0.009745523,-0.00985229,0.0422163,0.0,0.0,0.0
1023.8009,306.0769,12853231,0.77500004,0.11702127,-20.8703,498.83282,0.009745523,-0.00985229,0.0422163,0.0,0.0,0.0
1031.1006,324.3706,12853247,0.7625,0.09574468,295.66693,1096.9786,0.009745523,-0.00985229,0.0422163,0.0,0.0,0.0
1044.1094,342.53845,12853264,0.7375,0.12765957,701.05444,1479.5751,0.009745523,-0.00985229,0.0422163,0.0,0.0,0.0
1063.1876,366.50488,12853281,0.7375,0.08510638,1194.8602,1718.6964,0.009745523,-0.00985229,0.0422163,0.0,0.0,0.0
1076.5616,384.4945,12853298,0.7375,0.11702127,1380.3937,1595.7545,0.009745523,-0.00985229,0.0422163,0.0,0.0,0.0
1087.071,404.0359,12853314,0.725,0.12765957,1094.0175,1278.989,0.009745523,-0.00985229,0.0422163,0.0,0.0,0.0
1090.1993,422.3855,12853331,0.725,0.09574468,477.8237,1136.791,0.009745523,-0.00985229,0.0422163,0.0,0.0,0.0
1085.5667,436.43237,12853348,0.725,0.11702127,-207.39235,938.4594,0.009745523,-0.00985229,0.0422163,0.0,0.0,0.0
1079.7848,444.13684,12853364,0.725,0.12765957,-649.7706,634.6138,0.009745523,-0.00985229,0.0422163,0.0,0.0,0.0
1066.3643,454.01514,12853381,0.7375,0.10638297,-947.7214,401.38898,0.009745523,-0.00985229,0.0422163,0.0,0.0,0.0
1052.1666,460.44995,12853398,0.71250004,0.10638297,-1130.1351,181.786,0.009745523,-0.00985229,0.0422163,0.0,0.0,0.0
1040.5887,465.91125,12853415,0.6625,0.09574468,-1077.468,215.67921,0.009745523,-0.00985229,0.0422163,0.0,0.0,0.0
1039.1395,466.34058,12853418,0.35,0.08510638,-1035.424,192.649,0.009745523,-0.00985229,0.0422163,0.0,0.0,0.0
1039.1395,466.34058,12853426,0.35,0.08510638,-1035.424,192.649,0.009745523,-0.00985229,0.0422163,0.0,0.0,0.0
