x,y,timestamp,pressure,fingerarea,velocityx,velocityy,accelx,accely,accelz,gyrox,gyroy,gyroz
152.92807,227.33313,12804435,0.625,0.09574468,0.0,0.0,-0.019131392,0.008466095,-0.0014591217,0.0,0.0,0.0
152.92807,227.33313,12804454,0.65000004,0.09574468,-0.009089039,-0.0114461025,-0.019131392,0.008466095,-0.0014591217,0.0,0.0,0.0
152.92807,227.33313,12804470,0.7,0.07446808,-0.0011768414,-0.001109314,-0.019131392,0.008466095,-0.0014591217,0.0,0.0,0.0
152.92807,227.33313,12804487,0.7375,0.08510638,0.010479229,0.014724451,-0.019131392,0.008466095,-0.0014591217,0.0,0.0,0.0
152.92807,227.33313,12804511,0.75,0.08510638,-0.004505705,-0.0067666033,-0.019131392,0.008466095,-0.0014591217,0.0,0.0,0.0
152.92807,227.33313,12804537,0.75,0.10638297,0.0017178926,0.0027774463,-0.019131392,0.008466095,-0.0014591217,0.0,0.0,0.0
152.92807,227.33313,12804547,0.7625,0.12765957,0.004715669,0.006666669,-0.019131392,0.008466095,-0.0014591217,0.0,0.0,0.0
153.42792,261.625,12804570,0.7625,0.08510638,19.513405,1156.121,-0.019131392,0.008466095,-0.0014591217,0.0,0.0,0.0
152.68628,279.20947,12804587,0.75,0.11702127,-11.60428,1813.2576,-0.019131392,0.008466095,-0.0014591217,0.0,0.0,0.0
151.33826,293.7246,12804604,0.75,0.11702127,-59.89662,1549.8268,-0.019131392,0.008466095,-0.0014591217,0.0,0.0,0.0
149.76712,312.87988,12804620,0.7625,0.09574468,-117.44923,1172.9359,-0.019131392,0.008466095,-0.0014591217,0.0,0.0,0.0
149.06252,332.94885,12804637,0.77500004,0.11702127,-118.893616,995.2136,-0.019131392,0.008466095,-0.0014591217,0.0,0.0,0.0
148.92938,349.9254,12804654,0.7625,0.11702127,-54.24099,1102.246,-0.019131392,0.008466095,-0.0014591217,0.0,0.0,0.0
148.92938,372.86133,12804671,0.77500004,0.09574468,10.872589,1295.1548,-0.019131392,0.008466095,-0.0014591217,0.0,0.0,0.0
148.92938,390.65918,12804687,0.77500004,0.11702127,38.843185,1265.857,-0.019131392,0.008466095,-0.0014591217,0.0,0.0,0.0
148.39886,409.1875,12804704,0.77500004,0.09574468,12.124591,1131.9816,-0.019131392,0.008466095,-0.0014591217,0.0,0.0,0.0
147.9297,431.41052,12804721,0.7625,0.09574468,-26.867434,1210.0435,-0.019131392,0.008466095,-0.0014591217,0.0,0.0,0.0
147.9297,445.4696,12804737,0.75,0.12765957,-29.522272,1064.7645,-0.019131392,0.008466095,-0.0014591217,0.0,0.0,0.0
148.61966,459.8214,12804754,0.7,0.11702127,3.886406,874.817,-0.019131392,0.008466095,-0.0014591217,0.0,0.0,0.0
149.64249,467.85706,12804771,0.58750004,0.09574468,57.737625,612.49493,-0.019131392,0.008466095,-0.0014591217,0.0,0.0,0.0
149.42921,468.11755,12804777,0.26250002,0.09574468,68.89383,433.63452,-0.019131392,0.008466095,-0.0014591217,0.0,0.0,0.0
149.42921,468.11755,12804783,0.26250002,0.09574468,68.89383,433.63452,-0.019131392,0.008466095,-0.0014591217,0.0,0.0,0.0
123.937515,272.64685,12805090,0.6375,0.053191487,0.0,0.0,6.9488585E-4,-0.009227127,-0.0011672974,0.0,0.0,0.0
123.937515,272.64685,12805122,0.6875,0.053191487,-0.0027448663,-0.006499133,6.9488585E-4,-0.009227127,-0.0011672974,0.0,0.0,0.0
127.947556,264.62756,12805139,0.75,0.12765957,268.10962,-536.1897,6.9488585E-4,-0.009227127,-0.0011672974,0.0,0.0,0.0
135.76622,249.84338,12805155,0.75,0.10638297,542.11597,-1047.6451,6.9488585E-4,-0.009227127,-0.0011672974,0.0,0.0,0.0
142.96292,237.93909,12805172,0.77500004,0.09574468,627.06055,-1125.212,6.9488585E-4,-0.009227127,-0.0011672974,0.0,0.0,0.0
148.55348,226.89111,12805189,0.77500004,0.08510638,592.6606,-1068.652,6.9488585E-4,-0.009227127,-0.0011672974,0.0,0.0,0.0
157.38402,214.72876,12805205,0.8,0.08510638,551.13983,-899.9793,6.9488585E-4,-0.009227127,-0.0011672974,0.0,0.0,0.0
164.70468,207.62,12805222,0.8,0.08510638,460.16983,-568.58887,6.9488585E-4,-0.009227127,-0.0011672974,0.0,0.0,0.0
173.78548,204.23206,12805239,0.8,0.08510638,523.0888,-303.04092,6.9488585E-4,-0.009227127,-0.0011672974,0.0,0.0,0.0
181.84128,206.58484,12805256,0.8125,0.08510638,574.3652,80.12349,6.9488585E-4,-0.009227127,-0.0011672974,0.0,0.0,0.0
189.633,216.49377,12805272,0.8,0.08510638,516.74133,592.1055,6.9488585E-4,-0.009227127,-0.0011672974,0.0,0.0,0.0
198.7015,233.5581,12805289,0.7625,0.12765957,481.82446,1084.2174,6.9488585E-4,-0.009227127,-0.0011672974,0.0,0.0,0.0
207.8451,251.88525,12805306,0.75,0.08510638,506.98492,1475.1422,6.9488585E-4,-0.009227127,-0.0011672974,0.0,0.0,0.0
215.08047,264.1848,12805322,0.75,0.07446808,531.9716,1433.0819,6.9488585E-4,-0.009227127,-0.0011672974,0.0,0.0,0.0
224.13885,273.32056,12805339,0.75,0.08510638,508.3192,950.732,6.9488585E-4,-0.009227127,-0.0011672974,0.0,0.0,0.0
235.08698,278.03784,12805356,0.75,0.08510638,569.7483,344.74106,6.9488585E-4,-0.009227127,-0.0011672974,0.0,0.0,0.0
245.48581,276.97327,12805372,0.7375,0.07446808,641.74426,-137.09657,6.9488585E-4,-0.009227127,-0.0011672974,0.0,0.0,0.0
253.18811,271.05396,12805389,0.75,0.08510638,627.5015,-453.78323,6.9488585E-4,-0.009227127,-0.0011672974,0.0,0.0,0.0
258.85803,261.15955,12805406,0.7375,0.10638297,457.93365,-736.0439,6.9488585E-4,-0.009227127,-0.0011672974,0.0,0.0,0.0
264.43945,249.97717,12805423,0.75,0.12765957,269.62924,-955.51776,6.9488585E-4,-0.009227127,-0.0011672974,0.0,0.0,0.0
269.44043,241.6018,12805439,0.7625,0.09574468,201.17348,-891.454,5.5591017E-4,-0.0073817074,-9.3364716E-4,0.0,0.0,0.0
272.8901,233.10559,12805456,0.77500004,0.08510638,206.33376,-680.69824,5.5591017E-4,-0.0073817074,-9.3364716E-4,0.0,0.0,0.0
273.38885,229.49792,12805473,0.7625,0.08510638,88.79835,-378.27585,5.5591017E-4,-0.0073817074,-9.3364716E-4,0.0,0.0,0.0
273.38885,227.62732,12805489,0.7875,0.08510638,-72.20883,-69.178314,5.5591017E-4,-0.0073817074,-9.3364716E-4,0.0,0.0,0.0
273.38885,227.33313,12805506,0.7625,0.08510638,-137.50206,112.29918,5.5591017E-4,-0.0073817074,-9.3364716E-4,0.0,0.0,0.0
273.8887,228.79407,12805523,0.8,0.09574468,-89.49213,218.00623,5.5591017E-4,-0.0073817074,-9.3364716E-4,0.0,0.0,0.0
273.8887,235.79578,12805540,0.77500004,0.12765957,-14.895776,336.65598,5.5591017E-4,-0.0073817074,-9.3364716E-4,0.0,0.0,0.0
273.8887,248.5747,12805556,0.7875,0.09574468,11.1365795,667.4036,5.5591017E-4,-0.0073817074,-9.3364716E-4,0.0,0.0,0.0
272.303,267.27002,12805573,0.77500004,0.08510638,-43.001633,1139.4249,5.5591017E-4,-0.0073817074,-9.3364716E-4,0.0,0.0,0.0
270.74207,282.58142,12805590,0.77500004,0.12765957,-104.85601,1360.4916,5.5591017E-4,-0.0073817074,-9.3364716E-4,0.0,0.0,0.0
268.6935,298.21082,12805606,0.7625,0.08510638,-152.62256,1276.8243,5.5591017E-4,-0.0073817074,-9.3364716E-4,0.0,0.0,0.0
267.54474,324.93005,12805623,0.75,0.08510638,-138.45343,1368.5048,5.5591017E-4,-0.0073817074,-9.3364716E-4,0.0,0.0,0.0
266.01712,340.8319,12805640,0.7625,0.12765957,-112.14745,1323.5232,5.5591017E-4,-0.0073817074,-9.3364716E-4,0.0,0.0,0.0
264.6603,361.1007,12805657,0.77500004,0.09574468,-80.92693,1286.726,5.5591017E-4,-0.0073817074,-9.3364716E-4,0.0,0.0,0.0
263.63843,380.2069,12805673,0.75,0.09574468,-64.55841,1221.3226,5.5591017E-4,-0.0073817074,-9.3364716E-4,0.0,0.0,0.0
263.08002,395.25586,12805690,0.7625,0.12765957,-43.085083,957.8071,5.5591017E-4,-0.0073817074,-9.3364716E-4,0.0,0.0,0.0
262.39246,411.25146,12805707,0.7625,0.09574468,-17.036226,878.32227,5.5591017E-4,-0.0073817074,-9.3364716E-4,0.0,0.0,0.0
262.7589,428.9037,12805723,0.7625,0.08510638,5.309057,878.93256,5.5591017E-4,-0.0073817074,-9.3364716E-4,0.0,0.0,0.0
263.8191,441.57373,12805740,0.75,0.11702127,52.98688,844.6657,5.5591017E-4,-0.0073817074,-9.3364716E-4,0.0,0.0,0.0
265.33163,450.9701,12805757,0.725,0.12765957,105.22235,707.24963,5.5591017E-4,-0.0073817074,-9.3364716E-4,0.0,0.0,0.0
266.891,455.67847,12805765,0.58750004,0.10638297,139.70493,591.33606,5.5591017E-4,-0.0073817074,-9.3364716E-4,0.0,0.0,0.0
266.891,455.67847,12805773,0.58750004,0.10638297,139.70493,591.33606,5.5591017E-4,-0.0073817074,-9.3364716E-4,0.0,0.0,0.0
318.87405,338.39612,12806007,0.6625,0.09574468,0.0,0.0,-0.031555273,0.02609463,0.04725361,0.0,0.0,0.0
318.87405,338.39612,12806024,0.7,0.08510638,-0.42838767,-0.4547751,-0.031555273,0.02609463,0.04725361,0.0,0.0,0.0
318.87405,338.39612,12806041,0.7375,0.09574468,-0.024766019,-0.023422014,-0.031555273,0.02609463,0.04725361,0.0,0.0,0.0
318.87405,338.39612,12806057,0.75,0.11702127,0.0031653407,0.0032900432,-0.031555273,0.02609463,0.04725361,0.0,0.0,0.0
318.87405,338.39612,12806074,0.75,0.12765957,0.015686309,0.015922116,-0.031555273,0.02609463,0.04725361,0.0,0.0,0.0
318.87405,338.39612,12806091,0.75,0.12765957,-0.020365417,-0.022412669,-0.031555273,0.02609463,0.04725361,0.0,0.0,0.0
324.07675,359.02307,12806108,0.7375,0.08510638,160.01212,648.87195,-0.031555273,0.02609463,0.04725361,0.0,0.0,0.0
327.91437,365.0896,12806124,0.75,0.08510638,298.97922,981.7891,-0.031555273,0.02609463,0.04725361,0.0,0.0,0.0
335.79834,370.63684,12806141,0.75,0.06382979,466.73465,849.53796,-0.031555273,0.02609463,0.04725361,0.0,0.0,0.0
345.6435,372.15918,12806158,0.75,0.06382979,645.50604,384.83786,-0.031555273,0.02609463,0.04725361,0.0,0.0,0.0
355.95404,370.54333,12806175,0.75,0.08510638,735.65967,-206.43257,-0.031555273,0.02609463,0.04725361,0.0,0.0,0.0
364.8597,365.05078,12806191,0.75,0.10638297,706.6589,-501.48254,-0.031555273,0.02609463,0.04725361,0.0,0.0,0.0
370.5572,359.50696,12806208,0.725,0.12765957,533.4084,-520.54895,-0.031555273,0.02609463,0.04725361,0.0,0.0,0.0
372.528,353.7799,12806225,0.75,0.12765957,216.81,-548.7483,-0.031555273,0.02609463,0.04725361,0.0,0.0,0.0
372.85648,348.39734,12806241,0.7375,0.11702127,-44.026386,-464.1282,-0.031555273,0.02609463,0.04725361,0.0,0.0,0.0
371.00266,343.98584,12806258,0.75,0.09574468,-228.72226,-350.06018,-0.031555273,0.02609463,0.04725361,0.0,0.0,0.0
363.64362,340.29944,12806275,0.7625,0.08510638,-420.6097,-248.74786,-0.031555273,0.02609463,0.04725361,0.0,0.0,0.0
346.90866,341.0066,12806292,0.75,0.09574468,-841.0705,-72.56326,-0.031555273,0.02609463,0.04725361,0.0,0.0,0.0
329.81366,346.56042,12806308,0.75,0.12765957,-1308.3743,248.86768,-0.031555273,0.02609463,0.04725361,0.0,0.0,0.0
318.71072,355.09644,12806325,0.75,0.08510638,-1290.3326,576.0833,-0.031555273,0.02609463,0.04725361,0.0,0.0,0.0
307.83868,371.33997,12806342,0.7625,0.08510638,-896.4627,947.1503,-0.031555273,0.02609463,0.04725361,0.0,0.0,0.0
299.4861,388.20703,12806358,0.7625,0.09574468,-492.09064,1282.2114,-0.031555273,0.02609463,0.04725361,0.0,0.0,0.0
296.95337,405.65674,12806375,0.7625,0.09574468,-163.56181,1366.3792,-0.031555273,0.02609463,0.04725361,0.0,0.0,0.0
299.2723,423.94043,12806392,0.7375,0.06382979,101.68378,1299.5156,-0.031555273,0.02609463,0.04725361,0.0,0.0,0.0
303.43192,438.04932,12806408,0.75,0.10638297,419.28632,1087.7733,-0.031555273,0.02609463,0.04725361,0.0,0.0,0.0
307.8969,444.15076,12806425,0.7375,0.12765957,547.49866,615.4309,-0.031555273,0.02609463,0.04725361,0.0,0.0,0.0
319.5808,452.94946,12806442,0.725,0.10638297,674.81775,353.25217,-0.031555273,0.02609463,0.04725361,0.0,0.0,0.0
341.3663,458.0775,12806459,0.725,0.10638297,1076.5332,148.74277,-0.031555273,0.02609463,0.04725361,0.0,0.0,0.0
354.91748,457.10632,12806475,0.6875,0.12765957,1318.5475,-37.28021,-0.031555273,0.02609463,0.04725361,0.0,0.0,0.0
368.63214,451.36975,12806492,0.625,0.08510638,1299.8387,-283.97104,-0.031555273,0.02609463,0.04725361,0.0,0.0,0.0
370.3573,450.34753,12806497,0.275,0.08510638,1190.6171,-359.30933,0.0067557804,-0.011124283,-0.010197639,0.0,0.0,0.0
370.3573,450.34753,12806504,0.275,0.08510638,1190.6171,-359.30933,0.0067557804,-0.011124283,-0.010197639,0.0,0.0,0.0
383.8529,212.22864,12806722,0.7,0.06382979,0.0,0.0,0.0067557804,-0.011124283,-0.010197639,0.0,0.0,0.0
383.8529,212.22864,12806743,0.7375,0.08510638,0.07557492,0.040770642,0.0067557804,-0.011124283,-0.010197639,0.0,0.0,0.0
383.8529,212.22864,12806759,0.77500004,0.08510638,0.0035439208,0.0019101192,0.0067557804,-0.011124283,-0.010197639,0.0,0.0,0.0
383.8529,212.22864,12806776,0.77500004,0.08510638,-0.019866658,-0.009896972,0.0067557804,-0.011124283,-0.010197639,0.0,0.0,0.0
376.07785,242.76562,12806793,0.7625,0.12765957,-329.7249,1243.4001,0.0067557804,-0.011124283,-0.010197639,0.0,0.0,0.0
373.89096,268.34998,12806810,0.725,0.08510638,-377.02924,1964.1908,0.0067557804,-0.011124283,-0.010197639,0.0,0.0,0.0
381.0448,302.55566,12806826,0.15,0.08510638,-12.585836,2498.9338,0.0067557804,-0.011124283,-0.010197639,0.0,0.0,0.0
381.0448,302.55566,12806834,0.15,0.08510638,-12.585836,2498.9338,0.0067557804,-0.011124283,-0.010197639,0.0,0.0,0.0
366.35858,453.01306,12807043,0.625,0.10638297,0.0,0.0,0.021404624,-0.0088994205,-0.024157524,0.0,0.0,0.0
366.35858,453.01306,12807060,0.6625,0.11702127,-0.30615354,-0.39579862,0.021404624,-0.0088994205,-0.024157524,0.0,0.0,0.0
366.35858,453.01306,12807077,0.7,0.12765957,-0.022209484,-0.027649254,0.021404624,-0.0088994205,-0.024157524,0.0,0.0,0.0
366.35858,453.01306,12807094,0.725,0.12765957,0.027269302,0.031883925,0.021404624,-0.0088994205,-0.024157524,0.0,0.0,0.0
366.35858,453.01306,12807110,0.725,0.12765957,-0.006971864,-0.0076154186,0.021404624,-0.0088994205,-0.024157524,0.0,0.0,0.0
366.35858,453.01306,12807127,0.7375,0.10638297,-0.010184958,-0.012887861,0.021404624,-0.0088994205,-0.024157524,0.0,0.0,0.0
366.35858,453.01306,12807144,0.725,0.09574468,-0.016205573,-0.01802803,0.021404624,-0.0088994205,-0.024157524,0.0,0.0,0.0
380.77325,442.33667,12807160,0.7375,0.08510638,332.0991,-245.93071,0.021404624,-0.0088994205,-0.024157524,0.0,0.0,0.0
391.1738,430.8158,12807177,0.7375,0.06382979,868.427,-739.1796,0.021404624,-0.0088994205,-0.024157524,0.0,0.0,0.0
399.23306,415.5332,12807194,0.75,0.10638297,946.07336,-1082.9265,0.021404624,-0.0088994205,-0.024157524,0.0,0.0,0.0
406.84366,392.15845,12807211,0.7375,0.08510638,650.6852,-1432.746,0.021404624,-0.0088994205,-0.024157524,0.0,0.0,0.0
409.73975,370.42432,12807227,0.75,0.08510638,178.49127,-1581.1774,0.021404624,-0.0088994205,-0.024157524,0.0,0.0,0.0
409.84445,355.34656,12807244,0.7375,0.10638297,-65.61097,-1464.2058,0.021404624,-0.0088994205,-0.024157524,0.0,0.0,0.0
408.2734,345.18628,12807261,0.7625,0.08510638,-181.61452,-952.3644,0.021404624,-0.0088994205,-0.024157524,0.0,0.0,0.0
406.21063,339.81323,12807277,0.77500004,0.08510638,-310.28653,-317.43506,0.021404624,-0.0088994205,-0.024157524,0.0,0.0,0.0
404.73227,337.3053,12807294,0.77500004,0.08510638,-266.91272,89.12496,0.021404624,-0.0088994205,-0.024157524,0.0,0.0,0.0
403.66446,335.4071,12807311,0.77500004,0.08510638,-159.12907,189.6203,0.021404624,-0.0088994205,-0.024157524,0.0,0.0,0.0
402.66016,336.06226,12807328,0.7625,0.09574468,-79.09001,199.45949,0.021404624,-0.0088994205,-0.024157524,0.0,0.0,0.0
402.57443,338.31653,12807344,0.7625,0.10638297,-12.832029,200.84706,0.021404624,-0.0088994205,-0.024157524,0.0,0.0,0.0
404.42944,341.61682,12807361,0.7625,0.10638297,60.144623,267.3199,0.021404624,-0.0088994205,-0.024157524,0.0,0.0,0.0
411.35425,348.62305,12807378,0.75,0.10638297,279.33063,407.90353,0.021404624,-0.0088994205,-0.024157524,0.0,0.0,0.0
422.77203,358.14514,12807394,0.75,0.08510638,632.19073,590.8349,0.021404624,-0.0088994205,-0.024157524,0.0,0.0,0.0
439.0105,371.5221,12807411,0.7375,0.06382979,1024.3573,817.96204,0.021404624,-0.0088994205,-0.024157524,0.0,0.0,0.0
455.36005,383.85986,12807428,0.7375,0.08510638,1281.9199,973.8928,0.021404624,-0.0088994205,-0.024157524,0.0,0.0,0.0
467.0415,392.37024,12807445,0.7375,0.11702127,1184.1279,862.1038,0.021404624,-0.0088994205,-0.024157524,0.0,0.0,0.0
474.3883,398.87207,12807461,0.725,0.11702127,711.6594,527.26886,0.021404624,-0.0088994205,-0.024157524,0.0,0.0,0.0
479.0337,404.42773,12807478,0.7375,0.08510638,264.5836,260.4613,0.021404624,-0.0088994205,-0.024157524,0.0,0.0,0.0
483.68964,415.79163,12807495,0.725,0.07446808,32.69357,320.0012,0.021404624,-0.0088994205,-0.024157524,0.0,0.0,0.0
483.43842,425.71252,12807511,0.7375,0.08510638,-75.46931,542.1843,0.021404624,-0.0088994205,-0.024157524,0.0,0.0,0.0
479.6587,433.7555,12807528,0.7375,0.09574468,-231.4085,641.8917,0.021404624,-0.0088994205,-0.024157524,0.0,0.0,0.0
471.87384,439.35986,12807545,0.7375,0.09574468,-471.10455,510.76025,0.021404624,-0.0088994205,-0.024157524,0.0,0.0,0.0
458.90063,444.99817,12807561,0.75,0.09574468,-851.34674,276.28833,0.0171237,-0.0071195364,0.028673172,0.0,0.0,0.0
448.5307,447.30457,12807578,0.7375,0.09574468,-985.1402,136.68372,0.0171237,-0.0071195364,0.028673172,0.0,0.0,0.0
441.36145,447.682,12807595,0.7375,0.10638297,-795.8168,8.932555,0.0171237,-0.0071195364,0.028673172,0.0,0.0,0.0
437.23358,446.79346,12807612,0.6625,0.10638297,-426.74265,-132.4808,0.0171237,-0.0071195364,0.028673172,0.0,0.0,0.0
437.83533,443.2395,12807622,0.175,0.06382979,-186.91629,-236.63702,0.0171237,-0.0071195364,0.028673172,0.0,0.0,0.0
437.83533,443.2395,12807629,0.175,0.06382979,-186.91629,-236.63702,0.0171237,-0.0071195364,0.028673172,0.0,0.0,0.0
475.32312,398.81433,12807791,0.675,0.12765957,0.0,0.0,0.0171237,-0.0071195364,0.028673172,0.0,0.0,0.0
475.32312,398.81433,12807812,0.7,0.10638297,-0.10136089,-0.084663615,0.0171237,-0.0071195364,0.028673172,0.0,0.0,0.0
475.32312,398.81433,12807829,0.725,0.08510638,-0.009210844,-0.010489396,0.0171237,-0.0071195364,0.028673172,0.0,0.0,0.0
469.56122,378.4696,12807846,0.7375,0.08510638,-332.27957,-1159.2161,0.0171237,-0.0071195364,0.028673172,0.0,0.0,0.0
469.32507,368.15234,12807862,0.7375,0.08510638,-249.52731,-1236.1486,0.0171237,-0.0071195364,0.028673172,0.0,0.0,0.0
471.81464,358.85315,12807879,0.7375,0.12765957,-58.713295,-1070.6716,0.0171237,-0.0071195364,0.028673172,0.0,0.0,0.0
476.55707,351.3766,12807896,0.75,0.11702127,270.0323,-631.76154,0.0171237,-0.0071195364,0.028673172,0.0,0.0,0.0
488.92206,339.1173,12807912,0.75,0.08510638,647.32715,-493.39075,0.0171237,-0.0071195364,0.028673172,0.0,0.0,0.0
502.42078,331.10706,12807929,0.7625,0.08510638,961.5045,-444.73566,0.0171237,-0.0071195364,0.028673172,0.0,0.0,0.0
515.1012,327.05542,12807946,0.75,0.08510638,1065.1945,-436.01065,0.0171237,-0.0071195364,0.028673172,0.0,0.0,0.0
525.0196,329.29883,12807963,0.7375,0.09574468,959.4489,-96.78974,0.0171237,-0.0071195364,0.028673172,0.0,0.0,0.0
534.5952,335.58228,12807979,0.75,0.10638297,644.9594,455.9887,0.0171237,-0.0071195364,0.028673172,0.0,0.0,0.0
542.9316,345.2627,12807996,0.7375,0.10638297,468.87848,777.3797,0.0171237,-0.0071195364,0.028673172,0.0,0.0,0.0
552.6689,368.1466,12808013,0.725,0.06382979,445.11664,1254.6097,0.0171237,-0.0071195364,0.028673172,0.0,0.0,0.0
555.29706,386.91882,12808029,0.725,0.09574468,336.2424,1605.6569,0.0171237,-0.0071195364,0.028673172,0.0,0.0,0.0
554.1399,399.85706,12808046,0.725,0.10638297,15.246529,1428.2012,0.0171237,-0.0071195364,0.028673172,0.0,0.0,0.0
550.5064,408.3418,12808063,0.725,0.08510638,-328.75714,920.4195,0.0171237,-0.0071195364,0.028673172,0.0,0.0,0.0
545.42633,413.78442,12808080,0.71250004,0.07446808,-546.7904,261.20477,0.0171237,-0.0071195364,0.028673172,0.0,0.0,0.0
541.24316,418.41333,12808096,0.725,0.08510638,-502.47928,-22.273666,0.0171237,-0.0071195364,0.028673172,0.0,0.0,0.0
535.48004,421.12268,12808113,0.7375,0.07446808,-412.68887,-14.329805,-0.034301043,-0.005695641,-0.009061813,0.0,0.0,0.0
533.0943,421.02686,12808130,0.725,0.07446808,-292.36194,-71.23064,-0.034301043,-0.005695641,-0.009061813,0.0,0.0,0.0
531.6663,421.02686,12808146,0.725,0.07446808,-146.45267,-99.65313,-0.034301043,-0.005695641,-0.009061813,0.0,0.0,0.0
531.3049,421.02686,12808163,0.725,0.09574468,-7.2290907,-131.52621,-0.034301043,-0.005695641,-0.009061813,0.0,0.0,0.0
535.04535,422.2832,12808180,0.75,0.08510638,164.88953,-65.92138,-0.034301043,-0.005695641,-0.009061813,0.0,0.0,0.0
544.51666,425.4602,12808196,0.7375,0.06382979,471.5028,124.8255,-0.034301043,-0.005695641,-0.009061813,0.0,0.0,0.0
557.26953,430.78674,12808213,0.7375,0.06382979,836.42596,290.15558,-0.034301043,-0.005695641,-0.009061813,0.0,0.0,0.0
570.2426,437.87915,12808230,0.7375,0.08510638,1085.8428,474.63385,-0.034301043,-0.005695641,-0.009061813,0.0,0.0,0.0
577.9147,442.7212,12808247,0.7375,0.11702127,910.53326,499.32608,-0.034301043,-0.005695641,-0.009061813,0.0,0.0,0.0
584.2934,448.04358,12808263,0.7375,0.12765957,508.47516,398.276,-0.034301043,-0.005695641,-0.009061813,0.0,0.0,0.0
591.86285,455.30322,12808280,0.7375,0.12765957,269.62762,363.67645,-0.034301043,-0.005695641,-0.009061813,0.0,0.0,0.0
600.1971,462.71057,12808297,0.7375,0.09574468,291.0515,403.1599,-0.034301043,-0.005695641,-0.009061813,0.0,0.0,0.0
606.9532,468.27124,12808313,0.725,0.08510638,422.0166,437.9685,-0.034301043,-0.005695641,-0.009061813,0.0,0.0,0.0
613.69257,472.80554,12808330,0.71250004,0.08510638,443.679,363.3419,-0.034301043,-0.005695641,-0.009061813,0.0,0.0,0.0
617.116,474.53784,12808347,0.4375,0.08510638,309.5592,168.56837,-0.034301043,-0.005695641,-0.009061813,0.0,0.0,0.0
617.77673,474.33704,12808354,0.175,0.07446808,230.00023,78.541824,-0.034301043,-0.005695641,-0.009061813,0.0,0.0,0.0
617.77673,474.33704,12808360,0.175,0.07446808,230.00023,78.541824,-0.034301043,-0.005695641,-0.009061813,0.0,0.0,0.0
542.80115,381.0443,12808530,0.7,0.07446808,0.0,0.0,-0.034301043,-0.005695641,-0.009061813,0.0,0.0,0.0
542.80115,381.0443,12808547,0.7375,0.07446808,0.36752102,0.24984564,-0.034301043,-0.005695641,-0.009061813,0.0,0.0,0.0
542.80115,381.0443,12808558,0.75,0.08510638,0.020910833,0.011897382,-0.034301043,-0.005695641,-0.009061813,0.0,0.0,0.0
558.2961,377.49023,12808578,0.75,0.08510638,921.5231,-211.34026,-0.034301043,-0.005695641,-0.009061813,0.0,0.0,0.0
576.45197,375.71326,12808598,0.7375,0.09574468,1271.9259,-195.02625,-0.034301043,-0.005695641,-0.009061813,0.0,0.0,0.0
590.2176,373.5122,12808614,0.575,0.07446808,1244.3292,-161.52875,-0.034301043,-0.005695641,-0.009061813,0.0,0.0,0.0
591.7852,373.04773,12808618,0.2125,0.053191487,1167.9325,-154.38701,-0.034301043,-0.005695641,-0.009061813,0.0,0.0,0.0
591.7852,373.04773,12808626,0.2125,0.053191487,1167.9325,-154.38701,-0.034301043,-0.005695641,-0.009061813,0.0,0.0,0.0
724.74194,386.37524,12808884,0.6125,0.053191487,0.0,0.0,-0.011440836,0.011443481,-0.007249832,0.0,0.0,0.0
724.74194,386.37524,12808915,0.675,0.06382979,-0.019226,-0.0118956715,-0.011440836,0.011443481,-0.007249832,0.0,0.0,0.0
724.74194,386.37524,12808932,0.7,0.06382979,-0.016317984,-0.009368705,-0.011440836,0.011443481,-0.007249832,0.0,0.0,0.0
724.74194,386.37524,12808944,0.71250004,0.08510638,-0.008635881,-0.0054018134,-0.011440836,0.011443481,-0.007249832,0.0,0.0,0.0
708.2473,370.3822,12808964,0.71250004,0.11702127,-587.60864,-569.75665,-0.011440836,0.011443481,-0.007249832,0.0,0.0,0.0
686.4341,359.82324,12808982,0.725,0.10638297,-1149.2438,-837.08685,-0.011440836,0.011443481,-0.007249832,0.0,0.0,0.0
665.82526,355.61694,12808999,0.725,0.12765957,-1601.7527,-776.1732,-0.011440836,0.011443481,-0.007249832,0.0,0.0,0.0
650.592,357.39417,12809015,0.7375,0.11702127,-1507.5254,-223.28806,-0.011440836,0.011443481,-0.007249832,0.0,0.0,0.0
635.74097,361.73254,12809032,0.725,0.08510638,-1060.7334,427.57928,-0.011440836,0.011443481,-0.007249832,0.0,0.0,0.0
624.59814,369.20618,12809049,0.7375,0.08510638,-611.9123,638.33673,-0.011440836,0.011443481,-0.007249832,0.0,0.0,0.0
616.0138,380.62402,12809065,0.7375,0.08510638,-416.63925,787.02814,-0.011440836,0.011443481,-0.007249832,0.0,0.0,0.0
611.0786,395.79553,12809082,0.7375,0.10638297,-262.51147,1001.3709,-0.011440836,0.011443481,-0.007249832,0.0,0.0,0.0
611.52954,410.37036,12809099,0.7375,0.08510638,23.997105,1121.4937,-0.011440836,0.011443481,-0.007249832,0.0,0.0,0.0
615.5144,422.95374,12809116,0.725,0.06382979,320.18146,1029.0841,-0.011440836,0.011443481,-0.007249832,0.0,0.0,0.0
622.95325,431.4348,12809132,0.725,0.08510638,604.234,769.14557,-0.011440836,0.011443481,-0.007249832,0.0,0.0,0.0
632.92163,436.85022,12809149,0.725,0.08510638,800.5027,387.2561,-0.011440836,0.011443481,-0.007249832,0.0,0.0,0.0
647.8738,436.948,12809166,0.71250004,0.07446808,962.53424,19.614376,0.022847332,-0.006845206,0.0102005005,0.0,0.0,0.0
666.93835,428.08203,12809182,0.725,0.08510638,1206.0902,-448.27808,0.022847332,-0.006845206,0.0102005005,0.0,0.0,0.0
681.16223,416.11,12809199,0.71250004,0.12765957,1260.4723,-903.19183,0.022847332,-0.006845206,0.0102005005,0.0,0.0,0.0
689.42865,406.20764,12809216,0.725,0.11702127,955.0043,-1067.0367,0.022847332,-0.006845206,0.0102005005,0.0,0.0,0.0
696.3206,391.2456,12809233,0.7375,0.09574468,505.77042,-1116.2114,0.022847332,-0.006845206,0.0102005005,0.0,0.0,0.0
700.45966,382.01843,12809249,0.7375,0.08510638,97.6194,-885.64276,0.022847332,-0.006845206,0.0102005005,0.0,0.0,0.0
702.7491,376.10132,12809266,0.7625,0.08510638,-29.688223,-540.6809,0.022847332,-0.006845206,0.0102005005,0.0,0.0,0.0
703.4988,374.38037,12809282,0.75,0.08510638,-70.8602,-241.21132,0.022847332,-0.006845206,0.0102005005,0.0,0.0,0.0
703.2489,376.09668,12809299,0.7625,0.09574468,-116.85598,198.23756,0.022847332,-0.006845206,0.0102005005,0.0,0.0,0.0
701.5486,384.42383,12809316,0.75,0.09574468,-169.6152,535.29553,0.022847332,-0.006845206,0.0102005005,0.0,0.0,0.0
697.9934,395.39392,12809333,0.7375,0.12765957,-242.28098,830.92926,0.022847332,-0.006845206,0.0102005005,0.0,0.0,0.0
695.7975,408.3009,12809350,0.7375,0.11702127,-257.4947,1011.11,0.022847332,-0.006845206,0.0102005005,0.0,0.0,0.0
696.2687,426.66846,12809366,0.725,0.09574468,-148.77274,1205.0304,0.022847332,-0.006845206,0.0102005005,0.0,0.0,0.0
700.54846,439.43396,12809383,0.7,0.10638297,154.56676,1103.1366,0.022847332,-0.006845206,0.0102005005,0.0,0.0,0.0
706.33545,448.37805,12809400,0.6625,0.10638297,392.58316,855.32574,0.022847332,-0.006845206,0.0102005005,0.0,0.0,0.0
714.48145,456.46338,12809416,0.25,0.10638297,612.9478,535.918,0.022847332,-0.006845206,0.0102005005,0.0,0.0,0.0
714.48145,456.46338,12809421,0.25,0.10638297,612.9478,535.918,0.022847332,-0.006845206,0.0102005005,0.0,0.0,0.0
656.2642,223.77917,12809663,0.7,0.08510638,0.0,0.0,0.022847332,-0.006845206,0.0102005005,0.0,0.0,0.0
656.2642,223.77917,12809684,0.71250004,0.08510638,-0.0931311,-0.030906614,0.022847332,-0.006845206,0.0102005005,0.0,0.0,0.0
656.2642,223.77917,12809700,0.75,0.10638297,-0.046575338,-0.015577453,-0.013722137,-0.021476164,-0.02383995,0.0,0.0,0.0
657.10834,245.6156,12809717,0.75,0.10638297,45.919083,1231.9286,-0.013722137,-0.021476164,-0.02383995,0.0,0.0,0.0
661.1711,269.9137,12809734,0.7375,0.08510638,189.8078,1898.7828,-0.013722137,-0.021476164,-0.02383995,0.0,0.0,0.0
669.04584,292.88513,12809751,0.7,0.10638297,403.057,2062.1248,-0.013722137,-0.021476164,-0.02383995,0.0,0.0,0.0
674.25836,301.9674,12809760,0.2875,0.08510638,525.231,2009.882,-0.013722137,-0.021476164,-0.02383995,0.0,0.0,0.0
674.25836,301.9674,12809767,0.2875,0.08510638,525.231,2009.882,-0.013722137,-0.021476164,-0.02383995,0.0,0.0,0.0
716.2447,449.45898,12810059,0.5625,0.09574468,0.0,0.0,-0.013722137,-0.021476164,-0.02383995,0.0,0.0,0.0
716.2447,449.45898,12810085,0.6625,0.09574468,-0.0048287674,-0.0011418506,-0.013722137,-0.021476164,-0.02383995,0.0,0.0,0.0
716.2447,449.45898,12810101,0.7,0.09574468,0.062326327,0.037160747,-0.013722137,-0.021476164,-0.02383995,0.0,0.0,0.0
716.2447,449.45898,12810118,0.725,0.09574468,4.2102012E-4,-0.0027892664,-0.013722137,-0.021476164,-0.02383995,0.0,0.0,0.0
716.2447,449.45898,12810131,0.7375,0.09574468,0.050876535,0.02828526,-0.013722137,-0.021476164,-0.02383995,0.0,0.0,0.0
724.93146,446.79663,12810152,0.7375,0.09574468,146.69756,-45.007805,-0.013722137,-0.021476164,-0.02383995,0.0,0.0,0.0
738.884,440.58728,12810168,0.71250004,0.08510638,748.9874,-277.01965,-0.013722137,-0.021476164,-0.02383995,0.0,0.0,0.0
746.8762,432.10803,12810185,0.725,0.08510638,979.0889,-529.6358,-0.013722137,-0.021476164,-0.02383995,0.0,0.0,0.0
754.2112,421.79858,12810202,0.7375,0.10638297,818.65643,-746.4981,-0.013722137,-0.021476164,-0.02383995,0.0,0.0,0.0
758.54047,412.56482,12810218,0.725,0.12765957,429.19293,-783.91125,-0.013722137,-0.021476164,-0.02383995,0.0,0.0,0.0
764.20264,398.89648,12810235,0.7375,0.10638297,68.552414,-781.02875,-0.010977708,0.030819058,0.012928009,0.0,0.0,0.0
764.1952,386.90247,12810252,0.7375,0.08510638,76.776375,-837.01764,-0.010977708,0.030819058,0.012928009,0.0,0.0,0.0
761.0046,375.93372,12810269,0.725,0.09574468,-159.74866,-781.04083,-0.010977708,0.030819058,0.012928009,0.0,0.0,0.0
757.8858,367.5824,12810285,0.725,0.11702127,-339.12363,-636.726,-0.010977708,0.030819058,0.012928009,0.0,0.0,0.0
756.56134,362.36658,12810302,0.725,0.12765957,-352.0612,-378.81503,-0.010977708,0.030819058,0.012928009,0.0,0.0,0.0
756.2317,358.24133,12810319,0.7375,0.12765957,-197.487,-165.18011,-0.010977708,0.030819058,0.012928009,0.0,0.0,0.0
756.6923,355.7567,12810335,0.725,0.12765957,41.65195,-61.641106,-0.010977708,0.030819058,0.012928009,0.0,0.0,0.0
763.68945,353.91614,12810352,0.725,0.12765957,257.47403,-17.959854,-0.010977708,0.030819058,0.012928009,0.0,0.0,0.0
776.09906,353.5006,12810369,0.7375,0.10638297,667.5274,28.59387,-0.010977708,0.030819058,0.012928009,0.0,0.0,0.0
790.0042,353.5006,12810386,0.725,0.12765957,1034.1923,69.88873,-0.010977708,0.030819058,0.012928009,0.0,0.0,0.0
798.5377,354.38916,12810402,0.71250004,0.11702127,1040.2495,99.95634,-0.010977708,0.030819058,0.012928009,0.0,0.0,0.0
802.5055,356.04114,12810419,0.725,0.11702127,619.01776,124.660446,-0.010977708,0.030819058,0.012928009,0.0,0.0,0.0
805.1452,357.8805,12810436,0.725,0.09574468,111.51955,153.68849,-0.010977708,0.030819058,0.012928009,0.0,0.0,0.0
808.2328,367.797,12810452,0.75,0.09574468,-64.67312,384.85696,-0.010977708,0.030819058,0.012928009,0.0,0.0,0.0
807.1127,378.92493,12810469,0.75,0.09574468,-131.68843,685.23553,-0.010977708,0.030819058,0.012928009,0.0,0.0,0.0
804.9032,390.15173,12810486,0.7375,0.12765957,-169.77995,875.1325,-0.010977708,0.030819058,0.012928009,0.0,0.0,0.0
801.27527,399.99182,12810502,0.725,0.10638297,-280.89114,865.4498,-0.010977708,0.030819058,0.012928009,0.0,0.0,0.0
797.379,413.66467,12810519,0.7375,0.08510638,-370.30045,813.2362,-0.010977708,0.030819058,0.012928009,0.0,0.0,0.0
797.6309,426.25916,12810536,0.71250004,0.07446808,-257.29156,792.115,-0.010977708,0.030819058,0.012928009,0.0,0.0,0.0
799.4584,436.55933,12810553,0.71250004,0.08510638,40.293247,781.8453,-0.010977708,0.030819058,0.012928009,0.0,0.0,0.0
802.36536,440.70618,12810569,0.6875,0.11702127,259.22977,484.829,-0.010977708,0.030819058,0.012928009,0.0,0.0,0.0
808.52954,443.8236,12810586,0.6375,0.10638297,427.10165,114.2963,-0.010977708,0.030819058,0.012928009,0.0,0.0,0.0
820.7107,439.68542,12810597,0.2,0.053191487,617.80164,-128.18533,-0.010977708,0.030819058,0.012928009,0.0,0.0,0.0
820.7107,439.68542,12810604,0.2,0.053191487,617.80164,-128.18533,-0.010977708,0.030819058,0.012928009,0.0,0.0,0.0
883.19037,364.16272,12810727,0.6125,0.08510638,0.0,0.0,-0.010977708,0.030819058,0.012928009,0.0,0.0,0.0
883.19037,364.16272,12810753,0.7,0.09574468,3.60543E-4,7.220389E-4,-0.010977708,0.030819058,0.012928009,0.0,0.0,0.0
883.19037,364.16272,12810770,0.725,0.10638297,0.076087184,0.033212174,-0.024782166,-0.02334474,-0.0056581497,0.0,0.0,0.0
883.19037,364.16272,12810787,0.7375,0.08510638,-0.012548711,-0.0043469537,-0.024782166,-0.02334474,-0.0056581497,0.0,0.0,0.0
883.19037,364.16272,12810803,0.75,0.09574468,-0.048284,-0.01937574,-0.024782166,-0.02334474,-0.0056581497,0.0,0.0,0.0
875.6331,374.2379,12810820,0.725,0.09574468,-148.73366,198.28836,-0.024782166,-0.02334474,-0.0056581497,0.0,0.0,0.0
864.62897,396.69592,12810837,0.71250004,0.12765957,-585.6864,971.30365,-0.024782166,-0.02334474,-0.0056581497,0.0,0.0,0.0
861.2924,411.46704,12810853,0.71250004,0.09574468,-681.8252,1447.8795,-0.024782166,-0.02334474,-0.0056581497,0.0,0.0,0.0
861.69806,425.47815,12810870,0.71250004,0.08510638,-315.12402,1376.556,-0.024782166,-0.02334474,-0.0056581497,0.0,0.0,0.0
864.31976,435.60803,12810887,0.7,0.09574468,137.87654,941.0496,-0.024782166,-0.02334474,-0.0056581497,0.0,0.0,0.0
866.85425,440.8557,12810904,0.71250004,0.10638297,475.73816,232.52083,-0.024782166,-0.02334474,-0.0056581497,0.0,0.0,0.0
874.2986,445.2854,12810920,0.71250004,0.09574468,496.8442,104.94975,-0.024782166,-0.02334474,-0.0056581497,0.0,0.0,0.0
887.85956,446.79346,12810937,0.71250004,0.09574468,708.38947,-47.075665,-0.024782166,-0.02334474,-0.0056581497,0.0,0.0,0.0
899.6147,444.29688,12810954,0.7,0.08510638,907.1063,-211.53412,-0.024782166,-0.02334474,-0.0056581497,0.0,0.0,0.0
908.3293,434.9292,12810970,0.71250004,0.08510638,892.8386,-505.28394,-0.024782166,-0.02334474,-0.0056581497,0.0,0.0,0.0
914.7303,424.4917,12810987,0.7,0.11702127,583.7338,-809.38684,-0.024782166,-0.02334474,-0.0056581497,0.0,0.0,0.0
922.75574,405.87744,12811004,0.71250004,0.10638297,344.4907,-1161.2397,-0.024782166,-0.02334474,-0.0056581497,0.0,0.0,0.0
926.38513,390.2218,12811021,0.725,0.08510638,222.21057,-1302.7748,-0.024782166,-0.02334474,-0.0056581497,0.0,0.0,0.0
926.28265,379.32373,12811037,0.725,0.08510638,53.992382,-1111.0486,-0.024782166,-0.02334474,-0.0056581497,0.0,0.0,0.0
924.8069,372.50598,12811054,0.725,0.09574468,-155.35646,-683.34296,-0.024782166,-0.02334474,-0.0056581497,0.0,0.0,0.0
921.76685,368.71082,12811071,0.7375,0.09574468,-339.96466,-180.20088,-0.024782166,-0.02334474,-0.0056581497,0.0,0.0,0.0
913.54803,365.91614,12811087,0.7375,0.08510638,-495.96353,69.0306,-0.024782166,-0.02334474,-0.0056581497,0.0,0.0,0.0
902.6381,365.05115,12811104,0.75,0.08510638,-685.14825,113.31764,-0.024782166,-0.02334474,-0.0056581497,0.0,0.0,0.0
892.8429,365.05115,12811121,0.7375,0.08510638,-816.23413,117.12617,-0.024782166,-0.02334474,-0.0056581497,0.0,0.0,0.0
883.9561,366.97314,12811137,0.7375,0.08510638,-784.9215,161.24883,-0.024782166,-0.02334474,-0.0056581497,0.0,0.0,0.0
877.02704,370.18396,12811154,0.7375,0.09574468,-588.6325,231.8506,-0.024782166,-0.02334474,-0.0056581497,0.0,0.0,0.0
872.4515,374.88745,12811171,0.725,0.09574468,-322.5974,309.01535,-0.024782166,-0.02334474,-0.0056581497,0.0,0.0,0.0
867.98645,383.6123,12811188,0.7375,0.11702127,-175.80519,494.9301,-0.024782166,-0.02334474,-0.0056581497,0.0,0.0,0.0
866.69574,390.57642,12811204,0.7375,0.12765957,-76.52335,598.4511,-0.024782166,-0.02334474,-0.0056581497,0.0,0.0,0.0
868.3515,397.31506,12811221,0.725,0.12765957,87.68761,576.88043,-0.024782166,-0.02334474,-0.0056581497,0.0,0.0,0.0
872.86755,402.52283,12811238,0.725,0.10638297,295.29697,411.89627,-0.024782166,-0.02334474,-0.0056581497,0.0,0.0,0.0
884.26855,408.89343,12811254,0.725,0.09574468,618.63855,296.14233,-0.024782166,-0.02334474,-0.0056581497,0.0,0.0,0.0
898.23883,412.03674,12811271,0.7375,0.10638297,938.0311,247.03131,-0.024782166,-0.02334474,-0.0056581497,0.0,0.0,0.0
910.4914,413.0304,12811288,0.725,0.11702127,1076.4647,117.820465,-0.024782166,-0.02334474,-0.0056581497,0.0,0.0,0.0
925.4726,409.41052,12811305,0.7375,0.10638297,1071.5437,-146.03085,0.012174267,-0.0026758015,-0.0045261383,0.0,0.0,0.0
941.3089,402.78125,12811321,0.7375,0.12765957,1023.6452,-441.1585,0.012174267,-0.0026758015,-0.0045261383,0.0,0.0,0.0
954.0978,396.802,12811338,0.7375,0.09574468,927.94025,-587.6302,0.012174267,-0.0026758015,-0.0045261383,0.0,0.0,0.0
963.81506,386.61816,12811355,0.7375,0.09574468,770.44977,-676.43805,0.012174267,-0.0026758015,-0.0045261383,0.0,0.0,0.0
973.8025,373.16064,12811371,0.7375,0.10638297,573.6296,-817.45416,0.012174267,-0.0026758015,-0.0045261383,0.0,0.0,0.0
979.7593,362.70483,12811388,0.7375,0.12765957,319.8562,-859.24994,0.012174267,-0.0026758015,-0.0045261383,0.0,0.0,0.0
985.43823,347.5962,12811405,0.7375,0.10638297,228.31848,-937.2953,0.012174267,-0.0026758015,-0.0045261383,0.0,0.0,0.0
985.8557,336.96204,12811422,0.75,0.08510638,84.184494,-848.6393,0.012174267,-0.0026758015,-0.0045261383,0.0,0.0,0.0
983.1395,328.5901,12811438,0.7375,0.09574468,-183.98697,-643.3948,0.012174267,-0.0026758015,-0.0045261383,0.0,0.0,0.0
980.5366,324.6277,12811455,0.7625,0.09574468,-356.73224,-339.9744,0.012174267,-0.0026758015,-0.0045261383,0.0,0.0,0.0
977.32324,321.6598,12811472,0.7625,0.09574468,-411.55072,-37.028637,0.012174267,-0.0026758015,-0.0045261383,0.0,0.0,0.0
974.74744,320.62598,12811488,0.77500004,0.09574468,-311.92432,106.85685,0.012174267,-0.0026758015,-0.0045261383,0.0,0.0,0.0
972.6664,322.39392,12811505,0.7625,0.09574468,-175.6857,170.9408,0.012174267,-0.0026758015,-0.0045261383,0.0,0.0,0.0
972.7007,328.90283,12811522,0.75,0.11702127,-58.70883,356.91565,0.012174267,-0.0026758015,-0.0045261383,0.0,0.0,0.0
975.8396,335.05444,12811539,0.75,0.12765957,119.962326,538.6902,0.012174267,-0.0026758015,-0.0045261383,0.0,0.0,0.0
984.2152,345.86865,12811555,0.7625,0.10638297,403.345,703.83374,0.012174267,-0.0026758015,-0.0045261383,0.0,0.0,0.0
999.7567,360.82605,12811572,0.7375,0.08510638,843.06866,909.19073,0.012174267,-0.0026758015,-0.0045261383,0.0,0.0,0.0
1013.76,375.98352,12811589,0.725,0.09574468,1148.2295,1068.382,0.012174267,-0.0026758015,-0.0045261383,0.0,0.0,0.0
1024.728,386.6554,12811605,0.725,0.11702127,1078.0187,994.99756,0.012174267,-0.0026758015,-0.0045261383,0.0,0.0,0.0
1033.5966,395.01868,12811622,0.71250004,0.12765957,732.50616,680.82007,0.012174267,-0.0026758015,-0.0045261383,0.0,0.0,0.0
1041.0088,402.80652,12811639,0.7375,0.09574468,396.32248,369.36966,0.012174267,-0.0026758015,-0.0045261383,0.0,0.0,0.0
1045.6968,410.47034,12811655,0.7375,0.08510638,210.35051,268.25333,0.012174267,-0.0026758015,-0.0045261383,0.0,0.0,0.0
1047.6368,421.6565,12811672,0.71250004,0.08510638,95.42183,446.5795,0.012174267,-0.0026758015,-0.0045261383,0.0,0.0,0.0
1044.0413,431.98022,12811689,0.725,0.08510638,-147.53838,633.20795,0.012174267,-0.0026758015,-0.0045261383,0.0,0.0,0.0
1038.3417,438.59204,12811706,0.725,0.11702127,-437.3503,610.1192,0.012174267,-0.0026758015,-0.0045261383,0.0,0.0,0.0
1028.5448,446.87097,12811722,0.71250004,0.12765957,-702.9062,501.1372,0.012174267,-0.0026758015,-0.0045261383,0.0,0.0,0.0
1017.6509,454.25378,12811739,0.71250004,0.10638297,-860.61096,392.43546,0.012174267,-0.0026758015,-0.0045261383,0.0,0.0,0.0
1006.5398,459.72583,12811756,0.675,0.10638297,-861.1699,326.9132,0.012174267,-0.0026758015,-0.0045261383,0.0,0.0,0.0
1005.15063,460.1211,12811762,0.4,0.12765957,-805.3491,290.49396,0.012174267,-0.0026758015,-0.0045261383,0.0,0.0,0.0
1005.15063,460.1211,12811770,0.4,0.12765957,-805.3491,290.49396,0.012174267,-0.0026758015,-0.0045261383,0.0,0.0,0.0
