x,y,timestamp,pressure,fingerarea,velocityx,velocityy,accelx,accely,accelz,gyrox,gyroy,gyroz
216.90726,261.0963,77971706,0.5625,0.07446808,0.0,0.0,-0.005234599,-0.024769723,-0.0076179504,0.0,0.0,0.0
216.90726,261.0963,77971729,0.675,0.08510638,0.015145326,0.015328542,-0.005234599,-0.024769723,-0.0076179504,0.0,0.0,0.0
216.90726,261.0963,77971746,0.75,0.08510638,0.024421677,0.029872393,-0.005234599,-0.024769723,-0.0076179504,0.0,0.0,0.0
216.90726,261.0963,77971762,0.7875,0.08510638,-8.5400284E-4,-7.538433E-4,-0.005234599,-0.024769723,-0.0076179504,0.0,0.0,0.0
216.90726,261.0963,77971779,0.8125,0.08510638,-0.012039028,-0.015810246,-0.005234599,-0.024769723,-0.0076179504,0.0,0.0,0.0
216.90726,261.0963,77971796,0.825,0.09574468,-0.0013822409,9.261827E-6,-0.005234599,-0.024769723,-0.0076179504,0.0,0.0,0.0
214.16711,274.31714,77971812,0.83750004,0.09574468,-65.53758,316.14032,-0.005234599,-0.024769723,-0.0076179504,0.0,0.0,0.0
211.9939,286.7782,77971829,0.825,0.12765957,-161.93304,833.3649,-0.005234599,-0.024769723,-0.0076179504,0.0,0.0,0.0
210.05606,301.66077,77971846,0.825,0.09574468,-201.07909,1182.0217,-0.005234599,-0.024769723,-0.0076179504,0.0,0.0,0.0
208.90985,317.28638,77971863,0.825,0.09574468,-149.30273,1223.025,0.0118122995,0.028184235,-0.022094727,0.0,0.0,0.0
208.90985,333.17944,77971879,0.825,0.11702127,-35.23515,1109.232,0.0118122995,0.028184235,-0.022094727,0.0,0.0,0.0
208.42618,345.30273,77971896,0.83750004,0.12765957,40.397343,886.06573,0.0118122995,0.028184235,-0.022094727,0.0,0.0,0.0
208.41,360.078,77971913,0.83750004,0.09574468,31.303005,843.69934,0.0118122995,0.028184235,-0.022094727,0.0,0.0,0.0
207.84244,377.80627,77971929,0.8125,0.09574468,7.133131,904.20874,0.0118122995,0.028184235,-0.022094727,0.0,0.0,0.0
208.52399,391.34778,77971946,0.825,0.12765957,3.631943,929.92993,0.0118122995,0.028184235,-0.022094727,0.0,0.0,0.0
208.70627,405.6266,77971963,0.825,0.11702127,16.245691,904.95795,0.0118122995,0.028184235,-0.022094727,0.0,0.0,0.0
209.4097,425.00537,77971979,0.8,0.08510638,50.712463,1003.6262,0.0118122995,0.028184235,-0.022094727,0.0,0.0,0.0
210.13846,440.27563,77971996,0.8,0.10638297,60.24486,1049.6903,0.0118122995,0.028184235,-0.022094727,0.0,0.0,0.0
211.17398,450.0354,77972013,0.77500004,0.12765957,65.31375,897.69293,0.0118122995,0.028184235,-0.022094727,0.0,0.0,0.0
214.96866,461.8932,77972030,0.71250004,0.10638297,136.64107,615.458,0.0118122995,0.028184235,-0.022094727,0.0,0.0,0.0
216.90726,467.22913,77972041,0.2875,0.08510638,203.51234,496.5401,0.0118122995,0.028184235,-0.022094727,0.0,0.0,0.0
216.90726,467.22913,77972048,0.2875,0.08510638,203.51234,496.5401,0.0118122995,0.028184235,-0.022094727,0.0,0.0,0.0
192.41522,309.07544,77972420,0.65000004,0.08510638,0.0,0.0,0.00944984,0.0065473914,-0.0176754,0.0,0.0,0.0
192.41522,309.07544,77972447,0.7625,0.10638297,0.020275967,0.03066547,0.00944984,0.0065473914,-0.0176754,0.0,0.0,0.0
192.41522,309.07544,77972464,0.7875,0.12765957,0.0137261,0.020239018,0.00944984,0.0065473914,-0.0176754,0.0,0.0,0.0
192.41522,309.07544,77972481,0.8125,0.12765957,0.0036356887,0.00684486,0.00944984,0.0065473914,-0.0176754,0.0,0.0,0.0
197.05319,297.29773,77972498,0.825,0.10638297,109.279076,-277.4532,0.00944984,0.0065473914,-0.0176754,0.0,0.0,0.0
202.62967,283.17273,77972514,0.8125,0.09574468,345.7063,-875.6586,0.00944984,0.0065473914,-0.0176754,0.0,0.0,0.0
206.9707,274.3169,77972531,0.83750004,0.08510638,440.69342,-1072.9849,0.00944984,0.0065473914,-0.0176754,0.0,0.0,0.0
212.27911,265.76917,77972548,0.825,0.08510638,448.88837,-926.6236,0.00944984,0.0065473914,-0.0176754,0.0,0.0,0.0
216.9714,259.23376,77972564,0.85,0.10638297,329.94836,-468.94266,0.00944984,0.0065473914,-0.0176754,0.0,0.0,0.0
221.09692,255.59546,77972581,0.8625,0.09574468,242.52417,-129.2864,0.00944984,0.0065473914,-0.0176754,0.0,0.0,0.0
226.34912,254.87683,77972598,0.83750004,0.08510638,295.18182,-74.37152,0.00944984,0.0065473914,-0.0176754,0.0,0.0,0.0
232.64911,259.09448,77972614,0.83750004,0.08510638,326.37253,217.21986,0.00944984,0.0065473914,-0.0176754,0.0,0.0,0.0
239.52667,267.85754,77972631,0.83750004,0.08510638,401.01514,540.1054,0.00944984,0.0065473914,-0.0176754,0.0,0.0,0.0
247.05774,277.52515,77972648,0.8125,0.12765957,473.2562,791.4237,0.00944984,0.0065473914,-0.0176754,0.0,0.0,0.0
256.12488,287.28784,77972665,0.8125,0.12765957,546.009,858.84717,0.00944984,0.0065473914,-0.0176754,0.0,0.0,0.0
268.486,295.12402,77972681,0.8,0.10638297,667.2327,704.6754,0.00944984,0.0065473914,-0.0176754,0.0,0.0,0.0
283.94473,298.9922,77972698,0.7875,0.09574468,911.2667,413.97723,0.00944984,0.0065473914,-0.0176754,0.0,0.0,0.0
297.7835,297.99805,77972715,0.7875,0.12765957,1041.2592,38.99977,0.00944984,0.0065473914,-0.0176754,0.0,0.0,0.0
309.79242,292.7196,77972731,0.7875,0.12765957,959.0562,-356.88455,0.00944984,0.0065473914,-0.0176754,0.0,0.0,0.0
320.85095,285.49854,77972748,0.8,0.08510638,760.2998,-640.9147,0.00944984,0.0065473914,-0.0176754,0.0,0.0,0.0
329.78577,276.30127,77972765,0.8,0.08510638,541.3157,-787.1515,0.00944984,0.0065473914,-0.0176754,0.0,0.0,0.0
334.46338,268.92517,77972782,0.825,0.08510638,320.87402,-693.55133,0.00944984,0.0065473914,-0.0176754,0.0,0.0,0.0
336.49915,263.4131,77972798,0.83750004,0.09574468,89.98995,-509.1338,0.00944984,0.0065473914,-0.0176754,0.0,0.0,0.0
337.97357,259.8319,77972815,0.83750004,0.09574468,-76.72999,-289.7849,0.00944984,0.0065473914,-0.0176754,0.0,0.0,0.0
339.00748,258.18213,77972832,0.83750004,0.09574468,-122.273605,-86.1906,0.00944984,0.0065473914,-0.0176754,0.0,0.0,0.0
338.86755,256.32422,77972848,0.85,0.09574468,-98.15963,10.007834,0.00944984,0.0065473914,-0.0176754,0.0,0.0,0.0
338.86755,257.04492,77972865,0.85,0.08510638,-49.580444,64.10946,0.00944984,0.0065473914,-0.0176754,0.0,0.0,0.0
338.86755,262.53174,77972882,0.825,0.08510638,-44.518433,223.56204,0.00944984,0.0065473914,-0.0176754,0.0,0.0,0.0
338.86755,274.06458,77972899,0.825,0.08510638,-24.095238,597.0447,0.00944984,0.0065473914,-0.0176754,0.0,0.0,0.0
337.69073,286.63232,77972915,0.8125,0.10638297,-31.567406,948.11865,0.00944984,0.0065473914,-0.0176754,0.0,0.0,0.0
334.861,301.77673,77972932,0.825,0.09574468,-112.41509,1133.3263,-0.02444011,-0.010762095,0.0018606186,0.0,0.0,0.0
330.78024,322.43115,77972949,0.8125,0.08510638,-236.78166,1279.0538,-0.02444011,-0.010762095,0.0018606186,0.0,0.0,0.0
327.04416,340.82434,77972965,0.8125,0.12765957,-320.521,1314.4353,-0.02444011,-0.010762095,0.0018606186,0.0,0.0,0.0
321.87558,366.81042,77972982,0.8125,0.09574468,-359.06073,1489.0485,-0.02444011,-0.010762095,0.0018606186,0.0,0.0,0.0
319.2855,387.97107,77972999,0.8,0.12765957,-280.63297,1585.5095,-0.02444011,-0.010762095,0.0018606186,0.0,0.0,0.0
318.2901,405.4911,77973016,0.7875,0.09574468,-137.22441,1360.9048,-0.02444011,-0.010762095,0.0018606186,0.0,0.0,0.0
318.3742,426.13074,77973032,0.7875,0.08510638,9.479405,1192.358,-0.02444011,-0.010762095,0.0018606186,0.0,0.0,0.0
319.07858,440.08997,77973049,0.7625,0.10638297,110.2427,912.64465,-0.02444011,-0.010762095,0.0018606186,0.0,0.0,0.0
321.84995,448.87646,77973066,0.7,0.12765957,188.45947,582.16614,-0.02444011,-0.010762095,0.0018606186,0.0,0.0,0.0
324.37225,454.79004,77973078,0.32500002,0.10638297,235.39912,437.05176,-0.02444011,-0.010762095,0.0018606186,0.0,0.0,0.0
324.37225,454.79004,77973086,0.32500002,0.10638297,235.39912,437.05176,-0.02444011,-0.010762095,0.0018606186,0.0,0.0,0.0
371.8568,369.49365,77973263,0.7375,0.09574468,0.0,0.0,-0.02444011,-0.010762095,0.0018606186,0.0,0.0,0.0
371.8568,369.49365,77973283,0.7875,0.09574468,-0.19714585,-0.19659042,-0.02444011,-0.010762095,0.0018606186,0.0,0.0,0.0
371.8568,369.49365,77973312,0.8,0.09574468,-0.01608863,-0.015553845,-0.02444011,-0.010762095,0.0018606186,0.0,0.0,0.0
376.70624,382.09253,77973350,0.8,0.08510638,128.47809,333.77344,-0.02444011,-0.010762095,0.0018606186,0.0,0.0,0.0
383.10944,391.7688,77973366,0.77500004,0.10638297,434.01184,895.43,-0.02444011,-0.010762095,0.0018606186,0.0,0.0,0.0
393.24976,398.52356,77973383,0.7625,0.10638297,709.869,780.7174,-0.02444011,-0.010762095,0.0018606186,0.0,0.0,0.0
406.36264,400.5913,77973400,0.7625,0.12765957,902.61694,466.81207,-0.02444011,-0.010762095,0.0018606186,0.0,0.0,0.0
415.55176,399.65625,77973417,0.75,0.11702127,792.0598,-240.90166,-0.02444011,-0.010762095,0.0018606186,0.0,0.0,0.0
422.82758,395.90137,77973433,0.77500004,0.08510638,648.89655,-424.7531,-0.02444011,-0.010762095,0.0018606186,0.0,0.0,0.0
427.2744,390.23706,77973450,0.7625,0.07446808,374.48538,-485.01138,-0.02444011,-0.010762095,0.0018606186,0.0,0.0,0.0
430.62067,382.4525,77973467,0.77500004,0.07446808,109.96161,-592.2054,-0.035552084,-0.008609682,-0.014512062,0.0,0.0,0.0
431.33743,374.29907,77973483,0.77500004,0.08510638,-30.368778,-632.56213,-0.035552084,-0.008609682,-0.014512062,0.0,0.0,0.0
429.39136,367.8114,77973500,0.77500004,0.11702127,-150.53317,-579.02673,-0.035552084,-0.008609682,-0.014512062,0.0,0.0,0.0
425.99835,363.20972,77973517,0.77500004,0.11702127,-288.08945,-411.9155,-0.035552084,-0.008609682,-0.014512062,0.0,0.0,0.0
416.69366,360.06836,77973534,0.8,0.10638297,-501.95566,-207.64563,-0.035552084,-0.008609682,-0.014512062,0.0,0.0,0.0
400.5014,362.4419,77973550,0.8125,0.08510638,-883.66425,54.239235,-0.035552084,-0.008609682,-0.014512062,0.0,0.0,0.0
385.7696,369.54272,77973567,0.8,0.08510638,-1196.4314,392.38,-0.035552084,-0.008609682,-0.014512062,0.0,0.0,0.0
375.56534,379.45508,77973584,0.8,0.09574468,-1121.8092,728.2824,-0.035552084,-0.008609682,-0.014512062,0.0,0.0,0.0
367.65674,387.82068,77973600,0.8,0.10638297,-736.7648,845.48206,-0.035552084,-0.008609682,-0.014512062,0.0,0.0,0.0
359.82007,403.35803,77973617,0.8,0.08510638,-368.58093,943.0672,-0.035552084,-0.008609682,-0.014512062,0.0,0.0,0.0
358.3612,418.11072,77973634,0.8125,0.08510638,-103.44985,998.89813,-0.035552084,-0.008609682,-0.014512062,0.0,0.0,0.0
362.66028,432.54333,77973651,0.7875,0.09574468,189.88388,1034.2335,-0.035552084,-0.008609682,-0.014512062,0.0,0.0,0.0
366.84842,440.3385,77973667,0.8,0.11702127,460.52274,836.245,-0.035552084,-0.008609682,-0.014512062,0.0,0.0,0.0
378.33255,448.96008,77973684,0.7875,0.12765957,752.1114,522.3531,-0.035552084,-0.008609682,-0.014512062,0.0,0.0,0.0
395.57132,455.50574,77973701,0.77500004,0.10638297,1068.3795,283.47568,-0.035552084,-0.008609682,-0.014512062,0.0,0.0,0.0
410.19434,457.88074,77973717,0.75,0.12765957,1220.3918,115.14035,-0.035552084,-0.008609682,-0.014512062,0.0,0.0,0.0
423.18774,456.95984,77973734,0.75,0.12765957,1151.7178,-47.147717,-0.035552084,-0.008609682,-0.014512062,0.0,0.0,0.0
439.60397,450.9724,77973751,0.5125,0.09574468,1013.3945,-359.88574,-0.035552084,-0.008609682,-0.014512062,0.0,0.0,0.0
440.83435,450.34753,77973754,0.175,0.06382979,984.2342,-398.91202,-0.035552084,-0.008609682,-0.014512062,0.0,0.0,0.0
440.83435,450.34753,77973761,0.175,0.06382979,984.2342,-398.91202,-0.035552084,-0.008609682,-0.014512062,0.0,0.0,0.0
455.32965,243.3263,77973963,0.7,0.10638297,0.0,0.0,-0.035552084,-0.008609682,-0.014512062,0.0,0.0,0.0
455.32965,243.3263,77973985,0.75,0.10638297,-0.005105299,-0.0032013408,-0.035552084,-0.008609682,-0.014512062,0.0,0.0,0.0
455.32965,243.3263,77974001,0.8,0.10638297,-0.03290537,-0.01809851,0.0035583377,-0.0068877637,0.0523901,3.355443E-6,0.0,0.0
455.32965,243.3263,77974018,0.825,0.12765957,-0.03146026,-0.0172906,0.0035583377,-0.0068877637,0.0523901,3.355443E-6,0.0,0.0
442.88254,268.98682,77974035,0.825,0.08510638,-508.67645,1041.2885,0.0035583377,-0.0068877637,0.0523901,3.355443E-6,0.0,0.0
441.86697,287.4486,77974052,0.75,0.10638297,-495.7509,1551.112,0.0035583377,-0.0068877637,0.0523901,3.355443E-6,0.0,0.0
441.834,302.49304,77974068,0.26250002,0.08510638,-259.75638,1652.6635,0.0035583377,-0.0068877637,0.0523901,0.0,0.0,0.0
441.834,302.49304,77974076,0.26250002,0.08510638,-259.75638,1652.6635,0.0035583377,-0.0068877637,0.0523901,0.0,0.0,0.0
453.83014,446.79346,77974340,0.625,0.07446808,0.0,0.0,0.0035583377,-0.0068877637,0.0523901,0.0,0.0,0.0
453.83014,446.79346,77974369,0.725,0.08510638,-0.017590368,-0.014325432,0.0035583377,-0.0068877637,0.0523901,0.0,0.0,0.0
453.83014,446.79346,77974386,0.7375,0.08510638,0.02266811,0.022301348,0.0035583377,-0.0068877637,0.0523901,0.0,0.0,0.0
453.83014,446.79346,77974402,0.77500004,0.08510638,0.006176943,0.0047778855,0.0035583377,-0.0068877637,0.0523901,0.0,0.0,0.0
453.83014,446.79346,77974409,0.7625,0.08510638,-0.0552069,-0.053273614,0.0035583377,-0.0068877637,0.0523901,0.0,0.0,0.0
453.83014,446.79346,77974429,0.7625,0.07446808,0.009310234,0.008466501,0.0035583377,-0.0068877637,0.0523901,0.0,0.0,0.0
473.62006,423.9336,77974453,0.7625,0.09574468,563.46246,-648.788,0.0035583377,-0.0068877637,0.0523901,0.0,0.0,0.0
482.4616,411.92737,77974469,0.77500004,0.10638297,822.692,-1001.9352,0.0035583377,-0.0068877637,0.0523901,0.0,0.0,0.0
490.25732,397.92273,77974486,0.7625,0.06382979,745.66693,-1085.8362,0.0035583377,-0.0068877637,0.0523901,0.0,0.0,0.0
498.2237,375.85876,77974503,0.7875,0.08510638,588.2082,-1276.5593,0.0035583377,-0.0068877637,0.0523901,0.0,0.0,0.0
499.81512,363.86633,77974519,0.77500004,0.10638297,138.0964,-1038.5607,0.0035583377,-0.0068877637,0.0523901,0.0,0.0,0.0
498.44495,356.95508,77974536,0.7875,0.12765957,-89.91152,-729.17535,0.0028466731,0.026489794,0.025912285,0.0,0.0,0.0
496.59845,352.7268,77974553,0.7875,0.12765957,-304.81894,-206.90163,0.0028466731,0.026489794,0.025912285,0.0,0.0,0.0
495.30457,350.38013,77974570,0.7875,0.12765957,-333.83618,163.09361,0.0028466731,0.026489794,0.025912285,0.0,0.0,0.0
493.71582,349.0581,77974586,0.8,0.12765957,-188.02303,130.84416,0.0028466731,0.026489794,0.025912285,0.0,0.0,0.0
492.4817,349.0581,77974603,0.7875,0.12765957,-101.775475,111.42456,0.0028466731,0.026489794,0.025912285,0.0,0.0,0.0
491.81775,349.7235,77974620,0.7875,0.12765957,-52.805687,110.54997,0.0028466731,0.026489794,0.025912285,0.0,0.0,0.0
492.73096,352.4585,77974636,0.7875,0.10638297,7.371186,175.83871,0.0028466731,0.026489794,0.025912285,0.0,0.0,0.0
497.95203,358.42773,77974653,0.77500004,0.08510638,174.18088,291.7163,0.0028466731,0.026489794,0.025912285,0.0,0.0,0.0
509.55365,370.11438,77974670,0.7625,0.08510638,534.123,579.68256,0.0028466731,0.026489794,0.025912285,0.0,0.0,0.0
523.17175,381.36792,77974687,0.7625,0.09574468,946.9972,863.5965,0.0028466731,0.026489794,0.025912285,0.0,0.0,0.0
538.3205,391.46375,77974703,0.75,0.12765957,1158.45,898.2022,0.0028466731,0.026489794,0.025912285,0.0,0.0,0.0
552.2927,399.6316,77974720,0.7625,0.10638297,1134.5348,725.5268,0.0028466731,0.026489794,0.025912285,0.0,0.0,0.0
563.53894,405.87927,77974737,0.75,0.09574468,898.2851,443.68353,0.0028466731,0.026489794,0.025912285,0.0,0.0,0.0
568.6571,410.51538,77974753,0.7375,0.08510638,517.38446,227.49245,0.0028466731,0.026489794,0.025912285,0.0,0.0,0.0
572.72504,416.40747,77974770,0.75,0.07446808,212.34799,179.56369,0.0028466731,0.026489794,0.025912285,0.0,0.0,0.0
575.06445,425.72278,77974787,0.75,0.07446808,-22.624062,355.7001,0.0028466731,0.026489794,0.025912285,0.0,0.0,0.0
572.8773,434.74316,77974804,0.75,0.08510638,-173.02911,567.997,0.0028466731,0.026489794,0.025912285,0.0,0.0,0.0
567.98676,439.6648,77974820,0.7625,0.09574468,-343.7149,552.7685,0.0028466731,0.026489794,0.025912285,0.0,0.0,0.0
556.88324,445.9879,77974837,0.7625,0.10638297,-649.90076,385.11066,0.0028466731,0.026489794,0.025912285,0.0,0.0,0.0
544.13257,450.96716,77974854,0.7625,0.12765957,-937.18555,255.77014,0.0028466731,0.026489794,0.025912285,0.0,0.0,0.0
534.14996,453.83313,77974870,0.7625,0.12765957,-988.87885,174.62442,0.0028466731,0.026489794,0.025912285,0.0,0.0,0.0
525.22815,454.79004,77974887,0.7625,0.10638297,-777.72345,82.41907,0.0028466731,0.026489794,0.025912285,0.0,0.0,0.0
518.512,454.79004,77974904,0.75,0.10638297,-497.41312,-47.736553,0.0028466731,0.026489794,0.025912285,0.0,0.0,0.0
515.6412,454.79004,77974920,0.65000004,0.10638297,-196.98923,-125.586395,0.0028466731,0.026489794,0.025912285,0.0,0.0,0.0
514.81024,454.79004,77974927,0.2875,0.09574468,-108.396034,-127.91134,0.0028466731,0.026489794,0.025912285,0.0,0.0,0.0
514.81024,454.79004,77974934,0.2875,0.09574468,-108.396034,-127.91134,0.0028466731,0.026489794,0.025912285,0.0,0.0,0.0
562.7946,397.92578,77975113,0.725,0.09574468,0.0,0.0,-0.013722658,-0.0108082,-0.04327011,0.0,0.0,0.0
562.7946,397.92578,77975138,0.7625,0.08510638,0.0032214005,0.005366354,-0.013722658,-0.0108082,-0.04327011,1.5005995E-5,7.5029975E-6,0.0
562.7946,397.92578,77975154,0.77500004,0.08510638,-0.010262278,-0.005822767,-0.013722658,-0.0108082,-0.04327011,1.5005995E-5,7.5029975E-6,0.0
564.34283,380.54614,77975171,0.7625,0.08510638,74.77001,-929.049,-0.013722658,-0.0108082,-0.04327011,1.5005995E-5,7.5029975E-6,0.0
567.6267,371.9613,77975188,0.7625,0.08510638,184.37196,-1068.7325,-0.013722658,-0.0108082,-0.04327011,1.5005995E-5,7.5029975E-6,0.0
574.6098,363.2041,77975205,0.7625,0.12765957,363.95584,-954.014,-0.013722658,-0.0108082,-0.04327011,0.0,0.0,0.0
581.5884,356.344,77975221,0.7625,0.12765957,533.7702,-691.27313,-0.013722658,-0.0108082,-0.04327011,0.0,0.0,0.0
589.3272,350.8108,77975238,0.7625,0.12765957,579.77234,-169.24686,-0.013722658,-0.0108082,-0.04327011,0.0,0.0,0.0
599.71075,349.0581,77975255,0.77500004,0.12765957,623.4282,-51.091526,-0.013722658,-0.0108082,-0.04327011,0.0,0.0,0.0
610.084,351.4148,77975271,0.7625,0.10638297,692.5798,80.1084,-0.013722658,-0.0108082,-0.04327011,0.0,0.0,0.0
619.4233,359.32825,77975288,0.7625,0.08510638,696.07623,440.36816,-0.013722658,-0.0108082,-0.04327011,0.0,0.0,0.0
628.30066,375.7716,77975305,0.7625,0.08510638,610.1192,933.3344,-0.013722658,-0.0108082,-0.04327011,0.0,0.0,0.0
631.88055,388.53748,77975322,0.7375,0.12765957,373.57828,1205.0939,-0.013722658,-0.0108082,-0.04327011,0.0,0.0,0.0
631.6943,402.58838,77975338,0.7375,0.10638297,57.206303,1190.3517,-0.013722658,-0.0108082,-0.04327011,0.0,0.0,0.0
626.33545,415.58655,77975355,0.725,0.06382979,-293.92825,1010.3939,-0.013722658,-0.0108082,-0.04327011,0.0,0.0,0.0
619.39856,425.0525,77975372,0.7375,0.06382979,-608.12805,726.7781,-0.013722658,-0.0108082,-0.04327011,0.0,0.0,0.0
609.8269,433.07678,77975388,0.7625,0.08510638,-782.78577,474.5422,-0.013722658,-0.0108082,-0.04327011,0.0,0.0,0.0
600.63873,437.43713,77975405,0.7625,0.09574468,-774.6947,265.47375,-0.013722658,-0.0108082,-0.04327011,0.0,0.0,0.0
593.9095,437.90845,77975422,0.75,0.08510638,-622.86444,-16.233551,-0.013722658,-0.0108082,-0.04327011,0.0,0.0,0.0
590.33844,436.45886,77975439,0.7625,0.07446808,-362.44443,-215.47815,-0.013722658,-0.0108082,-0.04327011,0.0,0.0,0.0
588.4338,434.61646,77975455,0.7625,0.08510638,-100.46818,-304.99548,-0.013722658,-0.0108082,-0.04327011,0.0,0.0,0.0
587.7865,432.81958,77975472,0.75,0.08510638,82.80594,-290.60712,-0.013722658,-0.0108082,-0.04327011,0.0,0.0,0.0
590.9202,430.9303,77975489,0.7625,0.08510638,198.07068,-194.77316,-0.013722658,-0.0108082,-0.04327011,0.0,0.0,0.0
600.9197,432.46997,77975505,0.77500004,0.07446808,461.9832,-64.404915,-0.013722658,-0.0108082,-0.04327011,0.0,0.0,0.0
614.4891,437.09497,77975522,0.77500004,0.08510638,861.0237,189.7702,-0.013722658,-0.0108082,-0.04327011,0.0,0.0,0.0
625.30133,442.63196,77975539,0.77500004,0.10638297,1038.4995,401.7551,-0.013722658,-0.0108082,-0.04327011,0.0,0.0,0.0
634.5993,447.28394,77975556,0.7625,0.11702127,915.2243,477.3304,-0.013722658,-0.0108082,-0.04327011,0.0,0.0,0.0
645.165,450.79895,77975572,0.7625,0.12765957,686.60425,391.42545,-0.013722658,-0.0108082,-0.04327011,0.0,0.0,0.0
654.42444,454.49133,77975589,0.75,0.12765957,531.7123,250.28857,-0.013722658,-0.0108082,-0.04327011,0.0,0.0,0.0
662.0028,456.93445,77975606,0.75,0.10638297,469.48227,154.91907,-0.0109781325,-0.008646578,-0.050616264,0.0,0.0,0.0
667.2466,458.78198,77975622,0.7375,0.10638297,368.47055,95.33751,-0.0109781325,-0.008646578,-0.050616264,0.0,0.0,0.0
671.6182,459.23254,77975639,0.675,0.10638297,200.75497,26.77031,-0.0109781325,-0.008646578,-0.050616264,0.0,0.0,0.0
673.25867,459.23254,77975650,0.25,0.12765957,114.04795,-15.114891,-0.0109781325,-0.008646578,-0.050616264,0.0,0.0,0.0
673.25867,459.23254,77975658,0.25,0.12765957,114.04795,-15.114891,-0.0109781325,-0.008646578,-0.050616264,0.0,0.0,0.0
613.2782,389.92932,77975796,0.71250004,0.08510638,0.0,0.0,-0.0109781325,-0.008646578,-0.050616264,0.0,0.0,0.0
613.2782,389.92932,77975823,0.7625,0.08510638,-0.0021996319,0.0015090085,-0.0109781325,-0.008646578,-0.050616264,0.0,0.0,0.0
613.2782,389.92932,77975839,0.77500004,0.08510638,0.036180492,0.021540904,-0.0109781325,-0.008646578,-0.050616264,0.0,0.0,0.0
634.8154,392.24463,77975856,0.77500004,0.09574468,1092.945,116.48217,-0.0109781325,-0.008646578,-0.050616264,0.0,0.0,0.0
652.8779,395.54688,77975873,0.77500004,0.10638297,1452.2598,202.8422,-0.0109781325,-0.008646578,-0.050616264,3.355443E-6,0.0,0.0
671.9543,397.71204,77975890,0.7625,0.10638297,1627.3384,230.70697,-0.0109781325,-0.008646578,-0.050616264,3.355443E-6,0.0,0.0
683.2728,397.92578,77975906,0.675,0.12765957,1381.0139,157.01253,-0.0109781325,-0.008646578,-0.050616264,3.355443E-6,0.0,0.0
683.75525,397.92578,77975908,0.45000002,0.12765957,1281.2501,135.45747,-0.0109781325,-0.008646578,-0.050616264,3.355443E-6,0.0,0.0
683.75525,397.92578,77975915,0.45000002,0.12765957,1281.2501,135.45747,-0.0109781325,-0.008646578,-0.050616264,3.355443E-6,0.0,0.0
762.22974,394.37183,77976149,0.6125,0.10638297,0.0,0.0,0.0072174966,-0.030917242,-0.08849239,0.0,0.0,0.0
762.22974,394.37183,77976174,0.6875,0.08510638,0.011994527,0.008370769,0.0072174966,-0.030917242,-0.08849239,0.0,0.0,0.0
762.22974,394.37183,77976190,0.71250004,0.08510638,-0.028704088,-0.015623163,0.0072174966,-0.030917242,-0.08849239,0.0,0.0,0.0
762.22974,394.37183,77976207,0.725,0.07446808,0.037312582,0.018630328,0.0072174966,-0.030917242,-0.08849239,0.0,0.0,0.0
762.22974,394.37183,77976224,0.7375,0.08510638,-0.027281014,-0.013625079,0.0072174966,-0.030917242,-0.08849239,0.0,0.0,0.0
762.22974,394.37183,77976240,0.725,0.08510638,-0.048016325,-0.022587946,0.0072174966,-0.030917242,-0.08849239,0.0,0.0,0.0
754.6387,389.46497,77976257,0.75,0.07446808,-130.1401,-84.122696,0.0072174966,-0.030917242,-0.08849239,0.0,0.0,0.0
730.2302,379.21863,77976274,0.7375,0.06382979,-1082.8035,-549.75476,0.0072174966,-0.030917242,-0.08849239,0.0,0.0,0.0
712.40454,378.95227,77976291,0.7625,0.09574468,-1694.7827,-526.8701,0.0072174966,-0.030917242,-0.08849239,0.0,0.0,0.0
699.7571,382.33435,77976307,0.77500004,0.08510638,-1558.6619,-131.36041,0.0072174966,-0.030917242,-0.08849239,0.0,0.0,0.0
690.97003,387.60608,77976324,0.77500004,0.08510638,-925.52454,384.96713,0.0072174966,-0.030917242,-0.08849239,0.0,0.0,0.0
684.1599,395.42944,77976341,0.7625,0.10638297,-231.98291,726.36664,0.0072174966,-0.030917242,-0.08849239,0.0,0.0,0.0
680.3036,407.40588,77976358,0.7625,0.09574468,-62.77114,774.59106,0.0072174966,-0.030917242,-0.08849239,0.0,0.0,0.0
682.34406,424.08484,77976374,0.75,0.07446808,125.34971,1003.24207,0.0072174966,-0.030917242,-0.08849239,0.0,0.0,0.0
687.5671,437.7987,77976391,0.725,0.09574468,390.15338,1131.6752,0.0072174966,-0.030917242,-0.08849239,0.0,0.0,0.0
694.6451,443.94507,77976408,0.71250004,0.12765957,604.7568,858.0981,0.0072174966,-0.030917242,-0.08849239,0.0,0.0,0.0
706.7947,449.70154,77976424,0.725,0.10638297,823.3548,444.21207,0.0072174966,-0.030917242,-0.08849239,0.0,0.0,0.0
721.39886,450.03284,77976441,0.7375,0.09574468,1006.07574,6.2361717,0.0072174966,-0.030917242,-0.08849239,0.0,0.0,0.0
735.4205,446.49048,77976458,0.7375,0.08510638,1092.8184,-328.59485,0.0072174966,-0.030917242,-0.08849239,0.0,0.0,0.0
745.308,438.70007,77976475,0.7375,0.08510638,937.87866,-547.5909,0.0072174966,-0.030917242,-0.08849239,0.0,0.0,0.0
754.03485,426.70898,77976491,0.75,0.08510638,600.84393,-869.03357,0.0072174966,-0.030917242,-0.08849239,0.0,0.0,0.0
761.59607,412.66992,77976508,0.7375,0.12765957,339.9379,-1020.9094,0.0072174966,-0.030917242,-0.08849239,0.0,0.0,0.0
766.8598,399.2351,77976525,0.75,0.08510638,252.06497,-1103.5187,0.0072174966,-0.030917242,-0.08849239,0.0,0.0,0.0
767.7279,392.18347,77976541,0.7625,0.08510638,108.152565,-851.9785,0.0072174966,-0.030917242,-0.08849239,0.0,0.0,0.0
767.7279,388.33252,77976558,0.7625,0.08510638,-80.20623,-391.5811,0.0072174966,-0.030917242,-0.08849239,0.0,0.0,0.0
766.72974,386.37793,77976575,0.7875,0.08510638,-222.12749,-0.6543107,0.0072174966,-0.030917242,-0.08849239,0.0,0.0,0.0
765.69415,387.32507,77976592,0.75,0.10638297,-225.00946,227.82387,0.0072174966,-0.030917242,-0.08849239,0.0,0.0,0.0
763.5926,393.0808,77976608,0.7625,0.12765957,-171.45178,368.29178,0.0072174966,-0.030917242,-0.08849239,0.0,0.0,0.0
764.95746,404.88208,77976625,0.75,0.08510638,-66.99116,665.51056,0.0072174966,-0.030917242,-0.08849239,0.0,0.0,0.0
769.11664,420.73145,77976642,0.75,0.07446808,115.49509,1041.7762,0.0072174966,-0.030917242,-0.08849239,0.0,0.0,0.0
775.4276,433.8252,77976658,0.71250004,0.08510638,370.2655,1214.701,0.0072174966,-0.030917242,-0.08849239,0.0,0.0,0.0
781.08295,440.44897,77976675,0.6875,0.09574468,520.72107,861.7249,-0.010226011,0.047266185,0.025206566,0.0,0.0,0.0
788.812,445.98584,77976692,0.65000004,0.12765957,558.02814,381.3699,-0.010226011,0.047266185,0.025206566,0.0,0.0,0.0
789.72076,446.79346,77976695,0.4625,0.12765957,549.7559,325.09647,-0.010226011,0.047266185,0.025206566,0.0,0.0,0.0
789.72076,446.79346,77976703,0.4625,0.12765957,549.7559,325.09647,-0.010226011,0.047266185,0.025206566,0.0,0.0,0.0
736.23816,257.54236,77976921,0.75,0.08510638,0.0,0.0,-0.010226011,0.047266185,0.025206566,0.0,0.0,0.0
736.23816,257.54236,77976942,0.77500004,0.08510638,-0.1472605,-0.0510452,-0.010226011,0.047266185,0.025206566,0.0,0.0,0.0
736.23816,257.54236,77976957,0.8125,0.08510638,-0.013147953,-0.004356251,-0.010226011,0.047266185,0.025206566,0.0,0.0,0.0
738.41736,270.71277,77976976,0.8,0.08510638,90.70971,548.13086,-0.010226011,0.047266185,0.025206566,0.0,0.0,0.0
741.6725,286.55994,77976993,0.77500004,0.12765957,214.5192,1155.6157,-0.010226011,0.047266185,0.025206566,0.0,0.0,0.0
745.32166,301.42456,77977009,0.6,0.08510638,278.16968,1304.4171,-0.010226011,0.047266185,0.025206566,0.0,0.0,0.0
745.32166,301.42456,77977016,0.6,0.08510638,278.16968,1304.4171,-0.010226011,0.047266185,0.025206566,0.0,0.0,0.0
798.218,440.57397,77978475,0.7375,0.07446808,0.0,0.0,-0.011635721,0.012040287,-0.08181381,0.0,0.0,0.0
798.218,440.57397,77978497,0.7625,0.08510638,-0.32189316,-0.1901481,-0.011635721,0.012040287,-0.08181381,0.0,0.0,0.0
798.218,440.57397,77978513,0.8125,0.08510638,0.044250738,0.022271588,-0.011635721,0.012040287,-0.08181381,0.0,0.0,0.0
798.218,440.57397,77978553,0.825,0.08510638,0.02196515,0.012097433,-0.011635721,0.012040287,-0.08181381,0.0,0.0,0.0
798.218,440.57397,77978580,0.8,0.08510638,0.0029722208,0.0015433421,-0.011635721,0.012040287,-0.08181381,0.0,0.0,0.0
798.218,440.57397,77978597,0.8,0.09574468,-0.027256979,-0.012761609,-0.011635721,0.012040287,-0.08181381,0.0,0.0,0.0
812.9562,420.68152,77978614,0.77500004,0.12765957,763.3792,-1026.2458,-0.011635721,0.012040287,-0.08181381,0.0,0.0,0.0
821.2777,407.02295,77978630,0.7875,0.10638297,939.0516,-1348.7433,-0.011635721,0.012040287,-0.08181381,0.0,0.0,0.0
828.48615,390.4618,77978647,0.77500004,0.08510638,841.2663,-1404.3684,-0.011635721,0.012040287,-0.08181381,0.0,0.0,0.0
830.70746,377.74878,77978664,0.7625,0.08510638,519.62616,-1269.2992,-0.011635721,0.012040287,-0.08181381,0.0,0.0,0.0
828.92285,369.11438,77978681,0.7875,0.08510638,-180.19421,-589.71674,-0.011635721,0.012040287,-0.08181381,3.355443E-6,0.0,0.0
825.7889,363.41614,77978697,0.7875,0.12765957,-424.02505,-292.79584,-0.011635721,0.012040287,-0.08181381,3.355443E-6,0.0,0.0
821.16174,357.8911,77978714,0.77500004,0.12765957,-464.01086,-156.91005,-0.011635721,0.012040287,-0.08181381,3.355443E-6,0.0,0.0
815.44135,352.32324,77978731,0.77500004,0.12765957,-501.2761,-108.846344,-0.011635721,0.012040287,-0.08181381,3.355443E-6,0.0,0.0
811.93365,349.78088,77978747,0.8,0.12765957,-394.25012,-141.99265,-0.011635721,0.012040287,-0.08181381,0.0,0.0,0.0
810.5824,347.9359,77978764,0.77500004,0.12765957,-224.17839,-95.38734,-0.011635721,0.012040287,-0.08181381,0.0,0.0,0.0
811.5396,347.28113,77978781,0.7625,0.12765957,-27.11536,-8.179759,-0.011635721,0.012040287,-0.08181381,0.0,0.0,0.0
822.29755,347.65784,77978798,0.7625,0.12765957,365.16928,83.76497,-0.011635721,0.012040287,-0.08181381,0.0,0.0,0.0
846.06775,350.8529,77978814,0.75,0.12765957,1193.5736,174.88618,0.022691414,0.041632235,0.046549797,0.0,0.0,0.0
869.05524,356.83972,77978831,0.75,0.10638297,1847.9175,347.80536,0.022691414,0.041632235,0.046549797,0.0,0.0,0.0
887.84766,363.21606,77978848,0.7375,0.08510638,1895.2982,501.875,0.022691414,0.041632235,0.046549797,0.0,0.0,0.0
899.075,367.82483,77978864,0.75,0.08510638,1264.9979,482.14816,0.022691414,0.041632235,0.046549797,0.0,0.0,0.0
904.90125,371.82507,77978881,0.75,0.09574468,439.22333,360.76993,0.022691414,0.041632235,0.046549797,0.0,0.0,0.0
907.5358,376.3413,77978898,0.75,0.09574468,-77.54722,229.93349,0.022691414,0.041632235,0.046549797,0.0,0.0,0.0
908.1898,381.8921,77978915,0.77500004,0.09574468,-285.04477,232.12413,0.022691414,0.041632235,0.046549797,0.0,0.0,0.0
906.6209,385.54175,77978931,0.77500004,0.10638297,-309.24313,272.53705,0.022691414,0.041632235,0.046549797,0.0,0.0,0.0
898.5341,392.22058,77978948,0.7625,0.10638297,-453.81046,326.30792,0.022691414,0.041632235,0.046549797,0.0,0.0,0.0
886.56915,402.4751,77978965,0.7875,0.10638297,-738.9693,487.08908,0.022691414,0.041632235,0.046549797,0.0,0.0,0.0
876.6825,410.50183,77978981,0.77500004,0.09574468,-923.9308,597.71814,0.022691414,0.041632235,0.046549797,0.0,0.0,0.0
868.94977,424.2328,77978998,0.7875,0.09574468,-832.22974,757.4751,0.022691414,0.041632235,0.046549797,0.0,0.0,0.0
866.69574,434.63477,77979015,0.77500004,0.09574468,-371.62347,825.2925,0.022691414,0.041632235,0.046549797,0.0,0.0,0.0
867.73755,441.53735,77979032,0.77500004,0.11702127,83.97118,646.166,0.022691414,0.041632235,0.046549797,0.0,0.0,0.0
873.6123,447.2257,77979048,0.77500004,0.12765957,412.92688,388.708,0.022691414,0.041632235,0.046549797,0.0,0.0,0.0
887.49036,452.45496,77979065,0.7625,0.10638297,830.2317,189.27106,0.022691414,0.041632235,0.046549797,0.0,0.0,0.0
902.39795,453.9015,77979082,0.725,0.12765957,1159.912,41.92481,0.022691414,0.041632235,0.046549797,0.0,0.0,0.0
915.23267,450.47998,77979098,0.58750004,0.11702127,1250.119,-122.5039,0.022691414,0.041632235,0.046549797,0.0,0.0,0.0
915.67975,450.34753,77979099,0.275,0.09574468,1198.6595,-149.53207,0.022691414,0.041632235,0.046549797,0.0,0.0,0.0
915.67975,450.34753,77979107,0.275,0.09574468,1198.6595,-149.53207,0.022691414,0.041632235,0.046549797,0.0,0.0,0.0
972.66125,386.37524,77979261,0.6875,0.09574468,0.0,0.0,0.022691414,0.041632235,0.046549797,0.0,0.0,0.0
972.66125,386.37524,77979282,0.71250004,0.09574468,-0.17168446,-0.06901711,0.022691414,0.041632235,0.046549797,0.0,0.0,0.0
972.66125,386.37524,77979297,0.7375,0.09574468,0.055134833,0.019705217,0.022691414,0.041632235,0.046549797,0.0,0.0,0.0
972.66125,386.37524,77979316,0.725,0.09574468,-0.046069168,-0.015513357,0.022691414,0.041632235,0.046549797,0.0,0.0,0.0
972.66125,386.37524,77979332,0.75,0.08510638,0.03492345,0.01114182,0.022691414,0.041632235,0.046549797,0.0,0.0,0.0
959.365,392.67798,77979349,0.7625,0.09574468,-343.70792,162.90865,0.018153131,-0.030694187,0.0052394867,0.0,0.0,0.0
938.9866,406.5315,77979366,0.7375,0.10638297,-1167.53,669.2092,0.018153131,-0.030694187,0.0052394867,0.0,0.0,0.0
931.5969,414.20703,77979382,0.7375,0.09574468,-1275.0236,850.5197,0.018153131,-0.030694187,0.0052394867,0.0,0.0,0.0
921.8961,431.68042,77979399,0.75,0.09574468,-830.71045,1004.06805,0.018153131,-0.030694187,0.0052394867,0.0,0.0,0.0
920.2642,438.49158,77979416,0.75,0.09574468,-414.92923,897.1648,0.018153131,-0.030694187,0.0052394867,0.0,0.0,0.0
920.1783,443.55774,77979432,0.75,0.11702127,190.35895,508.89072,0.018153131,-0.030694187,0.0052394867,0.0,0.0,0.0
922.31085,446.46765,77979449,0.725,0.12765957,337.4432,204.77599,0.018153131,-0.030694187,0.0052394867,0.0,0.0,0.0
930.40955,451.3402,77979466,0.7625,0.10638297,475.7583,66.52668,0.018153131,-0.030694187,0.0052394867,0.0,0.0,0.0
941.938,453.01306,77979482,0.7375,0.10638297,775.70233,-8.150325,0.018153131,-0.030694187,0.0052394867,0.0,0.0,0.0
952.8364,452.38733,77979499,0.7375,0.12765957,944.92267,1.5248522,0.018153131,-0.030694187,0.0052394867,0.0,0.0,0.0
961.5143,449.25208,77979516,0.7375,0.11702127,850.2707,-167.80174,0.018153131,-0.030694187,0.0052394867,0.0,0.0,0.0
968.73193,442.963,77979532,0.725,0.09574468,574.14825,-407.78873,0.018153131,-0.030694187,0.0052394867,0.0,0.0,0.0
975.02344,433.70935,77979549,0.75,0.07446808,356.5204,-622.1016,0.018153131,-0.030694187,0.0052394867,0.0,0.0,0.0
981.23865,418.13733,77979566,0.7375,0.12765957,265.85117,-895.1364,0.018153131,-0.030694187,0.0052394867,0.0,0.0,0.0
984.38916,401.4414,77979583,0.7375,0.08510638,205.18367,-1166.9928,0.018153131,-0.030694187,0.0052394867,0.0,0.0,0.0
984.0625,384.85608,77979599,0.7375,0.07446808,50.269238,-1277.2455,0.018153131,-0.030694187,0.0052394867,0.0,0.0,0.0
981.85767,374.37817,77979616,0.75,0.09574468,-151.76212,-1057.4327,0.018153131,-0.030694187,0.0052394867,0.0,0.0,0.0
979.3572,369.84583,77979633,0.7625,0.09574468,-305.06033,-579.0659,0.018153131,-0.030694187,0.0052394867,0.0,0.0,0.0
973.906,366.45654,77979649,0.7625,0.09574468,-398.45477,-96.75383,0.018153131,-0.030694187,0.0052394867,0.0,0.0,0.0
964.6875,366.37976,77979666,0.77500004,0.08510638,-519.80524,200.5606,0.018153131,-0.030694187,0.0052394867,0.0,0.0,0.0
954.6845,369.58557,77979683,0.77500004,0.08510638,-691.2813,320.0105,0.018153131,-0.030694187,0.0052394867,0.0,0.0,0.0
947.61176,374.7085,77979700,0.75,0.08510638,-719.34607,427.60034,0.018153131,-0.030694187,0.0052394867,0.0,0.0,0.0
943.21014,380.97437,77979716,0.7625,0.08510638,-490.1801,523.2399,0.018153131,-0.030694187,0.0052394867,0.0,0.0,0.0
942.07196,388.33545,77979733,0.77500004,0.09574468,-130.76936,573.4833,0.018153131,-0.030694187,0.0052394867,0.0,0.0,0.0
944.0338,393.24036,77979750,0.7625,0.10638297,178.2513,491.7128,0.018153131,-0.030694187,0.0052394867,0.0,0.0,0.0
950.529,399.59265,77979766,0.7625,0.12765957,415.87015,394.2,0.018153131,-0.030694187,0.0052394867,0.0,0.0,0.0
959.4702,405.21423,77979783,0.75,0.11702127,649.47955,337.23703,0.018153131,-0.030694187,0.0052394867,0.0,0.0,0.0
973.1979,409.84485,77979800,0.75,0.10638297,898.554,287.0608,0.018153131,-0.030694187,0.0052394867,0.0,0.0,0.0
989.53503,410.36487,77979817,0.75,0.09574468,1114.1256,164.55725,0.018153131,-0.030694187,0.0052394867,0.0,0.0,0.0
1006.42236,409.16846,77979833,0.7375,0.12765957,1232.2888,-34.706722,0.018153131,-0.030694187,0.0052394867,0.0,0.0,0.0
1014.6775,405.12073,77979850,0.7375,0.12765957,997.9834,-280.5874,0.018153131,-0.030694187,0.0052394867,0.0,0.0,0.0
1021.6323,401.61328,77979867,0.7375,0.12765957,510.15033,-396.85947,0.018153131,-0.030694187,0.0052394867,0.0,0.0,0.0
1029.3235,396.21924,77979883,0.75,0.10638297,248.60175,-405.4475,-0.033477485,-0.024555355,0.020191193,0.0,0.0,0.0
1037.7766,386.67505,77979900,0.725,0.08510638,264.77206,-507.69482,-0.033477485,-0.024555355,0.020191193,0.0,0.0,0.0
1045.9106,376.3817,77979917,0.7375,0.08510638,425.59824,-673.797,-0.033477485,-0.024555355,0.020191193,0.0,0.0,0.0
1051.996,367.0758,77979934,0.75,0.10638297,439.85538,-750.7277,-0.033477485,-0.024555355,0.020191193,0.0,0.0,0.0
1056.2368,357.40137,77979950,0.725,0.10638297,315.0375,-687.21716,-0.033477485,-0.024555355,0.020191193,0.0,0.0,0.0
1058.0823,350.21912,77979967,0.77500004,0.12765957,131.24619,-546.6432,-0.033477485,-0.024555355,0.020191193,0.0,0.0,0.0
1057.6335,346.36914,77979984,0.77500004,0.10638297,-66.01044,-315.26996,-0.033477485,-0.024555355,0.020191193,0.0,0.0,0.0
1056.5775,344.51526,77980000,0.77500004,0.09574468,-176.67603,-105.73243,-0.033477485,-0.024555355,0.020191193,0.0,0.0,0.0
1055.551,342.69092,77980017,0.7875,0.10638297,-195.28381,33.181103,-0.033477485,-0.024555355,0.020191193,0.0,0.0,0.0
1054.5029,341.95007,77980034,0.77500004,0.10638297,-158.54549,78.41171,-0.033477485,-0.024555355,0.020191193,0.0,0.0,0.0
1054.1346,341.95007,77980051,0.77500004,0.12765957,-83.76847,56.112705,-0.033477485,-0.024555355,0.020191193,0.0,0.0,0.0
1057.1221,345.66943,77980067,0.7625,0.12765957,48.932285,141.88145,-0.033477485,-0.024555355,0.020191193,0.0,0.0,0.0
1065.2421,355.11304,77980084,0.75,0.08510638,363.40353,453.362,-0.033477485,-0.024555355,0.020191193,0.0,0.0,0.0
1078.093,370.08545,77980101,0.7375,0.09574468,750.54926,864.9098,-0.033477485,-0.024555355,0.020191193,0.0,0.0,0.0
1094.9559,387.11682,77980117,0.7375,0.09574468,1137.293,1246.8909,-0.033477485,-0.024555355,0.020191193,0.0,0.0,0.0
1110.7279,401.88184,77980134,0.725,0.10638297,1284.8137,1296.5399,-0.033477485,-0.024555355,0.020191193,0.0,0.0,0.0
1123.4921,415.31775,77980151,0.725,0.08510638,1144.0557,1087.6074,-0.033477485,-0.024555355,0.020191193,0.0,0.0,0.0
1132.1748,426.69495,77980167,0.71250004,0.08510638,769.78784,786.2056,-0.033477485,-0.024555355,0.020191193,0.0,0.0,0.0
1137.0444,436.05652,77980184,0.725,0.09574468,338.706,561.731,-0.033477485,-0.024555355,0.020191193,0.0,0.0,0.0
1139.6444,442.45117,77980201,0.725,0.12765957,16.936245,361.17026,-0.033477485,-0.024555355,0.020191193,0.0,0.0,0.0
1138.4882,447.005,77980218,0.725,0.12765957,-183.9191,190.5394,-0.033477485,-0.024555355,0.020191193,0.0,0.0,0.0
1135.818,449.63086,77980234,0.725,0.12765957,-311.66443,59.00179,-0.033477485,-0.024555355,0.020191193,0.0,0.0,0.0
1122.3628,454.36682,77980251,0.7375,0.10638297,-620.99036,58.045185,-0.033477485,-0.024555355,0.020191193,0.0,0.0,0.0
1103.5769,456.56702,77980268,0.7375,0.12765957,-1138.0895,103.648766,-0.033477485,-0.024555355,0.020191193,0.0,0.0,0.0
1089.5402,456.56702,77980284,0.7375,0.12765957,-1380.7988,46.933525,-0.033477485,-0.024555355,0.020191193,0.0,0.0,0.0
1078.5828,455.2245,77980301,0.7375,0.12765957,-1147.941,-75.691986,-0.033477485,-0.024555355,0.020191193,0.0,0.0,0.0
1071.9609,454.79004,77980318,0.71250004,0.10638297,-593.55615,-174.16301,-0.033477485,-0.024555355,0.020191193,0.0,0.0,0.0
1071.1292,454.79004,77980321,0.475,0.12765957,-520.74664,-168.30403,-0.033477485,-0.024555355,0.020191193,0.0,0.0,0.0
1071.1292,454.79004,77980329,0.475,0.12765957,-520.74664,-168.30403,-0.033477485,-0.024555355,0.020191193,0.0,0.0,0.0
