x,y,timestamp,pressure,fingerarea,velocityx,velocityy,accelx,accely,accelz,gyrox,gyroy,gyroz
341.86658,261.98486,80821856,0.7875,0.06382979,0.0,0.0,0.012699573,0.0036659092,-0.062202454,0.0,0.0,0.0
341.86658,261.98486,80821885,0.925,0.08510638,-0.013277445,-0.0116260955,0.012699573,0.0036659092,-0.062202454,0.0,0.0,0.0
341.86658,261.98486,80821901,0.96250004,0.10638297,0.029559923,0.022024542,0.012699573,0.0036659092,-0.062202454,0.0,0.0,0.0
336.70105,248.97668,80821918,0.975,0.12765957,-233.54926,-588.1619,0.012699573,0.0036659092,-0.062202454,0.0,0.0,0.0
329.58936,239.96667,80821935,0.975,0.10638297,-435.05035,-848.74084,0.012699573,0.0036659092,-0.062202454,0.0,0.0,0.0
312.7832,228.16663,80821951,1.0,0.09574468,-785.48584,-939.7063,0.012699573,0.0036659092,-0.062202454,0.0,0.0,0.0
278.0494,214.21948,80821968,1.025,0.08510638,-1704.046,-1038.5333,0.012699573,0.0036659092,-0.062202454,0.0,0.0,0.0
243.0481,207.6698,80821985,1.0375,0.08510638,-2507.6113,-725.9907,0.012699573,0.0036659092,-0.062202454,0.0,0.0,0.0
212.81741,206.00916,80822002,1.0375,0.09574468,-2681.3555,-290.61542,0.012699573,0.0036659092,-0.062202454,0.0,0.0,0.0
185.80635,212.02747,80822018,1.0375,0.08510638,-2275.5593,220.73103,0.012699573,0.0036659092,-0.062202454,0.0,0.0,0.0
166.62021,221.5044,80822035,1.0625,0.09574468,-1492.3856,773.47644,0.012699573,0.0036659092,-0.062202454,0.0,0.0,0.0
157.00774,234.6488,80822052,1.0500001,0.12765957,-683.4754,1036.1654,0.012699573,0.0036659092,-0.062202454,0.0,0.0,0.0
149.99352,262.8451,80822068,1.0625,0.09574468,-163.77042,1521.7563,0.012699573,0.0036659092,-0.062202454,0.0,0.0,0.0
152.48099,288.85864,80822085,1.0500001,0.12765957,298.66803,1961.375,0.012699573,0.0036659092,-0.062202454,0.0,0.0,0.0
162.95078,313.96387,80822102,1.0625,0.08510638,784.15155,2065.1892,0.012699573,0.0036659092,-0.062202454,0.0,0.0,0.0
184.64154,337.99866,80822119,1.0625,0.12765957,1337.82,1803.5247,0.012699573,0.0036659092,-0.062202454,0.0,0.0,0.0
212.64536,362.20544,80822135,1.0500001,0.09574468,1968.582,1408.1049,0.012699573,0.0036659092,-0.062202454,0.0,0.0,0.0
246.82687,384.01855,80822152,1.025,0.08510638,2465.5557,1328.7322,0.012699573,0.0036659092,-0.062202454,0.0,0.0,0.0
284.19128,401.636,80822169,1.0125,0.12765957,2691.457,1185.4385,0.012699573,0.0036659092,-0.062202454,0.0,0.0,0.0
312.73245,417.38452,80822185,1.025,0.11702127,2498.3562,935.3585,0.012699573,0.0036659092,-0.062202454,0.0,0.0,0.0
339.1285,434.88367,80822202,1.0125,0.08510638,1897.3197,816.21387,0.012699573,0.0036659092,-0.062202454,0.0,0.0,0.0
353.14548,446.66357,80822219,1.0,0.12765957,1149.0248,715.6321,0.012699573,0.0036659092,-0.062202454,0.0,0.0,0.0
359.73154,456.91772,80822236,1.0125,0.11702127,360.70795,598.9411,0.0021596588,0.010932729,-0.049761772,0.0,0.0,0.0
364.85907,473.7965,80822252,1.025,0.09574468,-129.8082,679.05817,0.0021596588,0.010932729,-0.049761772,0.0,0.0,0.0
363.4696,488.6593,80822269,1.0125,0.08510638,-396.98236,802.1023,0.0021596588,0.010932729,-0.049761772,0.0,0.0,0.0
356.08658,497.64954,80822286,1.0125,0.12765957,-562.152,815.2907,0.0021596588,0.010932729,-0.049761772,0.0,0.0,0.0
337.22833,511.5796,80822302,1.0125,0.10638297,-1025.9098,731.31384,0.0021596588,0.010932729,-0.049761772,0.0,0.0,0.0
312.10153,527.1554,80822319,1.0375,0.08510638,-1677.0339,728.665,0.0021596588,0.010932729,-0.049761772,0.0,0.0,0.0
278.72412,542.687,80822336,1.0125,0.08510638,-2263.7114,946.82935,0.0021596588,0.010932729,-0.049761772,0.0,0.0,0.0
248.46469,552.1841,80822352,1.025,0.08510638,-2429.268,888.8776,0.0021596588,0.010932729,-0.049761772,0.0,0.0,0.0
218.57999,557.5979,80822369,1.0125,0.10638297,-2319.9314,533.11865,0.0021596588,0.010932729,-0.049761772,0.0,0.0,0.0
193.96158,557.85645,80822386,1.0125,0.10638297,-1803.7797,25.17988,0.0021596588,0.010932729,-0.049761772,0.0,0.0,0.0
170.29517,556.95715,80822403,1.0,0.09574468,-1411.0623,-285.86096,0.0021596588,0.010932729,-0.049761772,0.0,0.0,0.0
153.73428,553.24963,80822419,1.0125,0.08510638,-1054.2485,-418.2452,0.0021596588,0.010932729,-0.049761772,0.0,0.0,0.0
138.62619,546.5752,80822436,1.0,0.06382979,-764.43134,-503.79865,0.0021596588,0.010932729,-0.049761772,0.0,0.0,0.0
125.9243,537.08765,80822453,1.0,0.08510638,-614.31396,-625.9671,0.0021596588,0.010932729,-0.049761772,0.0,0.0,0.0
116.94066,528.9807,80822469,0.975,0.10638297,-421.1064,-696.9623,0.0021596588,0.010932729,-0.049761772,0.0,0.0,0.0
111.02562,520.68835,80822486,0.975,0.12765957,-281.0454,-656.99335,0.0021596588,0.010932729,-0.049761772,0.0,0.0,0.0
106.46573,509.10876,80822503,0.975,0.09574468,-157.75702,-651.3398,0.0021596588,0.010932729,-0.049761772,0.0,0.0,0.0
106.50169,498.5111,80822520,0.96250004,0.07446808,43.862316,-686.66327,0.0021596588,0.010932729,-0.049761772,0.0,0.0,0.0
109.893875,488.9635,80822536,0.95,0.07446808,257.29025,-698.1472,0.0021596588,0.010932729,-0.049761772,0.0,0.0,0.0
116.571335,481.01917,80822553,0.9875,0.08510638,489.22278,-565.5884,0.0021596588,0.010932729,-0.049761772,0.0,0.0,0.0
126.419235,474.05127,80822570,0.975,0.08510638,729.90137,-391.98672,0.0021596588,0.010932729,-0.049761772,0.0,0.0,0.0
136.37746,470.11414,80822586,0.975,0.10638297,818.60815,-261.32672,0.0021596588,0.010932729,-0.049761772,0.0,0.0,0.0
145.2488,469.0061,80822603,0.975,0.11702127,768.735,-86.56978,0.0021596588,0.010932729,-0.049761772,0.0,0.0,0.0
156.62631,469.0061,80822620,0.9875,0.08510638,702.23364,88.85329,0.0021596588,0.010932729,-0.049761772,0.0,0.0,0.0
170.17471,469.0061,80822637,0.975,0.08510638,750.92566,164.00511,0.0021596588,0.010932729,-0.049761772,0.0,0.0,0.0
182.43909,469.0061,80822653,0.9875,0.08510638,826.16266,126.00915,0.0021596588,0.010932729,-0.049761772,0.0,0.0,0.0
192.38074,469.0061,80822670,0.96250004,0.09574468,780.5016,58.48687,0.0021596588,0.010932729,-0.049761772,0.0,0.0,0.0
198.28677,469.89453,80822687,0.975,0.09574468,542.36115,37.865578,0.0021596588,0.010932729,-0.049761772,0.0,0.0,0.0
202.54681,469.89453,80822703,0.975,0.09574468,251.6654,30.602015,0.0021596588,0.010932729,-0.049761772,0.0,0.0,0.0
204.87308,470.30493,80822720,1.0,0.09574468,29.071428,20.21311,0.0021596588,0.010932729,-0.049761772,0.0,0.0,0.0
207.74673,472.1671,80822737,0.96250004,0.08510638,-14.138025,59.4758,0.0021596588,0.010932729,-0.049761772,0.0,0.0,0.0
224.9108,479.0775,80822754,0.7875,0.06382979,346.2047,236.38399,0.0021596588,0.010932729,-0.049761772,0.0,0.0,0.0
230.40286,480.55664,80822756,0.38750002,0.08510638,524.9478,288.74435,0.0017277263,7.4617565E-4,-0.055809975,0.0,0.0,0.0
230.40286,480.55664,80822765,0.38750002,0.08510638,524.9478,288.74435,0.0017277263,7.4617565E-4,-0.055809975,0.0,0.0,0.0
447.3322,599.6161,80823735,0.7375,0.06382979,0.0,0.0,0.0013821814,5.969405E-4,-0.028647423,0.0,0.0,0.0
447.3322,599.6161,80823756,0.7875,0.06382979,0.049213633,0.061100613,0.0013821814,5.969405E-4,-0.028647423,0.0,0.0,0.0
447.3322,599.6161,80823773,0.8625,0.07446808,-0.0056020245,-0.007978021,0.0013821814,5.969405E-4,-0.028647423,0.0,0.0,0.0
447.3322,599.6161,80823787,0.90000004,0.07446808,0.012810787,0.018343542,0.0013821814,5.969405E-4,-0.028647423,0.0,0.0,0.0
447.3322,599.6161,80823806,0.9125,0.07446808,0.014285512,0.021233672,0.0013821814,5.969405E-4,-0.028647423,0.0,0.0,0.0
447.3322,599.6161,80823823,0.925,0.07446808,0.001228079,0.0023129198,0.0011057444,4.775524E-4,-0.038918495,0.0,0.0,0.0
447.3322,599.6161,80823840,0.925,0.08510638,-0.008195868,-0.011409719,0.0011057444,4.775524E-4,-0.038918495,0.0,0.0,0.0
448.9854,574.3971,80823856,0.9125,0.10638297,46.714794,-780.48193,0.0011057444,4.775524E-4,-0.038918495,0.0,0.0,0.0
452.69006,557.1477,80823873,0.9125,0.06382979,164.33322,-1374.519,0.0011057444,4.775524E-4,-0.038918495,0.0,0.0,0.0
456.34247,532.68005,80823890,0.9125,0.09574468,283.14706,-1836.045,0.0011057444,4.775524E-4,-0.038918495,0.0,0.0,0.0
459.7209,508.89514,80823907,0.925,0.08510638,307.6232,-1789.1372,0.0011057444,4.775524E-4,-0.038918495,0.0,0.0,0.0
461.56488,483.49304,80823923,0.90000004,0.07446808,218.4026,-1596.1598,0.0011057444,4.775524E-4,-0.038918495,0.0,0.0,0.0
462.8272,464.5852,80823940,0.90000004,0.12765957,93.25238,-1517.4348,0.0011057444,4.775524E-4,-0.038918495,0.0,0.0,0.0
462.8272,448.19104,80823957,0.9125,0.08510638,-13.192193,-1104.7495,0.0011057444,4.775524E-4,-0.038918495,0.0,0.0,0.0
461.98047,433.5923,80823973,0.9125,0.07446808,-88.46647,-790.02026,0.0011057444,4.775524E-4,-0.038918495,0.0,0.0,0.0
461.44464,424.31592,80823990,0.9125,0.08510638,-108.536545,-506.4763,0.0011057444,4.775524E-4,-0.038918495,0.0,0.0,0.0
460.89777,419.4984,80824007,0.9375,0.10638297,-90.289825,-247.28125,0.0011057444,4.775524E-4,-0.038918495,0.0,0.0,0.0
459.85565,417.52173,80824024,0.9375,0.10638297,-72.53859,8.983026,0.0011057444,4.775524E-4,-0.038918495,0.0,0.0,0.0
459.8282,418.3761,80824040,0.96250004,0.08510638,-37.77269,233.3841,0.0011057444,4.775524E-4,-0.038918495,0.0,0.0,0.0
457.7447,434.21326,80824057,0.975,0.08510638,-65.35566,703.66266,0.0011057444,4.775524E-4,-0.038918495,0.0,0.0,0.0
456.13226,453.162,80824074,0.96250004,0.10638297,-102.673355,1243.9882,0.0011057444,4.775524E-4,-0.038918495,0.0,0.0,0.0
454.70782,481.5974,80824090,0.975,0.08510638,-122.301346,1874.7166,0.0011057444,4.775524E-4,-0.038918495,0.0,0.0,0.0
454.32996,503.4751,80824107,0.96250004,0.10638297,-92.04417,2078.391,0.0011057444,4.775524E-4,-0.038918495,0.0,0.0,0.0
457.14838,526.15967,80824124,0.96250004,0.06382979,45.633984,1834.5183,0.0011057444,4.775524E-4,-0.038918495,0.0,0.0,0.0
461.08356,545.4337,80824141,0.975,0.08510638,254.9059,1339.8896,0.0011057444,4.775524E-4,-0.038918495,0.0,0.0,0.0
466.77905,558.6616,80824157,0.96250004,0.12765957,407.11435,863.2238,0.0011057444,4.775524E-4,-0.038918495,0.0,0.0,0.0
472.2469,566.9232,80824174,0.95,0.09574468,459.88382,478.864,0.0011057444,4.775524E-4,-0.038918495,0.0,0.0,0.0
480.22052,577.71313,80824191,0.95,0.08510638,490.62448,285.06567,0.0011057444,4.775524E-4,-0.038918495,0.0,0.0,0.0
488.06897,585.84436,80824205,0.95,0.07446808,554.1119,273.07986,0.0011057444,4.775524E-4,-0.038918495,0.0,0.0,0.0
502.59772,593.9912,80824224,0.9375,0.06382979,719.7222,392.27664,0.0011057444,4.775524E-4,-0.038918495,0.0,0.0,0.0
513.66644,595.1736,80824241,0.9125,0.07446808,852.6831,266.24945,0.0011057444,4.775524E-4,-0.038918495,0.0,0.0,0.0
523.061,591.4695,80824257,0.9125,0.08510638,767.35223,-144.80177,0.0011057444,4.775524E-4,-0.038918495,0.0,0.0,0.0
531.82544,584.9374,80824274,0.9125,0.09574468,604.1946,-530.681,0.0011057444,4.775524E-4,-0.038918495,0.0,0.0,0.0
539.0362,577.5469,80824291,0.9125,0.12765957,429.06793,-718.7196,0.0011057444,4.775524E-4,-0.038918495,0.0,0.0,0.0
545.1948,570.1244,80824308,0.90000004,0.12765957,294.45245,-705.80096,0.0011057444,4.775524E-4,-0.038918495,0.0,0.0,0.0
547.6662,563.9872,80824324,0.90000004,0.08510638,202.10614,-568.02545,0.0011057444,4.775524E-4,-0.038918495,0.0,0.0,0.0
550.02167,557.16077,80824341,0.90000004,0.08510638,60.616043,-405.01624,0.0011057444,4.775524E-4,-0.038918495,0.0,0.0,0.0
550.2987,551.5984,80824358,0.8875,0.07446808,-43.48886,-355.37195,8.8459626E-4,0.008382052,-0.031134605,0.0,0.0,0.0
550.2987,549.85986,80824370,0.425,0.09574468,-97.17498,-286.35834,8.8459626E-4,0.008382052,-0.031134605,0.0,0.0,0.0
550.2987,549.85986,80824377,0.425,0.09574468,-97.17498,-286.35834,8.8459626E-4,0.008382052,-0.031134605,0.0,0.0,0.0
484.82,350.83508,80824837,0.90000004,0.12765957,0.0,0.0,8.8459626E-4,0.008382052,-0.031134605,0.0,0.0,0.0
484.82,350.83508,80824859,0.925,0.12765957,-0.032167003,-0.026397651,8.8459626E-4,0.008382052,-0.031134605,0.0,0.0,0.0
484.82,350.83508,80824876,0.9375,0.12765957,-0.012125983,-0.009472944,8.8459626E-4,0.008382052,-0.031134605,0.0,0.0,0.0
484.82,350.83508,80824909,0.925,0.12765957,-0.027468853,-0.0206983,7.0767663E-4,-0.017294362,0.039092064,0.0,0.0,0.0
483.3205,356.16614,80824918,0.4375,0.09574468,-36.6413,130.2438,7.0767663E-4,-0.017294362,0.039092064,0.0,0.0,0.0
483.3205,356.16614,80824925,0.4375,0.09574468,-36.6413,130.2438,7.0767663E-4,-0.017294362,0.039092064,0.0,0.0,0.0
594.78424,615.60913,80825760,0.71250004,0.12765957,0.0,0.0,0.02456614,0.010164514,-0.04872608,0.0,0.0,0.0
594.78424,615.60913,80825778,0.7625,0.12765957,0.8015153,0.822142,0.02456614,0.010164514,-0.04872608,0.0,0.0,0.0
594.78424,615.60913,80825795,0.8,0.11702127,-0.005985655,-0.009374373,0.02456614,0.010164514,-0.04872608,0.0,0.0,0.0
594.78424,615.60913,80825812,0.83750004,0.11702127,0.011630701,0.014697489,0.02456614,0.010164514,-0.04872608,0.0,0.0,0.0
594.78424,615.60913,80825828,0.8625,0.09574468,0.008717227,0.008580082,0.02456614,0.010164514,-0.04872608,0.0,0.0,0.0
594.78424,615.60913,80825845,0.875,0.09574468,0.019313367,0.018110428,0.02456614,0.010164514,-0.04872608,0.0,0.0,0.0
594.78424,615.60913,80825862,0.875,0.08510638,-0.020683354,-0.022933383,0.02456614,0.010164514,-0.04872608,0.0,0.0,0.0
590.60547,595.6699,80825878,0.8875,0.08510638,-119.68769,-551.1248,0.02456614,0.010164514,-0.04872608,0.0,0.0,0.0
588.9119,584.07544,80825895,0.8875,0.09574468,-204.63754,-1061.2316,0.02456614,0.010164514,-0.04872608,0.0,0.0,0.0
587.452,574.5842,80825912,0.875,0.12765957,-185.36896,-1115.3112,0.02456614,0.010164514,-0.04872608,0.0,0.0,0.0
586.78687,564.5293,80825929,0.8875,0.11702127,-107.50718,-855.05896,0.02456614,0.010164514,-0.04872608,0.0,0.0,0.0
587.2808,549.95386,80825945,0.90000004,0.08510638,18.988626,-621.4886,0.02456614,0.010164514,-0.04872608,0.0,0.0,0.0
589.36346,533.2471,80825962,0.875,0.09574468,132.84294,-807.35785,0.02456614,0.010164514,-0.04872608,0.0,0.0,0.0
592.512,519.4634,80825979,0.8875,0.12765957,210.04628,-1035.8588,-0.004347087,-0.015868396,-0.022981644,0.0,0.0,0.0
596.2068,504.81995,80825995,0.8875,0.07446808,284.341,-1027.3954,-0.004347087,-0.015868396,-0.022981644,0.0,0.0,0.0
601.60675,486.8036,80826012,0.90000004,0.07446808,344.42447,-1008.10754,-0.004347087,-0.015868396,-0.022981644,0.0,0.0,0.0
606.3575,473.8584,80826029,0.90000004,0.10638297,372.60437,-939.32434,-0.004347087,-0.015868396,-0.022981644,0.0,0.0,0.0
610.4482,464.7362,80826045,0.90000004,0.09574468,327.19675,-728.9443,-0.004347087,-0.015868396,-0.022981644,0.0,0.0,0.0
617.7507,453.63623,80826062,0.90000004,0.08510638,349.0609,-513.63556,-0.004347087,-0.015868396,-0.022981644,0.0,0.0,0.0
625.9731,444.00232,80826079,0.8875,0.07446808,461.87103,-430.04987,-0.004347087,-0.015868396,-0.022981644,0.0,0.0,0.0
634.08234,436.29944,80826096,0.90000004,0.08510638,562.79266,-439.60248,-0.004347087,-0.015868396,-0.022981644,0.0,0.0,0.0
641.9189,432.7932,80826112,0.90000004,0.08510638,581.9629,-336.5292,-0.004347087,-0.015868396,-0.022981644,0.0,0.0,0.0
650.5832,431.68896,80826129,0.90000004,0.07446808,528.7217,-54.992985,-0.004347087,-0.015868396,-0.022981644,0.0,0.0,0.0
661.3837,435.92957,80826146,0.9125,0.08510638,559.2963,248.45563,-0.004347087,-0.015868396,-0.022981644,0.0,0.0,0.0
670.30914,441.49548,80826162,0.9125,0.10638297,621.8765,493.98703,-0.004347087,-0.015868396,-0.022981644,0.0,0.0,0.0
678.6274,448.89966,80826179,0.90000004,0.12765957,581.0017,622.7947,-0.004347087,-0.015868396,-0.022981644,0.0,0.0,0.0
684.1902,457.3401,80826196,0.925,0.09574468,440.94922,661.64594,-0.004347087,-0.015868396,-0.022981644,0.0,0.0,0.0
693.1607,482.71265,80826213,0.925,0.08510638,367.34158,1077.5,-0.004347087,-0.015868396,-0.022981644,0.0,0.0,0.0
695.08844,497.167,80826229,0.925,0.12765957,249.76164,1338.8936,-0.004347087,-0.015868396,-0.022981644,0.0,0.0,0.0
695.75134,512.97485,80826246,0.925,0.11702127,86.23099,1348.3971,-0.004347087,-0.015868396,-0.022981644,0.0,0.0,0.0
695.2515,532.3147,80826263,0.95,0.08510638,-118.38573,1192.3752,-0.004347087,-0.015868396,-0.022981644,0.0,0.0,0.0
694.96674,548.5792,80826279,0.9375,0.11702127,-202.573,1007.4682,-0.004347087,-0.015868396,-0.022981644,0.0,0.0,0.0
694.7517,561.04004,80826296,0.9125,0.12765957,-125.346,904.8567,-0.004347087,-0.015868396,-0.022981644,0.0,0.0,0.0
694.7517,572.1218,80826313,0.925,0.09574468,-42.394833,681.44965,-0.004347087,-0.015868396,-0.022981644,0.0,0.0,0.0
694.7517,582.7228,80826330,0.9375,0.08510638,-0.8952298,466.82773,-0.004347087,-0.015868396,-0.022981644,0.0,0.0,0.0
695.68756,590.2776,80826346,0.95,0.08510638,33.895496,388.81125,-0.004347087,-0.015868396,-0.022981644,0.0,0.0,0.0
696.72845,595.94165,80826363,0.95,0.09574468,69.05057,317.99435,-0.004347087,-0.015868396,-0.022981644,0.0,0.0,0.0
697.7758,599.7053,80826380,0.9375,0.09574468,85.72894,179.21187,-0.004347087,-0.015868396,-0.022981644,0.0,0.0,0.0
698.8111,601.501,80826396,0.95,0.09574468,88.81988,39.99514,-0.004347087,-0.015868396,-0.022981644,0.0,0.0,0.0
699.83826,603.3269,80826413,0.95,0.09574468,75.3323,-13.066626,-0.004347087,-0.015868396,-0.022981644,0.0,0.0,0.0
699.75006,604.29846,80826430,0.925,0.09574468,31.793283,-31.080564,-0.004347087,-0.015868396,-0.022981644,0.0,0.0,0.0
699.75006,604.0586,80826447,0.925,0.09574468,-4.835504,-46.100475,-0.004347087,-0.015868396,-0.022981644,0.0,0.0,0.0
699.75006,604.0586,80826463,0.95,0.09574468,-27.004099,-49.194534,-0.004347087,-0.015868396,-0.022981644,0.0,0.0,0.0
700.5035,604.0586,80826480,0.9375,0.09574468,-4.7814403,-45.261467,-0.004347087,-0.015868396,-0.022981644,0.0,0.0,0.0
701.545,604.0586,80826497,0.925,0.09574468,52.453484,-25.945091,-0.004347087,-0.015868396,-0.022981644,0.0,0.0,0.0
702.90564,604.0586,80826513,0.9125,0.09574468,91.13574,-8.718516,-0.0034776693,-0.012694716,-0.034384727,0.0,0.0,0.0
705.33936,603.41223,80826530,0.90000004,0.08510638,136.09033,-11.282873,-0.0034776693,-0.012694716,-0.034384727,0.0,0.0,0.0
709.82086,600.80725,80826547,0.90000004,0.07446808,222.07121,-86.290764,-0.0034776693,-0.012694716,-0.034384727,0.0,0.0,0.0
714.99915,595.4358,80826564,0.8875,0.06382979,329.1712,-247.25717,-0.0034776693,-0.012694716,-0.034384727,0.0,0.0,0.0
719.72925,588.97424,80826580,0.8875,0.06382979,390.39465,-425.31213,-0.0034776693,-0.012694716,-0.034384727,0.0,0.0,0.0
724.93274,580.6183,80826597,0.875,0.12765957,374.9239,-568.68933,-0.0034776693,-0.012694716,-0.034384727,0.0,0.0,0.0
729.55334,571.37744,80826614,0.8625,0.10638297,327.86755,-649.2678,-0.0034776693,-0.012694716,-0.034384727,0.0,0.0,0.0
736.77515,551.6958,80826630,0.875,0.07446808,363.70938,-963.3565,-0.0034776693,-0.012694716,-0.034384727,0.0,0.0,0.0
741.2692,538.193,80826647,0.8875,0.08510638,355.30807,-1105.8971,-0.0034776693,-0.012694716,-0.034384727,0.0,0.0,0.0
744.40436,523.9856,80826664,0.85,0.12765957,270.83316,-1103.6976,-0.0034776693,-0.012694716,-0.034384727,0.0,0.0,0.0
746.705,513.11914,80826680,0.875,0.11702127,129.79436,-834.22345,-0.0034776693,-0.012694716,-0.034384727,0.0,0.0,0.0
748.7807,502.11768,80826697,0.875,0.09574468,43.314198,-585.05176,-0.0034776693,-0.012694716,-0.034384727,0.0,0.0,0.0
750.85077,492.91846,80826714,0.8875,0.08510638,64.9588,-525.1464,-0.0034776693,-0.012694716,-0.034384727,0.0,0.0,0.0
752.9199,485.83313,80826731,0.8875,0.08510638,88.68662,-406.66913,-0.0034776693,-0.012694716,-0.034384727,0.0,0.0,0.0
754.11316,480.9801,80826747,0.90000004,0.09574468,86.36778,-283.5355,-0.0034776693,-0.012694716,-0.034384727,0.0,0.0,0.0
755.5827,478.91223,80826764,0.90000004,0.09574468,70.15909,-99.89997,-0.0034776693,-0.012694716,-0.034384727,0.0,0.0,0.0
757.6672,477.05945,80826781,0.9125,0.09574468,80.11622,32.622818,-0.0034776693,-0.012694716,-0.034384727,0.0,0.0,0.0
759.7535,477.00256,80826797,0.9125,0.07446808,113.752235,86.34323,-0.0034776693,-0.012694716,-0.034384727,0.0,0.0,0.0
762.88727,478.87305,80826814,0.9125,0.07446808,168.89177,147.38304,-0.0034776693,-0.012694716,-0.034384727,0.0,0.0,0.0
766.59735,483.7141,80826831,0.9125,0.08510638,224.20222,270.06168,-0.0034776693,-0.012694716,-0.034384727,0.0,0.0,0.0
770.74854,491.25708,80826848,0.925,0.10638297,266.08966,462.29468,-0.0034776693,-0.012694716,-0.034384727,0.0,0.0,0.0
776.15137,499.97253,80826864,0.925,0.10638297,323.8029,623.6667,-0.0034776693,-0.012694716,-0.034384727,0.0,0.0,0.0
785.1679,517.25574,80826881,0.9125,0.08510638,468.17493,931.2268,-0.0034776693,-0.012694716,-0.034384727,0.0,0.0,0.0
791.44,529.80286,80826898,0.9125,0.07446808,524.1549,1048.3142,-0.0034776693,-0.012694716,-0.034384727,0.0,0.0,0.0
797.8638,543.8993,80826914,0.90000004,0.09574468,487.149,1042.0996,-0.0034776693,-0.012694716,-0.034384727,0.0,0.0,0.0
801.5155,549.8136,80826931,0.8875,0.12765957,326.88306,716.30695,-0.0034776693,-0.012694716,-0.034384727,0.0,0.0,0.0
806.67114,557.4197,80826948,0.90000004,0.12765957,187.54138,310.05914,-0.0034776693,-0.012694716,-0.034384727,0.0,0.0,0.0
812.7156,564.43384,80826965,0.9125,0.10638297,253.27194,238.18333,-0.0034776693,-0.012694716,-0.034384727,0.0,0.0,0.0
818.39,569.1786,80826981,0.9125,0.08510638,325.7348,202.39272,-0.0034776693,-0.012694716,-0.034384727,0.0,0.0,0.0
823.59,572.87585,80826998,0.9125,0.08510638,365.94736,215.87361,-0.0034776693,-0.012694716,-0.034384727,0.0,0.0,0.0
828.3476,574.7998,80827015,0.9125,0.08510638,324.71072,118.48667,-0.0034776693,-0.012694716,-0.034384727,0.0,0.0,0.0
832.57916,574.7379,80827031,0.90000004,0.09574468,248.41365,-40.257996,-0.0034776693,-0.012694716,-0.034384727,0.0,0.0,0.0
835.5061,572.7831,80827048,0.8875,0.12765957,200.44818,-144.35762,0.0052178646,0.0058442205,0.036492348,0.0,0.0,0.0
839.1483,568.8815,80827065,0.875,0.12765957,174.102,-272.13385,0.0052178646,0.0058442205,0.036492348,0.0,0.0,0.0
842.3363,562.95166,80827082,0.8625,0.08510638,159.961,-403.8246,0.0052178646,0.0058442205,0.036492348,0.0,0.0,0.0
847.3057,548.8911,80827098,0.875,0.07446808,214.33858,-683.597,0.0052178646,0.0058442205,0.036492348,0.0,0.0,0.0
850.9657,533.7964,80827115,0.875,0.08510638,268.11887,-1037.0427,0.0052178646,0.0058442205,0.036492348,0.0,0.0,0.0
853.7986,518.593,80827132,0.8625,0.12765957,233.7871,-1209.4231,0.0052178646,0.0058442205,0.036492348,0.0,0.0,0.0
855.0316,505.74646,80827148,0.8625,0.09574468,127.47164,-1092.908,0.0052178646,0.0058442205,0.036492348,0.0,0.0,0.0
856.05743,496.03235,80827165,0.875,0.08510638,8.877736,-752.044,0.0052178646,0.0058442205,0.036492348,0.0,0.0,0.0
856.699,488.15198,80827182,0.8875,0.08510638,-24.366194,-463.24908,0.0052178646,0.0058442205,0.036492348,0.0,0.0,0.0
856.699,484.28894,80827198,0.8875,0.08510638,-30.573582,-210.06062,0.0052178646,0.0058442205,0.036492348,0.0,0.0,0.0
856.699,482.43506,80827215,0.9125,0.08510638,-32.891037,-13.1350565,0.0052178646,0.0058442205,0.036492348,0.0,0.0,0.0
856.699,481.24634,80827232,0.925,0.08510638,-27.49905,95.305305,0.0052178646,0.0058442205,0.036492348,0.0,0.0,0.0
857.2759,482.47058,80827249,0.9125,0.08510638,-6.5729804,159.35487,0.0052178646,0.0058442205,0.036492348,0.0,0.0,0.0
860.6681,488.7096,80827265,0.9125,0.09574468,102.80319,303.87396,0.0052178646,0.0058442205,0.036492348,0.0,0.0,0.0
865.05,498.44604,80827282,0.9125,0.12765957,247.6048,568.88116,0.0052178646,0.0058442205,0.036492348,0.0,0.0,0.0
870.32715,510.44836,80827299,0.8875,0.10638297,372.5028,846.143,0.0052178646,0.0058442205,0.036492348,0.0,0.0,0.0
877.5506,523.8418,80827315,0.8875,0.08510638,477.7146,1026.583,0.0052178646,0.0058442205,0.036492348,0.0,0.0,0.0
885.5987,539.521,80827332,0.90000004,0.08510638,544.7851,1076.6085,0.0052178646,0.0058442205,0.036492348,0.0,0.0,0.0
891.3493,548.16113,80827349,0.90000004,0.09574468,504.94772,878.20825,0.0052178646,0.0058442205,0.036492348,0.0,0.0,0.0
899.12854,557.4037,80827366,0.8875,0.12765957,456.36407,586.30927,0.0052178646,0.0058442205,0.036492348,0.0,0.0,0.0
905.5567,565.18506,80827382,0.8875,0.11702127,405.27924,374.0711,0.0052178646,0.0058442205,0.036492348,0.0,0.0,0.0
911.20276,570.7588,80827399,0.90000004,0.09574468,350.65564,244.26845,0.0052178646,0.0058442205,0.036492348,0.0,0.0,0.0
916.0402,575.50256,80827416,0.90000004,0.09574468,313.46097,214.72472,0.0052178646,0.0058442205,0.036492348,0.0,0.0,0.0
919.203,577.41785,80827432,0.90000004,0.09574468,207.67607,126.244316,0.0052178646,0.0058442205,0.036492348,0.0,0.0,0.0
921.2584,579.25195,80827449,0.9125,0.09574468,102.2757,13.09463,0.0052178646,0.0058442205,0.036492348,0.0,0.0,0.0
921.6778,579.1804,80827466,0.875,0.09574468,10.057154,-52.68686,0.0052178646,0.0058442205,0.036492348,0.0,0.0,0.0
921.6778,579.1804,80827483,0.575,0.09574468,-70.34438,-90.17204,0.0052178646,0.0058442205,0.036492348,0.0,0.0,0.0
921.6778,579.1804,80827489,0.575,0.09574468,-70.34438,-90.17204,0.0052178646,0.0058442205,0.036492348,0.0,0.0,0.0
1099.6199,544.5288,80828526,0.71250004,0.06382979,0.0,0.0,-0.0078605665,0.014940292,-0.03104496,0.0,0.0,0.0
1099.6199,544.5288,80828552,0.7875,0.07446808,-0.038710676,-0.02063518,-0.0078605665,0.014940292,-0.03104496,0.0,0.0,0.0
1099.6199,544.5288,80828569,0.83750004,0.07446808,0.056083597,0.02872228,-0.0078605665,0.014940292,-0.03104496,0.0,0.0,0.0
1099.6199,544.5288,80828584,0.85,0.08510638,0.06942302,0.035366707,-0.0078605665,0.014940292,-0.03104496,0.0,0.0,0.0
1096.0863,531.9662,80828602,0.85,0.10638297,-95.94774,-340.7519,-0.0078605665,0.014940292,-0.03104496,0.0,0.0,0.0
1091.3228,520.00635,80828619,0.83750004,0.12765957,-268.83484,-830.06024,-0.0078605665,0.014940292,-0.03104496,0.0,0.0,0.0
1085.7755,511.87817,80828636,0.85,0.11702127,-401.0641,-956.52844,-0.0078605665,0.014940292,-0.03104496,0.0,0.0,0.0
1077.3258,502.1162,80828652,0.875,0.08510638,-534.78076,-830.88763,0.0017115467,0.011952236,-0.024835587,0.0,0.0,0.0
1063.3959,489.76978,80828669,0.8875,0.07446808,-751.66235,-681.91156,0.0017115467,0.011952236,-0.024835587,0.0,0.0,0.0
1048.179,481.64294,80828686,0.8875,0.09574468,-993.72174,-523.92456,0.0017115467,0.011952236,-0.024835587,0.0,0.0,0.0
1034.9489,478.52905,80828702,0.8875,0.09574468,-1090.3232,-444.88315,0.0017115467,0.011952236,-0.024835587,0.0,0.0,0.0
1022.09863,478.77966,80828719,0.90000004,0.07446808,-971.678,-61.092106,0.0017115467,0.011952236,-0.024835587,0.0,0.0,0.0
1010.5814,485.05908,80828736,0.9125,0.08510638,-764.68274,361.85583,0.0017115467,0.011952236,-0.024835587,0.0,0.0,0.0
1000.41406,493.87488,80828753,0.925,0.10638297,-627.38245,719.5081,0.0017115467,0.011952236,-0.024835587,0.0,0.0,0.0
991.6194,502.6875,80828769,0.90000004,0.12765957,-548.0298,823.3891,0.0017115467,0.011952236,-0.024835587,0.0,0.0,0.0
982.12634,518.50525,80828786,0.9125,0.09574468,-472.41284,909.9392,0.0017115467,0.011952236,-0.024835587,0.0,0.0,0.0
973.08093,539.5283,80828803,0.9125,0.09574468,-473.47482,1249.0022,0.0017115467,0.011952236,-0.024835587,0.0,0.0,0.0
968.5471,554.71277,80828819,0.9125,0.12765957,-370.90457,1346.0947,0.0017115467,0.011952236,-0.024835587,0.0,0.0,0.0
965.7722,568.7307,80828836,0.9125,0.11702127,-213.84273,1208.2037,0.0017115467,0.011952236,-0.024835587,0.0,0.0,0.0
966.1505,585.17114,80828853,0.9125,0.08510638,38.56479,933.36084,0.0017115467,0.011952236,-0.024835587,0.0,0.0,0.0
970.2825,599.02734,80828870,0.90000004,0.11702127,309.06665,770.8863,0.0017115467,0.011952236,-0.024835587,0.0,0.0,0.0
975.6454,606.4513,80828886,0.9125,0.12765957,441.3518,624.2786,0.0017115467,0.011952236,-0.024835587,0.0,0.0,0.0
988.5836,616.51514,80828903,0.90000004,0.09574468,720.28033,499.88892,0.0017115467,0.011952236,-0.024835587,0.0,0.0,0.0
1003.3064,623.2074,80828920,0.90000004,0.10638297,1013.8728,343.55307,0.0017115467,0.011952236,-0.024835587,0.0,0.0,0.0
1016.291,624.49414,80828936,0.875,0.11702127,1112.2258,127.45485,0.0017115467,0.011952236,-0.024835587,0.0,0.0,0.0
1029.0391,621.5294,80828953,0.8875,0.12765957,988.65735,-135.83687,0.0017115467,0.011952236,-0.024835587,0.0,0.0,0.0
1041.3054,615.5105,80828970,0.8875,0.10638297,775.6408,-526.99634,0.0017115467,0.011952236,-0.024835587,0.0,0.0,0.0
1052.9763,605.6111,80828986,0.8625,0.07446808,675.7716,-749.3655,0.0017115467,0.011952236,-0.024835587,0.0,0.0,0.0
1061.868,593.5851,80829003,0.875,0.08510638,593.3392,-894.116,0.0017115467,0.011952236,-0.024835587,0.0,0.0,0.0
1068.5581,579.73145,80829020,0.8625,0.12765957,415.63388,-965.6026,0.0017115467,0.011952236,-0.024835587,0.0,0.0,0.0
1072.8828,565.98364,80829037,0.875,0.11702127,235.73186,-1017.07935,0.0017115467,0.011952236,-0.024835587,0.0,0.0,0.0
1074.0898,550.47375,80829053,0.85,0.08510638,41.436413,-1017.36255,0.0017115467,0.011952236,-0.024835587,0.0,0.0,0.0
1074.1282,533.8522,80829070,0.8625,0.09574468,-106.058846,-1031.2896,0.0017115467,0.011952236,-0.024835587,0.0,0.0,0.0
1073.5873,521.8065,80829087,0.8625,0.12765957,-167.65392,-929.9243,0.0017115467,0.011952236,-0.024835587,0.0,0.0,0.0
1072.5493,511.83728,80829103,0.8625,0.10638297,-182.29097,-716.2578,0.0017115467,0.011952236,-0.024835587,0.0,0.0,0.0
1070.4005,506.80505,80829120,0.875,0.08510638,-165.3063,-406.49164,0.0017115467,0.011952236,-0.024835587,0.0,0.0,0.0
1067.6538,503.09326,80829137,0.875,0.08510638,-184.5912,-101.57476,0.0017115467,0.011952236,-0.024835587,0.0,0.0,0.0
1060.7155,499.38416,80829154,0.90000004,0.08510638,-317.187,9.236047,0.0017115467,0.011952236,-0.024835587,0.0,0.0,0.0
1053.7092,498.32666,80829170,0.90000004,0.08510638,-488.22263,20.907879,0.0017115467,0.011952236,-0.024835587,0.0,0.0,0.0
1047.4711,498.82007,80829187,0.90000004,0.10638297,-537.1399,46.154118,0.0013692373,0.009561792,-0.01986885,0.0,0.0,0.0
1042.3811,500.66223,80829204,0.90000004,0.11702127,-454.97067,153.8027,0.0013692373,0.009561792,-0.01986885,0.0,0.0,0.0
1038.3652,506.55322,80829220,0.9125,0.12765957,-275.4288,308.35434,0.0013692373,0.009561792,-0.01986885,0.0,0.0,0.0
1034.4622,517.62134,80829237,0.90000004,0.09574468,-178.89644,606.02045,0.0013692373,0.009561792,-0.01986885,0.0,0.0,0.0
1033.1415,531.93164,80829254,0.9125,0.08510638,-107.45401,926.9793,0.0013692373,0.009561792,-0.01986885,0.0,0.0,0.0
1033.1415,545.1422,80829271,0.8875,0.09574468,4.4304895,1123.1417,0.0013692373,0.009561792,-0.01986885,0.0,0.0,0.0
1034.6665,553.5045,80829287,0.8875,0.12765957,123.1704,896.53107,0.0013692373,0.009561792,-0.01986885,0.0,0.0,0.0
1036.7404,558.0343,80829304,0.8875,0.12765957,214.56735,463.92,0.0013692373,0.009561792,-0.01986885,0.0,0.0,0.0
1043.2723,562.621,80829321,0.8875,0.12765957,341.37912,145.50269,0.0013692373,0.009561792,-0.01986885,0.0,0.0,0.0
1051.7179,565.20496,80829337,0.875,0.12765957,515.51953,-19.687668,0.0013692373,0.009561792,-0.01986885,0.0,0.0,0.0
1061.9031,563.7262,80829354,0.875,0.12765957,695.5548,-107.509155,0.0013692373,0.009561792,-0.01986885,0.0,0.0,0.0
1070.1024,559.77405,80829371,0.8625,0.11702127,731.6543,-255.85301,0.0013692373,0.009561792,-0.01986885,0.0,0.0,0.0
1077.3651,554.7594,80829388,0.85,0.09574468,586.0951,-435.07318,0.0013692373,0.009561792,-0.01986885,0.0,0.0,0.0
1082.2444,548.76013,80829404,0.875,0.08510638,372.3604,-501.5384,0.0013692373,0.009561792,-0.01986885,0.0,0.0,0.0
1086.5933,541.9181,80829421,0.8625,0.07446808,206.59483,-507.74844,0.0013692373,0.009561792,-0.01986885,0.0,0.0,0.0
1089.7112,536.37573,80829438,0.8625,0.08510638,113.58471,-449.16647,0.0013692373,0.009561792,-0.01986885,0.0,0.0,0.0
1092.3143,530.15405,80829454,0.85,0.10638297,69.94212,-392.071,0.0013692373,0.009561792,-0.01986885,0.0,0.0,0.0
1094.8676,523.8063,80829471,0.85,0.12765957,79.02221,-353.59253,0.0013692373,0.009561792,-0.01986885,0.0,0.0,0.0
1099.0566,516.2095,80829488,0.85,0.12765957,140.8688,-399.93085,0.0013692373,0.009561792,-0.01986885,0.0,0.0,0.0
1103.7576,508.79102,80829504,0.8625,0.08510638,250.20894,-474.44724,0.0013692373,0.009561792,-0.01986885,0.0,0.0,0.0
1108.3838,502.41357,80829521,0.85,0.08510638,322.0736,-467.44424,0.0013692373,0.009561792,-0.01986885,0.0,0.0,0.0
1113.6167,496.9037,80829538,0.85,0.07446808,351.5731,-386.2515,0.0013692373,0.009561792,-0.01986885,0.0,0.0,0.0
1118.9382,493.39575,80829555,0.83750004,0.07446808,344.9088,-253.80615,0.0013692373,0.009561792,-0.01986885,0.0,0.0,0.0
1125.0773,490.0442,80829571,0.8625,0.08510638,359.02957,-156.20862,0.0013692373,0.009561792,-0.01986885,0.0,0.0,0.0
1131.6583,488.1599,80829588,0.85,0.08510638,393.6848,-76.724045,0.0013692373,0.009561792,-0.01986885,0.0,0.0,0.0
1138.9988,487.66467,80829605,0.8625,0.08510638,447.22037,-14.933648,0.0013692373,0.009561792,-0.01986885,0.0,0.0,0.0
1146.7139,489.08862,80829621,0.8625,0.08510638,490.9349,85.720474,0.0013692373,0.009561792,-0.01986885,0.0,0.0,0.0
1153.1365,492.42334,80829638,0.875,0.08510638,470.53928,222.43059,0.0013692373,0.009561792,-0.01986885,0.0,0.0,0.0
1159.2483,496.04492,80829655,0.875,0.09574468,399.16428,314.43515,0.0013692373,0.009561792,-0.01986885,0.0,0.0,0.0
1165.5549,500.6703,80829672,0.875,0.12765957,341.48755,364.07526,0.0013692373,0.009561792,-0.01986885,0.0,0.0,0.0
1169.4202,504.33655,80829688,0.875,0.12765957,274.6464,322.95325,0.0013692373,0.009561792,-0.01986885,0.0,0.0,0.0
1173.0863,508.97742,80829705,0.875,0.10638297,210.29367,294.18988,-0.00690461,-3.5056472E-4,0.016104698,0.0,0.0,0.0
1176.7723,515.5238,80829722,0.875,0.08510638,159.20107,326.59332,-0.00690461,-3.5056472E-4,0.016104698,0.0,0.0,0.0
1179.2334,521.79944,80829738,0.8875,0.08510638,125.249954,405.44153,-0.00690461,-3.5056472E-4,0.016104698,0.0,0.0,0.0
1181.314,528.43164,80829755,0.875,0.08510638,107.6595,449.33633,-0.00690461,-3.5056472E-4,0.016104698,0.0,0.0,0.0
1183.2406,536.9581,80829772,0.875,0.09574468,95.69903,503.33942,-0.00690461,-3.5056472E-4,0.016104698,0.0,0.0,0.0
1184.2864,545.0198,80829789,0.8875,0.09574468,53.944843,536.62195,-0.00690461,-3.5056472E-4,0.016104698,0.0,0.0,0.0
1184.5922,552.42053,80829805,0.875,0.12765957,9.133825,509.7205,-0.00690461,-3.5056472E-4,0.016104698,0.0,0.0,0.0
1185.092,561.18005,80829822,0.8625,0.12765957,-8.430443,514.10156,-0.00690461,-3.5056472E-4,0.016104698,0.0,0.0,0.0
1185.092,568.9287,80829839,0.875,0.11702127,-27.182682,483.02396,-0.00690461,-3.5056472E-4,0.016104698,0.0,0.0,0.0
1185.092,574.8164,80829855,0.8875,0.09574468,-22.484278,425.57242,-0.00690461,-3.5056472E-4,0.016104698,0.0,0.0,0.0
1185.092,581.95325,80829872,0.8875,0.09574468,-14.920542,379.8591,-0.00690461,-3.5056472E-4,0.016104698,0.0,0.0,0.0
1185.092,589.32446,80829889,0.8875,0.08510638,-8.847313,367.55505,-0.00690461,-3.5056472E-4,0.016104698,0.0,0.0,0.0
1185.092,595.89307,80829906,0.8875,0.09574468,-5.4491735,393.41815,-0.00690461,-3.5056472E-4,0.016104698,0.0,0.0,0.0
1185.092,601.4469,80829922,0.8875,0.11702127,0.0069450126,385.72937,-0.00690461,-3.5056472E-4,0.016104698,0.0,0.0,0.0
1185.092,606.01636,80829939,0.8875,0.12765957,0.02992543,306.11386,-0.00690461,-3.5056472E-4,0.016104698,0.0,0.0,0.0
1185.092,609.6942,80829956,0.875,0.12765957,0.04169732,199.58156,-0.00690461,-3.5056472E-4,0.016104698,0.0,0.0,0.0
1185.092,612.2893,80829972,0.8875,0.12765957,0.038027536,129.72914,-0.00690461,-3.5056472E-4,0.016104698,0.0,0.0,0.0
1185.092,614.1819,80829989,0.8875,0.12765957,-0.006591842,72.72389,-0.00690461,-3.5056472E-4,0.016104698,0.0,0.0,0.0
1185.092,614.7206,80830006,0.875,0.12765957,-9.2813265E-5,16.263422,-0.00690461,-3.5056472E-4,0.016104698,0.0,0.0,0.0
1185.092,614.7206,80830023,0.8875,0.12765957,-0.097294345,-37.09542,-0.00690461,-3.5056472E-4,0.016104698,0.0,0.0,0.0
1185.092,614.7206,80830039,0.875,0.12765957,0.08151105,-67.332085,-0.00690461,-3.5056472E-4,0.016104698,0.0,0.0,0.0
1185.092,613.2903,80830056,0.8625,0.11702127,0.071050815,-87.03108,-0.00690461,-3.5056472E-4,0.016104698,0.0,0.0,0.0
1185.092,608.73047,80830073,0.85,0.09574468,-0.010369344,-193.3668,-0.00690461,-3.5056472E-4,0.016104698,0.0,0.0,0.0
1185.4867,596.48303,80830089,0.8625,0.08510638,7.4590383,-539.74243,-0.00690461,-3.5056472E-4,0.016104698,0.0,0.0,0.0
1186.0273,583.5348,80830106,0.85,0.09574468,26.641499,-908.63214,-0.00690461,-3.5056472E-4,0.016104698,0.0,0.0,0.0
1187.068,571.4337,80830123,0.85,0.12765957,55.57393,-1039.2268,-0.00690461,-3.5056472E-4,0.016104698,0.0,0.0,0.0
1189.169,560.9928,80830139,0.85,0.09574468,107.42824,-883.53357,-0.00690461,-3.5056472E-4,0.016104698,0.0,0.0,0.0
1191.2051,551.12585,80830156,0.8625,0.08510638,150.35535,-684.7036,-0.00690461,-3.5056472E-4,0.016104698,0.0,0.0,0.0
1193.289,541.8655,80830173,0.85,0.08510638,166.07523,-538.53827,-0.00690461,-3.5056472E-4,0.016104698,0.0,0.0,0.0
1195.3903,534.5718,80830190,0.85,0.09574468,158.9362,-451.89383,-0.00690461,-3.5056472E-4,0.016104698,0.0,0.0,0.0
1197.0001,529.21436,80830206,0.85,0.11702127,121.4723,-334.3256,-0.00690461,-3.5056472E-4,0.016104698,0.0,0.0,0.0
1198.0138,526.00183,80830223,0.8625,0.12765957,69.885345,-150.61938,-0.00690461,-3.5056472E-4,0.016104698,0.0,0.0,0.0
1199.9625,521.3158,80830240,0.83750004,0.12765957,77.26391,-132.46187,0.002476312,-0.016280457,0.01288414,0.0,0.0,0.0
1202.757,516.3136,80830256,0.85,0.12765957,118.71542,-190.24588,0.002476312,-0.016280457,0.01288414,0.0,0.0,0.0
1205.2523,512.2462,80830273,0.85,0.12765957,177.57895,-254.65358,0.002476312,-0.016280457,0.01288414,0.0,0.0,0.0
1207.7021,509.21533,80830290,0.8625,0.10638297,183.17284,-241.5795,0.002476312,-0.016280457,0.01288414,0.0,0.0,0.0
1211.6962,507.38367,80830307,0.8625,0.10638297,201.2964,-131.25793,0.002476312,-0.016280457,0.01288414,0.0,0.0,0.0
1215.3638,507.21167,80830323,0.8625,0.12765957,230.88928,-7.5030513,0.002476312,-0.016280457,0.01288414,0.0,0.0,0.0
1219.0663,507.21167,80830340,0.8625,0.10638297,251.76941,68.34662,0.002476312,-0.016280457,0.01288414,0.0,0.0,0.0
1222.1521,508.16418,80830357,0.8625,0.12765957,245.78195,101.20577,0.002476312,-0.016280457,0.01288414,0.0,0.0,0.0
1224.2239,510.00574,80830373,0.8625,0.10638297,165.57303,140.18336,0.002476312,-0.016280457,0.01288414,0.0,0.0,0.0
1226.3064,512.94727,80830390,0.8625,0.08510638,102.69334,186.72879,0.002476312,-0.016280457,0.01288414,0.0,0.0,0.0
1230.0962,520.8799,80830407,0.875,0.08510638,128.8488,359.50598,0.002476312,-0.016280457,0.01288414,0.0,0.0,0.0
1231.9795,529.4364,80830424,0.875,0.07446808,140.28323,552.6414,0.002476312,-0.016280457,0.01288414,0.0,0.0,0.0
1233.3077,538.5879,80830440,0.875,0.08510638,132.33093,696.6474,0.002476312,-0.016280457,0.01288414,0.0,0.0,0.0
1234.6229,545.9868,80830457,0.875,0.10638297,64.28547,670.11127,0.002476312,-0.016280457,0.01288414,0.0,0.0,0.0
1236.6819,551.4768,80830474,0.875,0.12765957,50.437103,454.41898,0.002476312,-0.016280457,0.01288414,0.0,0.0,0.0
1238.7615,558.5209,80830490,0.8625,0.12765957,102.70561,326.7088,0.002476312,-0.016280457,0.01288414,0.0,0.0,0.0
1241.0715,565.55115,80830507,0.85,0.11702127,137.9878,310.75595,0.002476312,-0.016280457,0.01288414,0.0,0.0,0.0
1244.7489,572.3856,80830524,0.8625,0.09574468,191.9967,383.3287,0.002476312,-0.016280457,0.01288414,0.0,0.0,0.0
1247.5007,578.16565,80830541,0.875,0.09574468,217.72414,425.15466,0.002476312,-0.016280457,0.01288414,0.0,0.0,0.0
1250.5972,582.7814,80830557,0.8625,0.07446808,214.20685,317.887,0.002476312,-0.016280457,0.01288414,0.0,0.0,0.0
1254.2195,587.35474,80830574,0.8625,0.08510638,218.30518,241.32997,0.002476312,-0.016280457,0.01288414,0.0,0.0,0.0
1260.0823,592.9652,80830591,0.875,0.08510638,275.0801,243.92195,0.002476312,-0.016280457,0.01288414,0.0,0.0,0.0
1265.2021,595.39966,80830607,0.8625,0.08510638,344.45544,214.1154,0.002476312,-0.016280457,0.01288414,0.0,0.0,0.0
1269.3171,597.2848,80830624,0.8625,0.08510638,350.02338,138.01639,0.002476312,-0.016280457,0.01288414,0.0,0.0,0.0
1273.1638,597.839,80830641,0.8625,0.08510638,289.21515,26.381529,0.002476312,-0.016280457,0.01288414,0.0,0.0,0.0
1276.3002,597.839,80830658,0.8625,0.08510638,185.38434,-71.730774,0.002476312,-0.016280457,0.01288414,0.0,0.0,0.0
1279.418,597.839,80830674,0.85,0.08510638,148.62836,-74.43127,0.002476312,-0.016280457,0.01288414,0.0,0.0,0.0
1282.1964,597.839,80830691,0.85,0.08510638,146.43343,-50.526264,0.002476312,-0.016280457,0.01288414,0.0,0.0,0.0
1284.734,597.839,80830708,0.85,0.07446808,135.43826,-25.351835,0.002476312,-0.016280457,0.01288414,0.0,0.0,0.0
1287.3352,596.26074,80830724,0.85,0.08510638,134.95482,-38.225105,0.002476312,-0.016280457,0.01288414,0.0,0.0,0.0
1289.42,594.4077,80830741,0.85,0.08510638,124.07386,-106.001656,0.002476312,-0.016280457,0.01288414,0.0,0.0,0.0
1292.5049,592.53906,80830758,0.85,0.08510638,138.07948,-156.36018,0.002476312,-0.016280457,0.01288414,0.0,0.0,0.0
1294.5999,590.6924,80830774,0.83750004,0.09574468,148.7299,-158.13126,-0.0060189506,0.026975617,-0.037693024,0.0,0.0,0.0
1297.1638,588.8579,80830791,0.825,0.08510638,150.63449,-133.36655,-0.0060189506,0.026975617,-0.037693024,0.0,0.0,0.0
1298.645,588.06555,80830808,0.825,0.08510638,121.97435,-84.188286,-0.0060189506,0.026975617,-0.037693024,0.0,0.0,0.0
1299.6975,588.06555,80830825,0.575,0.08510638,68.89503,-22.24869,-0.0060189506,0.026975617,-0.037693024,0.0,0.0,0.0
1299.5548,588.06555,80830831,0.2375,0.09574468,37.60242,3.394413,-0.0060189506,0.026975617,-0.037693024,0.0,0.0,0.0
1299.5548,588.06555,80830838,0.2375,0.09574468,37.60242,3.394413,-0.0060189506,0.026975617,-0.037693024,0.0,0.0,0.0
