x,y,timestamp,pressure,fingerarea,velocityx,velocityy,accelx,accely,accelz,gyrox,gyroy,gyroz
428.3384,184.68506,80789986,0.8,0.12765957,0.0,0.0,0.012565672,0.013070598,0.0013465881,0.0,0.0,0.0
428.3384,184.68506,80790002,0.85,0.12765957,-0.7359732,-0.3210204,0.012565672,0.013070598,0.0013465881,0.0,0.0,0.0
428.3384,184.68506,80790035,0.9125,0.09574468,-0.027896546,-0.011808237,0.012565672,0.013070598,0.0013465881,0.0,0.0,0.0
424.80908,165.02966,80790052,0.9125,0.09574468,-160.52025,-915.8701,0.012565672,0.013070598,0.0013465881,0.0,0.0,0.0
420.96545,155.58594,80790068,0.9125,0.08510638,-275.99857,-1143.4849,0.012565672,0.013070598,0.0013465881,0.0,0.0,0.0
411.86258,146.05188,80790085,0.9125,0.10638297,-441.75085,-1056.6228,0.012565672,0.013070598,0.0013465881,0.0,0.0,0.0
391.84378,132.2594,80790102,0.9375,0.12765957,-919.79193,-994.9061,0.012565672,0.013070598,0.0013465881,0.0,0.0,0.0
366.11603,121.28186,80790119,0.95,0.08510638,-1574.1033,-669.3326,0.012565672,0.013070598,0.0013465881,0.0,0.0,0.0
334.32706,117.15881,80790135,0.975,0.08510638,-2159.6218,-454.66196,0.012565672,0.013070598,0.0013465881,0.0,0.0,0.0
299.34714,120.99878,80790152,0.975,0.08510638,-2481.0483,-69.45679,0.012565672,0.013070598,0.0013465881,0.0,0.0,0.0
269.38962,130.91162,80790169,0.95,0.12765957,-2411.2368,644.9309,0.012565672,0.013070598,0.0013465881,0.0,0.0,0.0
245.89877,146.47864,80790185,0.96250004,0.08510638,-1932.8118,1183.3961,0.012565672,0.013070598,0.0013465881,0.0,0.0,0.0
228.35922,164.87134,80790202,0.96250004,0.10638297,-1219.8921,1456.5452,0.0100525385,0.0024564713,0.001077652,0.0,0.0,0.0
215.107,192.01697,80790219,0.9375,0.09574468,-628.3798,1670.9373,0.0100525385,0.0024564713,0.001077652,0.0,0.0,0.0
211.17105,214.97815,80790235,0.925,0.09574468,-150.25644,1802.6748,0.0100525385,0.0024564713,0.001077652,0.0,0.0,0.0
215.2616,231.84131,80790252,0.95,0.12765957,296.94067,1582.8007,0.0100525385,0.0024564713,0.001077652,0.0,0.0,0.0
233.81378,253.19617,80790269,0.975,0.08510638,1000.3908,1319.0648,0.0100525385,0.0024564713,0.001077652,0.0,0.0,0.0
267.49814,276.2296,80790286,0.9875,0.08510638,2041.6816,1181.3566,0.0100525385,0.0024564713,0.001077652,0.0,0.0,0.0
308.6727,291.21265,80790302,0.95,0.12765957,3023.2607,1076.7543,0.0100525385,0.0024564713,0.001077652,0.0,0.0,0.0
346.66183,302.9983,80790319,0.975,0.09574468,3293.6357,880.0398,0.0100525385,0.0024564713,0.001077652,0.0,0.0,0.0
376.38022,316.68896,80790336,0.95,0.08510638,2694.2542,538.2452,0.0100525385,0.0024564713,0.001077652,0.0,0.0,0.0
400.84143,334.0421,80790352,0.925,0.08510638,1803.1106,622.24005,0.0100525385,0.0024564713,0.001077652,0.0,0.0,0.0
414.99863,352.88916,80790369,0.8875,0.11702127,901.3085,970.21893,0.0100525385,0.0024564713,0.001077652,0.0,0.0,0.0
429.69357,394.57605,80790386,0.8875,0.09574468,480.58395,1891.5627,0.0100525385,0.0024564713,0.001077652,0.0,0.0,0.0
427.75583,431.3888,80790403,0.8875,0.09574468,-44.678722,2580.9639,0.0100525385,0.0024564713,0.001077652,0.0,0.0,0.0
417.13007,464.68433,80790419,0.90000004,0.08510638,-724.92444,2693.802,0.0100525385,0.0024564713,0.001077652,0.0,0.0,0.0
398.98352,492.83508,80790436,0.90000004,0.10638297,-1390.7051,2364.333,0.0100525385,0.0024564713,0.001077652,0.0,0.0,0.0
368.92664,523.6426,80790453,0.9125,0.07446808,-2069.8086,1769.1449,0.0100525385,0.0024564713,0.001077652,0.0,0.0,0.0
338.99796,544.6869,80790469,0.9125,0.06382979,-2461.4868,1337.4689,0.0100525385,0.0024564713,0.001077652,0.0,0.0,0.0
308.6849,555.96814,80790486,0.9375,0.08510638,-2414.2483,874.5227,0.0100525385,0.0024564713,0.001077652,0.0,0.0,0.0
276.48828,558.7449,80790503,0.9375,0.11702127,-2207.4243,133.82811,0.0100525385,0.0024564713,0.001077652,0.0,0.0,0.0
261.95734,556.98145,80790520,0.9375,0.11702127,-1585.0245,-437.68494,0.0100525385,0.0024564713,0.001077652,0.0,0.0,0.0
237.94678,545.7456,80790536,0.925,0.06382979,-1034.8076,-943.86475,0.0100525385,0.0024564713,0.001077652,0.0,0.0,0.0
223.85303,533.37634,80790553,0.9375,0.08510638,-719.3142,-1115.1292,0.0100525385,0.0024564713,0.001077652,0.0,0.0,0.0
212.28922,520.4794,80790570,0.9125,0.12765957,-489.59656,-1186.3845,0.0100525385,0.0024564713,0.001077652,0.0,0.0,0.0
199.71298,495.6615,80790586,0.925,0.07446808,-551.93567,-1301.713,0.0100525385,0.0024564713,0.001077652,0.0,0.0,0.0
192.99149,476.4198,80790603,0.9125,0.08510638,-427.08276,-1551.4115,0.0100525385,0.0024564713,0.001077652,0.0,0.0,0.0
190.87888,458.6432,80790620,0.925,0.10638297,-196.68047,-1457.7373,0.0100525385,0.0024564713,0.001077652,0.0,0.0,0.0
192.55365,444.92078,80790637,0.9375,0.07446808,122.969284,-1138.4817,0.0100525385,0.0024564713,0.001077652,0.0,0.0,0.0
196.83813,432.14636,80790653,0.925,0.08510638,430.29703,-736.3305,0.0100525385,0.0024564713,0.001077652,0.0,0.0,0.0
200.09161,426.04004,80790670,0.9125,0.11702127,516.6962,-344.91248,0.0100525385,0.0024564713,0.001077652,0.0,0.0,0.0
209.31497,416.66846,80790687,0.925,0.12765957,551.53796,-316.0382,0.0100525385,0.0024564713,0.001077652,0.0,0.0,0.0
222.89911,408.24866,80790703,0.9125,0.10638297,757.77106,-325.92233,0.0100525385,0.0024564713,0.001077652,0.0,0.0,0.0
238.19785,403.1908,80790720,0.90000004,0.12765957,1043.0791,-340.242,0.0100525385,0.0024564713,0.001077652,0.0,0.0,0.0
252.57584,400.9906,80790737,0.90000004,0.12765957,1149.6035,-214.76152,0.008042031,-0.014034823,-0.015137672,0.0,0.0,0.0
271.03293,400.5913,80790753,0.9125,0.12765957,1157.9178,42.36633,0.008042031,-0.014034823,-0.015137672,0.0,0.0,0.0
287.8482,402.15833,80790770,0.90000004,0.10638297,1143.8535,215.1384,0.008042031,-0.014034823,-0.015137672,0.0,0.0,0.0
299.11365,404.00916,80790787,0.9125,0.12765957,952.5112,258.67288,0.008042031,-0.014034823,-0.015137672,0.0,0.0,0.0
306.67667,405.86267,80790804,0.90000004,0.12765957,618.0696,239.43271,0.008042031,-0.014034823,-0.015137672,0.0,0.0,0.0
311.4284,407.7224,80790820,0.925,0.11702127,210.48058,179.03151,0.008042031,-0.014034823,-0.015137672,0.0,0.0,0.0
315.57907,409.5669,80790837,0.95,0.08510638,13.471734,133.89023,0.008042031,-0.014034823,-0.015137672,0.0,0.0,0.0
318.60922,411.3927,80790854,0.9375,0.08510638,4.165019,111.14118,0.008042031,-0.014034823,-0.015137672,0.0,0.0,0.0
321.24472,414.3589,80790870,0.95,0.08510638,40.315456,135.77866,0.008042031,-0.014034823,-0.015137672,0.0,0.0,0.0
324.9184,418.12012,80790887,0.9125,0.07446808,115.76028,198.89157,0.008042031,-0.014034823,-0.015137672,0.0,0.0,0.0
329.0028,420.51282,80790904,0.925,0.06382979,191.10783,224.15034,0.008042031,-0.014034823,-0.015137672,0.0,0.0,0.0
331.3623,421.9154,80790921,0.95,0.06382979,213.68208,165.83527,0.008042031,-0.014034823,-0.015137672,0.0,0.0,0.0
332.36966,421.9154,80790937,0.9375,0.06382979,131.65428,30.582207,0.008042031,-0.014034823,-0.015137672,0.0,0.0,0.0
332.36966,421.9154,80790954,0.95,0.06382979,-5.2932897,-72.69581,0.008042031,-0.014034823,-0.015137672,0.0,0.0,0.0
332.36966,421.9154,80790971,0.95,0.06382979,-85.31061,-78.435135,0.008042031,-0.014034823,-0.015137672,0.0,0.0,0.0
332.36966,421.9154,80790987,0.96250004,0.07446808,-80.26203,-42.745167,0.008042031,-0.014034823,-0.015137672,0.0,0.0,0.0
332.36966,421.9154,80791002,0.96250004,0.07446808,-48.14379,-19.383305,0.008042031,-0.014034823,-0.015137672,0.0,0.0,0.0
332.36966,421.9154,80791021,0.975,0.07446808,-5.796739,-0.012865281,0.008042031,-0.014034823,-0.015137672,0.0,0.0,0.0
332.36966,421.9154,80791054,0.975,0.07446808,0.01132298,0.015187239,0.008042031,-0.014034823,-0.015137672,0.0,0.0,0.0
332.36966,421.9154,80791071,0.96250004,0.07446808,0.008335483,0.011626113,0.008042031,-0.014034823,-0.015137672,0.0,0.0,0.0
331.79697,421.9154,80791088,0.96250004,0.07446808,-18.674944,0.0286288,0.008042031,-0.014034823,-0.015137672,0.0,0.0,0.0
330.6586,421.9154,80791104,0.96250004,0.07446808,-60.250355,-0.015344488,0.008042031,-0.014034823,-0.015137672,0.0,0.0,0.0
329.6466,423.2019,80791121,0.96250004,0.07446808,-87.82022,51.43862,0.008042031,-0.014034823,-0.015137672,0.0,0.0,0.0
328.6074,423.69238,80791138,0.975,0.07446808,-88.74729,64.96251,0.008042031,-0.014034823,-0.015137672,0.0,0.0,0.0
327.87112,424.2268,80791155,0.96250004,0.07446808,-65.600464,48.097145,0.008042031,-0.014034823,-0.015137672,0.0,0.0,0.0
327.87112,424.58093,80791171,0.9875,0.07446808,-18.414711,28.656916,0.008042031,-0.014034823,-0.015137672,0.0,0.0,0.0
327.87112,425.46936,80791188,0.95,0.07446808,13.582304,27.523643,0.008042031,-0.014034823,-0.015137672,0.0,0.0,0.0
329.19293,426.19995,80791205,0.90000004,0.06382979,59.18586,39.752274,0.008042031,-0.014034823,-0.015137672,0.0,0.0,0.0
330.8351,427.24646,80791221,0.6875,0.06382979,116.62389,69.110504,0.008042031,-0.014034823,-0.015137672,0.0,0.0,0.0
330.87015,427.24646,80791222,0.26250002,0.06382979,117.65815,67.76201,0.008042031,-0.014034823,-0.015137672,0.0,0.0,0.0
330.87015,427.24646,80791230,0.26250002,0.06382979,117.65815,67.76201,0.008042031,-0.014034823,-0.015137672,0.0,0.0,0.0
490.31824,550.7484,80792201,0.675,0.08510638,0.0,0.0,-0.0060531003,0.0118177235,0.031910896,0.0,0.0,0.0
490.31824,550.7484,80792224,0.7375,0.08510638,0.024790606,0.022386095,-0.0060531003,0.0118177235,0.031910896,0.0,0.0,0.0
490.31824,550.7484,80792241,0.825,0.09574468,0.02660656,0.029764822,-0.0060531003,0.0118177235,0.031910896,0.0,0.0,0.0
490.31824,550.7484,80792253,0.85,0.09574468,0.010917595,0.012295547,-0.0060531003,0.0118177235,0.031910896,0.0,0.0,0.0
490.31824,550.7484,80792274,0.8625,0.08510638,-0.010386707,-0.012110213,-0.0060531003,0.0118177235,0.031910896,0.0,0.0,0.0
490.31824,550.7484,80792291,0.875,0.08510638,-0.022994418,-0.027533596,-0.0060531003,0.0118177235,0.031910896,0.0,0.0,0.0
483.24304,528.1227,80792324,0.83750004,0.11702127,-186.00461,-579.6939,-0.0060531003,0.0118177235,0.031910896,0.0,0.0,0.0
481.82098,510.19202,80792341,0.825,0.09574468,-282.72247,-1266.53,-0.00484248,0.009454176,-0.022470474,0.0,0.0,0.0
483.59125,484.48083,80792358,0.8625,0.08510638,-94.45302,-1834.3561,-0.00484248,0.009454176,-0.022470474,0.0,0.0,0.0
485.62775,460.45496,80792374,0.83750004,0.12765957,179.69125,-1904.543,-0.00484248,0.009454176,-0.022470474,0.0,0.0,0.0
487.66266,437.41248,80792391,0.85,0.07446808,319.34222,-1447.9227,-0.00484248,0.009454176,-0.022470474,0.0,0.0,0.0
488.18524,417.18335,80792408,0.83750004,0.10638297,236.01622,-1326.149,-0.00484248,0.009454176,-0.022470474,0.0,0.0,0.0
488.81873,400.76453,80792424,0.85,0.10638297,58.18866,-1094.1465,-0.00484248,0.009454176,-0.022470474,0.0,0.0,0.0
489.31854,386.88733,80792441,0.8625,0.07446808,-6.307054,-787.8184,-0.00484248,0.009454176,-0.022470474,0.0,0.0,0.0
488.81903,380.15747,80792458,0.8625,0.07446808,-32.239048,-469.08237,-0.00484248,0.009454176,-0.022470474,0.0,0.0,0.0
487.77222,377.40698,80792475,0.8875,0.08510638,-66.53068,-90.23523,-0.00484248,0.009454176,-0.022470474,0.0,0.0,0.0
487.81903,376.15747,80792486,0.90000004,0.08510638,-68.2675,115.603386,-0.00484248,0.009454176,-0.022470474,0.0,0.0,0.0
487.81903,379.73462,80792508,0.9125,0.09574468,-36.079502,363.23706,-0.00484248,0.009454176,-0.022470474,0.0,0.0,0.0
492.69623,396.60632,80792525,0.9125,0.12765957,124.27625,772.5517,-0.00484248,0.009454176,-0.022470474,0.0,0.0,0.0
500.94775,423.60254,80792541,0.8875,0.06382979,404.1036,1492.494,-0.00484248,0.009454176,-0.022470474,0.0,0.0,0.0
510.94025,448.7035,80792558,0.8875,0.10638297,717.3241,2137.166,-0.00484248,0.009454176,-0.022470474,0.0,0.0,0.0
521.05396,473.1714,80792575,0.8875,0.07446808,824.504,2108.4556,-0.00484248,0.009454176,-0.022470474,0.0,0.0,0.0
528.5715,489.02527,80792591,0.875,0.09574468,716.0516,1541.5339,-0.00484248,0.009454176,-0.022470474,0.0,0.0,0.0
535.9146,499.34692,80792608,0.8625,0.12765957,481.84915,717.0161,-0.00484248,0.009454176,-0.022470474,0.0,0.0,0.0
545.1122,508.82153,80792625,0.90000004,0.10638297,411.8993,281.1966,-0.00484248,0.009454176,-0.022470474,0.0,0.0,0.0
553.3627,514.95056,80792642,0.90000004,0.09574468,473.45972,110.15195,-0.00484248,0.009454176,-0.022470474,0.0,0.0,0.0
559.63446,517.8165,80792658,0.90000004,0.08510638,470.6573,20.566084,-0.00484248,0.009454176,-0.022470474,0.0,0.0,0.0
564.35394,517.8738,80792675,0.8875,0.10638297,355.41193,-47.427498,-0.00484248,0.009454176,-0.022470474,0.0,0.0,0.0
566.9257,515.9791,80792692,0.8625,0.12765957,148.15144,-247.61374,-0.00484248,0.009454176,-0.022470474,0.0,0.0,0.0
569.49536,512.18225,80792709,0.83750004,0.10638297,43.208748,-358.40872,-0.00484248,0.009454176,-0.022470474,0.0,0.0,0.0
575.6956,495.91394,80792725,0.85,0.07446808,134.96216,-706.5693,-0.00484248,0.009454176,-0.022470474,0.0,0.0,0.0
577.47314,478.27686,80792742,0.83750004,0.08510638,189.01945,-1167.9427,-0.00484248,0.009454176,-0.022470474,0.0,0.0,0.0
579.0156,465.70496,80792759,0.83750004,0.12765957,158.24275,-1312.3783,-0.00484248,0.009454176,-0.022470474,0.0,0.0,0.0
579.2893,457.81714,80792775,0.83750004,0.10638297,27.177767,-947.8871,-0.00484248,0.009454176,-0.022470474,0.0,0.0,0.0
579.59344,452.8202,80792792,0.85,0.08510638,-81.813385,-342.29776,-0.00484248,0.009454176,-0.022470474,0.0,0.0,0.0
579.7891,450.64307,80792809,0.85,0.09574468,-58.83032,51.68902,-0.00484248,0.009454176,-0.022470474,0.0,0.0,0.0
580.1695,448.78284,80792826,0.85,0.09574468,-15.913463,130.54303,-0.00484248,0.009454176,-0.022470474,0.0,0.0,0.0
580.7052,447.682,80792842,0.85,0.09574468,11.13322,99.20181,-0.00484248,0.009454176,-0.022470474,0.0,0.0,0.0
580.7888,447.682,80792859,0.825,0.11702127,28.07982,64.94873,-0.00484248,0.009454176,-0.022470474,0.0,0.0,0.0
581.79193,448.57678,80792876,0.625,0.12765957,37.51749,77.667435,-0.011873984,0.0075633377,0.014023781,0.0,0.0,0.0
582.2883,448.57056,80792884,0.3125,0.13829787,46.559486,83.73425,-0.011873984,0.0075633377,0.014023781,0.0,0.0,0.0
582.2883,448.57056,80792891,0.3125,0.13829787,46.559486,83.73425,-0.011873984,0.0075633377,0.014023781,0.0,0.0,0.0
492.81744,283.30884,80793727,0.90000004,0.08510638,0.0,0.0,0.030500812,0.006050676,0.011219025,0.0,0.0,0.0
492.81744,283.30884,80793752,0.925,0.08510638,-0.0018632568,-0.0012801485,0.030500812,0.006050676,0.011219025,0.0,0.0,0.0
492.81744,283.30884,80793791,0.4875,0.12765957,0.0019444921,5.935911E-4,0.030500812,0.006050676,0.011219025,0.0,0.0,0.0
492.81744,283.30884,80793798,0.4875,0.12765957,0.0019444921,5.935911E-4,0.030500812,0.006050676,0.011219025,0.0,0.0,0.0
479.32184,281.53186,80794793,0.975,0.09574468,0.0,0.0,-0.00447948,-0.004127577,-0.0056200027,0.0,0.0,0.0
479.32184,281.53186,80794814,0.9875,0.09574468,-0.029805297,-0.014277466,-0.00447948,-0.004127577,-0.0056200027,0.0,0.0,0.0
479.32184,281.53186,80794829,1.025,0.09574468,-0.030472241,-0.01804838,-0.00447948,-0.004127577,-0.0056200027,0.0,0.0,0.0
479.32184,281.53186,80794847,1.0125,0.09574468,-0.027423564,-0.014544682,-0.00447948,-0.004127577,-0.0056200027,0.0,0.0,0.0
479.32184,281.53186,80794853,1.025,0.11702127,-0.044324506,-0.026086159,-0.00447948,-0.004127577,-0.0056200027,0.0,0.0,0.0
479.32184,281.53186,80794897,1.025,0.11702127,-0.009652185,-0.003184808,-0.00447948,-0.004127577,-0.0056200027,3.355443E-6,0.0,0.0
479.32184,281.53186,80794914,0.6125,0.12765957,0.008749715,0.004318409,-0.00447948,-0.004127577,-0.0056200027,3.355443E-6,0.0,0.0
479.32184,281.53186,80794921,0.6125,0.12765957,0.008749715,0.004318409,-0.00447948,-0.004127577,-0.0056200027,3.355443E-6,0.0,0.0
495.3166,296.63647,80795497,1.0,0.12765957,0.0,0.0,-0.003583584,0.020697936,0.011504173,0.0,0.0,0.0
495.3166,296.63647,80795516,1.025,0.12765957,-0.18262222,-0.114028856,-0.003583584,0.020697936,0.011504173,0.0,0.0,0.0
495.3166,296.63647,80795533,1.0375,0.12765957,-0.013036228,-0.008012701,-0.003583584,0.020697936,0.011504173,0.0,0.0,0.0
497.00763,302.14746,80795549,0.975,0.10638297,74.17937,241.75452,-0.026866866,-0.07144165,0.40920353,0.0,0.0,0.0
498.3156,306.41003,80795553,0.1875,0.06382979,142.47073,464.33334,-0.026866866,-0.07144165,0.40920353,0.0,0.0,0.0
498.3156,306.41003,80795560,0.1875,0.06382979,142.47073,464.33334,-0.026866866,-0.07144165,0.40920353,0.0,0.0,0.0
627.7735,540.0863,80796828,0.7625,0.06382979,0.0,0.0,-0.001194795,0.02787733,-0.038909912,0.0,0.0,0.0
627.7735,540.0863,80796853,0.8625,0.06382979,0.011505658,0.015312428,-0.001194795,0.02787733,-0.038909912,0.0,0.0,0.0
627.7735,540.0863,80796869,0.9125,0.07446808,0.0487142,0.04441825,-0.001194795,0.02787733,-0.038909912,0.0,0.0,0.0
627.7735,540.0863,80796886,0.925,0.07446808,-0.032728642,-0.02602402,-0.001194795,0.02787733,-0.038909912,0.0,0.0,0.0
627.7735,540.0863,80796903,0.9375,0.08510638,0.013814012,0.015233751,-0.001194795,0.02787733,-0.038909912,0.0,0.0,0.0
627.7735,540.0863,80796920,0.925,0.08510638,0.012847969,0.011943006,-0.001194795,0.02787733,-0.038909912,0.0,0.0,0.0
627.7735,540.0863,80796934,0.90000004,0.09574468,-0.005050218,-0.008046095,-0.001194795,0.02787733,-0.038909912,0.0,0.0,0.0
621.39734,516.6017,80796953,0.8875,0.12765957,-189.35406,-689.36993,-0.001194795,0.02787733,-0.038909912,0.0,0.0,0.0
619.7764,504.54956,80796970,0.8875,0.08510638,-288.17233,-1209.4705,-0.001194795,0.02787733,-0.038909912,0.0,0.0,0.0
618.7368,491.61438,80796986,0.875,0.06382979,-191.6232,-1186.5897,-0.001194795,0.02787733,-0.038909912,0.0,0.0,0.0
618.7764,474.81775,80797003,0.875,0.09574468,-40.29449,-1092.7556,-0.001194795,0.02787733,-0.038909912,0.0,0.0,0.0
619.3991,458.15552,80797020,0.8625,0.09574468,91.753265,-976.20386,-0.001194795,0.02787733,-0.038909912,0.0,0.0,0.0
619.7761,441.32825,80797037,0.8625,0.06382979,85.207695,-1108.0244,-0.001194795,0.02787733,-0.038909912,0.0,0.0,0.0
622.3646,424.10437,80797053,0.875,0.08510638,126.185524,-1121.433,-0.001194795,0.02787733,-0.038909912,0.0,0.0,0.0
624.97217,407.5338,80797070,0.8625,0.12765957,181.81523,-1065.5328,-0.001194795,0.02787733,-0.038909912,0.0,0.0,0.0
627.6091,393.57288,80797087,0.8625,0.07446808,212.8887,-962.93225,-0.001194795,0.02787733,-0.038909912,0.0,0.0,0.0
630.72534,380.64746,80797103,0.85,0.07446808,220.79677,-794.3995,-0.001194795,0.02787733,-0.038909912,0.0,0.0,0.0
633.819,369.94543,80797120,0.85,0.09574468,205.86172,-604.8413,-0.001194795,0.02787733,-0.038909912,0.0,0.0,0.0
637.7944,359.8888,80797137,0.8625,0.12765957,216.75519,-485.73843,-0.008955836,0.038301885,-0.06312752,0.0,0.0,0.0
641.5082,351.41455,80797153,0.8625,0.12765957,245.93956,-440.6891,-0.008955836,0.038301885,-0.06312752,0.0,0.0,0.0
643.22156,346.51758,80797170,0.85,0.09574468,200.21812,-329.19635,-0.008955836,0.038301885,-0.06312752,0.0,0.0,0.0
646.8408,341.88477,80797187,0.8875,0.09574468,164.50992,-203.13641,-0.008955836,0.038301885,-0.06312752,0.0,0.0,0.0
650.5066,340.06628,80797204,0.9125,0.10638297,177.35143,-73.70912,-0.008955836,0.038301885,-0.06312752,0.0,0.0,0.0
653.55334,340.1731,80797220,0.8875,0.10638297,199.12279,63.877254,-0.008955836,0.038301885,-0.06312752,0.0,0.0,0.0
655.5396,341.30615,80797237,0.8625,0.12765957,184.65344,148.13478,-0.008955836,0.038301885,-0.06312752,0.0,0.0,0.0
660.05927,346.56543,80797254,0.8875,0.10638297,196.13069,294.2322,-0.008955836,0.038301885,-0.06312752,0.0,0.0,0.0
664.6107,352.34424,80797270,0.9125,0.08510638,232.11758,437.41663,-0.008955836,0.038301885,-0.06312752,0.0,0.0,0.0
669.5454,361.11597,80797287,0.8625,0.06382979,320.83585,587.2865,-0.008955836,0.038301885,-0.06312752,0.0,0.0,0.0
677.23236,377.08142,80797304,0.8875,0.08510638,437.32654,879.32,-0.008955836,0.038301885,-0.06312752,0.0,0.0,0.0
680.6951,385.6018,80797321,0.9125,0.10638297,391.85565,912.582,-0.008955836,0.038301885,-0.06312752,0.0,0.0,0.0
683.80145,394.536,80797337,0.90000004,0.12765957,259.04535,741.66547,-0.008955836,0.038301885,-0.06312752,0.0,0.0,0.0
686.56396,405.7959,80797354,0.8875,0.10638297,130.61972,596.19165,-0.008955836,0.038301885,-0.06312752,0.0,0.0,0.0
688.155,416.9464,80797371,0.90000004,0.08510638,31.26067,557.29175,-0.008955836,0.038301885,-0.06312752,0.0,0.0,0.0
689.7452,428.0481,80797387,0.875,0.08510638,29.904812,661.26337,-0.008955836,0.038301885,-0.06312752,0.0,0.0,0.0
690.2532,437.26,80797404,0.90000004,0.11702127,28.780664,680.31824,-0.008955836,0.038301885,-0.06312752,0.0,0.0,0.0
691.32434,445.52515,80797421,0.85,0.12765957,9.011382,537.42413,-0.008955836,0.038301885,-0.06312752,0.0,0.0,0.0
692.85583,456.7826,80797438,0.85,0.11702127,40.923615,521.5688,-0.008955836,0.038301885,-0.06312752,0.0,0.0,0.0
693.8974,467.89136,80797454,0.8625,0.09574468,61.74331,595.3418,-0.008955836,0.038301885,-0.06312752,0.0,0.0,0.0
695.6411,477.84546,80797471,0.85,0.08510638,88.84589,656.1168,-0.008955836,0.038301885,-0.06312752,0.0,0.0,0.0
697.2087,487.9214,80797488,0.83750004,0.09574468,101.689285,665.47986,-0.008955836,0.038301885,-0.06312752,0.0,0.0,0.0
698.7869,494.90247,80797504,0.825,0.11702127,105.36324,502.04047,-0.008955836,0.038301885,-0.06312752,0.0,0.0,0.0
700.8694,501.41772,80797521,0.8125,0.12765957,125.86848,352.05966,-0.008955836,0.038301885,-0.06312752,0.0,0.0,0.0
703.7022,507.69385,80797538,0.83750004,0.12765957,149.24559,279.92215,-0.008955836,0.038301885,-0.06312752,0.0,0.0,0.0
706.02423,511.25647,80797554,0.85,0.10638297,171.24109,216.2416,-0.008955836,0.038301885,-0.06312752,0.0,0.0,0.0
709.4232,514.92065,80797571,0.875,0.10638297,189.36238,167.28906,-0.008955836,0.038301885,-0.06312752,0.0,0.0,0.0
713.592,516.917,80797588,0.925,0.09574468,236.96909,100.93264,-0.008955836,0.038301885,-0.06312752,0.0,0.0,0.0
719.28394,516.9852,80797605,0.9125,0.10638297,317.42352,-6.7170997,-0.008955836,0.038301885,-0.06312752,0.0,0.0,0.0
722.87494,514.16284,80797621,0.875,0.10638297,330.70795,-144.06546,-0.008955836,0.038301885,-0.06312752,0.0,0.0,0.0
725.3928,510.4972,80797638,0.875,0.10638297,253.50748,-283.29156,-0.008955836,0.038301885,-0.06312752,0.0,0.0,0.0
729.21423,500.40735,80797655,0.8625,0.07446808,171.33165,-521.7273,-0.008955836,0.038301885,-0.06312752,0.0,0.0,0.0
732.7287,487.41248,80797671,0.8625,0.07446808,160.68268,-813.87256,8.353311E-4,-0.009358481,-0.06650162,0.0,0.0,0.0
735.6419,471.99866,80797688,0.8625,0.12765957,174.14366,-1065.4886,8.353311E-4,-0.009358481,-0.06650162,0.0,0.0,0.0
736.9807,456.66992,80797705,0.875,0.10638297,150.172,-1180.3423,8.353311E-4,-0.009358481,-0.06650162,0.0,0.0,0.0
738.7991,442.41138,80797722,0.875,0.07446808,67.13822,-1069.5344,8.353311E-4,-0.009358481,-0.06650162,0.0,0.0,0.0
740.8728,429.5094,80797738,0.8625,0.07446808,48.03637,-867.5604,8.353311E-4,-0.009358481,-0.06650162,0.0,0.0,0.0
742.0901,418.77148,80797755,0.85,0.10638297,74.68036,-696.9723,8.353311E-4,-0.009358481,-0.06650162,0.0,0.0,0.0
744.02954,410.20874,80797772,0.8625,0.12765957,94.86646,-511.92056,8.353311E-4,-0.009358481,-0.06650162,0.0,0.0,0.0
745.1725,402.81458,80797788,0.85,0.11702127,89.142044,-369.8918,8.353311E-4,-0.009358481,-0.06650162,0.0,0.0,0.0
745.7351,397.15747,80797805,0.8625,0.09574468,51.442825,-265.77277,8.353311E-4,-0.009358481,-0.06650162,0.0,0.0,0.0
745.7351,394.33716,80797822,0.875,0.09574468,5.5403013,-152.4269,8.353311E-4,-0.009358481,-0.06650162,0.0,0.0,0.0
745.7351,392.49548,80797839,0.875,0.09574468,-28.838514,-44.374317,8.353311E-4,-0.009358481,-0.06650162,0.0,0.0,0.0
745.7351,391.26196,80797850,0.90000004,0.09574468,-43.796177,9.980973,8.353311E-4,-0.009358481,-0.06650162,0.0,0.0,0.0
745.7351,391.7063,80797872,0.90000004,0.11702127,-19.981432,95.09695,8.353311E-4,-0.009358481,-0.06650162,0.0,0.0,0.0
746.9317,391.7063,80797889,0.90000004,0.12765957,25.66701,93.373405,8.353311E-4,-0.009358481,-0.06650162,0.0,0.0,0.0
748.1643,394.6294,80797905,0.8625,0.12765957,70.92238,133.49051,8.353311E-4,-0.009358481,-0.06650162,0.0,0.0,0.0
751.22906,402.35706,80797922,0.875,0.11702127,154.21802,345.4953,8.353311E-4,-0.009358481,-0.06650162,0.0,0.0,0.0
755.1959,414.5271,80797939,0.85,0.09574468,244.3187,670.75275,8.353311E-4,-0.009358481,-0.06650162,0.0,0.0,0.0
760.0589,428.71216,80797955,0.85,0.08510638,332.0201,1022.4323,8.353311E-4,-0.009358481,-0.06650162,0.0,0.0,0.0
765.1001,441.67554,80797972,0.83750004,0.10638297,374.31674,1103.3833,8.353311E-4,-0.009358481,-0.06650162,0.0,0.0,0.0
770.3537,453.23804,80797989,0.85,0.10638297,373.35928,962.7674,8.353311E-4,-0.009358481,-0.06650162,0.0,0.0,0.0
776.43353,465.06348,80798006,0.85,0.08510638,375.42084,769.3088,8.353311E-4,-0.009358481,-0.06650162,0.0,0.0,0.0
781.684,474.26697,80798022,0.83750004,0.06382979,358.04385,568.76013,8.353311E-4,-0.009358481,-0.06650162,0.0,0.0,0.0
787.8857,482.56714,80798039,0.875,0.08510638,366.98203,464.98203,8.353311E-4,-0.009358481,-0.06650162,0.0,0.0,0.0
793.6007,489.98364,80798056,0.8625,0.09574468,361.09076,386.30225,8.353311E-4,-0.009358481,-0.06650162,0.0,0.0,0.0
798.776,494.28088,80798072,0.875,0.11702127,335.5548,278.6024,8.353311E-4,-0.009358481,-0.06650162,0.0,0.0,0.0
802.9892,496.89307,80798089,0.90000004,0.11702127,277.73474,138.94128,8.353311E-4,-0.009358481,-0.06650162,0.0,0.0,0.0
806.478,498.32666,80798106,0.90000004,0.11702127,210.41719,7.246974,8.353311E-4,-0.009358481,-0.06650162,0.0,0.0,0.0
809.9017,498.32666,80798123,0.8875,0.09574468,175.39127,-83.2915,8.353311E-4,-0.009358481,-0.06650162,0.0,0.0,0.0
812.7485,496.96265,80798139,0.875,0.08510638,153.9931,-136.19463,8.353311E-4,-0.009358481,-0.06650162,0.0,0.0,0.0
815.1525,494.5475,80798156,0.8875,0.07446808,125.80863,-188.99448,8.353311E-4,-0.009358481,-0.06650162,0.0,0.0,0.0
817.4196,490.84937,80798173,0.85,0.07446808,107.36502,-266.80878,8.353311E-4,-0.009358481,-0.06650162,0.0,0.0,0.0
819.9873,483.12817,80798190,0.83750004,0.07446808,114.45073,-406.47537,8.353311E-4,-0.009358481,-0.06650162,0.0,0.0,0.0
822.4675,475.05554,80798206,0.85,0.10638297,131.3176,-554.02905,-0.007331735,0.016513199,-0.053201675,0.0,0.0,0.0
824.181,464.81702,80798223,0.83750004,0.12765957,133.26743,-687.59595,-0.007331735,0.016513199,-0.053201675,0.0,0.0,0.0
825.72406,452.8263,80798240,0.83750004,0.08510638,99.9681,-788.6805,-0.007331735,0.016513199,-0.053201675,0.0,0.0,0.0
827.321,442.73987,80798256,0.83750004,0.07446808,74.76632,-780.11346,-0.007331735,0.016513199,-0.053201675,0.0,0.0,0.0
828.3032,434.56763,80798273,0.85,0.07446808,52.221695,-649.899,-0.007331735,0.016513199,-0.053201675,0.0,0.0,0.0
829.3521,429.14343,80798290,0.85,0.08510638,45.407166,-427.19785,-0.007331735,0.016513199,-0.053201675,0.0,0.0,0.0
829.20795,424.75635,80798307,0.85,0.08510638,18.808388,-213.09442,-0.007331735,0.016513199,-0.053201675,0.0,0.0,0.0
829.20795,422.42358,80798323,0.875,0.08510638,-17.228329,-67.00495,-0.007331735,0.016513199,-0.053201675,0.0,0.0,0.0
829.20795,421.02686,80798340,0.8875,0.08510638,-34.71768,-8.830567,-0.007331735,0.016513199,-0.053201675,0.0,0.0,0.0
829.20795,421.02686,80798357,0.8875,0.08510638,-23.79542,53.860485,-0.007331735,0.016513199,-0.053201675,0.0,0.0,0.0
829.20795,421.02686,80798373,0.9125,0.08510638,-4.857645,96.767746,-0.007331735,0.016513199,-0.053201675,0.0,0.0,0.0
829.5369,421.02686,80798390,0.8875,0.07446808,5.486936,78.76051,-0.007331735,0.016513199,-0.053201675,0.0,0.0,0.0
830.9751,423.2798,80798407,0.8875,0.07446808,46.932945,93.13489,-0.007331735,0.016513199,-0.053201675,0.0,0.0,0.0
832.651,428.72583,80798423,0.8875,0.06382979,110.58629,235.155,-0.007331735,0.016513199,-0.053201675,0.0,0.0,0.0
833.90295,433.54565,80798440,0.875,0.08510638,129.15303,384.5157,-0.007331735,0.016513199,-0.053201675,0.0,0.0,0.0
835.7659,440.78772,80798457,0.85,0.09574468,121.03133,496.6039,-0.007331735,0.016513199,-0.053201675,0.0,0.0,0.0
837.3033,449.0929,80798474,0.8625,0.10638297,107.8896,550.44415,-0.007331735,0.016513199,-0.053201675,0.0,0.0,0.0
839.9971,459.90393,80798490,0.83750004,0.09574468,129.89508,624.9261,-0.007331735,0.016513199,-0.053201675,0.0,0.0,0.0
842.7277,472.0681,80798507,0.825,0.06382979,167.34381,764.3901,-0.007331735,0.016513199,-0.053201675,0.0,0.0,0.0
845.4509,481.66272,80798524,0.825,0.07446808,183.06789,791.801,-0.007331735,0.016513199,-0.053201675,0.0,0.0,0.0
848.8779,490.15576,80798540,0.825,0.08510638,217.18059,694.0526,-0.007331735,0.016513199,-0.053201675,0.0,0.0,0.0
851.7764,495.318,80798557,0.8125,0.12765957,207.9949,409.30942,-0.007331735,0.016513199,-0.053201675,0.0,0.0,0.0
855.9277,501.39807,80798574,0.8125,0.12765957,230.28917,208.76848,-0.007331735,0.016513199,-0.053201675,0.0,0.0,0.0
860.9188,508.77014,80798591,0.825,0.11702127,273.664,240.55284,-0.007331735,0.016513199,-0.053201675,0.0,0.0,0.0
865.9948,515.26624,80798607,0.83750004,0.08510638,317.3064,338.3528,-0.007331735,0.016513199,-0.053201675,0.0,0.0,0.0
870.3568,520.23926,80798624,0.83750004,0.08510638,340.7141,393.23788,-0.007331735,0.016513199,-0.053201675,0.0,0.0,0.0
874.52936,523.94775,80798641,0.85,0.08510638,290.89426,287.3152,-0.007331735,0.016513199,-0.053201675,0.0,0.0,0.0
878.7145,527.6675,80798657,0.8625,0.06382979,244.26552,167.13396,-0.007331735,0.016513199,-0.053201675,0.0,0.0,0.0
882.28705,530.3699,80798674,0.8625,0.06382979,214.23276,120.39684,-0.007331735,0.016513199,-0.053201675,0.0,0.0,0.0
884.34717,532.2295,80798691,0.85,0.06382979,157.93314,88.28966,-0.007331735,0.016513199,-0.053201675,0.0,0.0,0.0
885.8107,532.9783,80798708,0.875,0.06382979,89.85202,46.86091,-0.007331735,0.016513199,-0.053201675,0.0,0.0,0.0
886.8481,532.9783,80798724,0.8875,0.06382979,20.02857,-28.186615,-0.007331735,0.016513199,-0.053201675,0.0,0.0,0.0
886.89233,532.9783,80798741,0.8625,0.06382979,-31.194036,-66.81478,-0.005865388,-0.010789439,-0.026561737,0.0,0.0,0.0
887.5589,532.9783,80798758,0.875,0.06382979,-20.690815,-53.46908,-0.005865388,-0.010789439,-0.026561737,0.0,0.0,0.0
887.9698,532.9783,80798774,0.8875,0.06382979,-4.5886216,-25.54684,-0.005865388,-0.010789439,-0.026561737,0.0,0.0,0.0
888.1887,532.9783,80798790,0.875,0.06382979,6.983868,-7.8268447,-0.005865388,-0.010789439,-0.026561737,0.0,0.0,0.0
888.68854,532.9783,80798808,0.875,0.06382979,24.379986,-0.01230481,-0.005865388,-0.010789439,-0.026561737,0.0,0.0,0.0
888.68854,532.9783,80798825,0.8875,0.06382979,8.193548,-0.017775685,-0.005865388,-0.010789439,-0.026561737,0.0,0.0,0.0
889.11676,532.9783,80798841,0.8625,0.06382979,4.349593,0.014706375,-0.005865388,-0.010789439,-0.026561737,0.0,0.0,0.0
889.68823,532.9783,80798858,0.90000004,0.06382979,23.085943,-0.025920628,-0.005865388,-0.010789439,-0.026561737,0.0,0.0,0.0
890.1998,532.9783,80798875,0.90000004,0.06382979,34.9396,0.0049375603,-0.005865388,-0.010789439,-0.026561737,0.0,0.0,0.0
890.18805,532.9783,80798891,0.8875,0.06382979,26.937572,-9.790107E-4,-0.005865388,-0.010789439,-0.026561737,0.0,0.0,0.0
890.6879,532.9783,80798908,0.90000004,0.06382979,21.368023,0.033564493,-0.005865388,-0.010789439,-0.026561737,0.0,0.0,0.0
891.31976,532.9783,80798925,0.90000004,0.06382979,21.98195,-0.02062483,-0.005865388,-0.010789439,-0.026561737,0.0,0.0,0.0
891.68756,532.9783,80798942,0.90000004,0.06382979,31.392729,-0.01609881,-0.005865388,-0.010789439,-0.026561737,0.0,0.0,0.0
891.68756,532.9783,80798958,0.8875,0.06382979,19.608093,0.006378792,-0.005865388,-0.010789439,-0.026561737,0.0,0.0,0.0
891.68756,532.9783,80798975,0.875,0.06382979,-7.6032486,0.014495852,-0.005865388,-0.010789439,-0.026561737,0.0,0.0,0.0
891.68756,532.9783,80798991,0.90000004,0.06382979,-15.42106,0.029969662,-0.005865388,-0.010789439,-0.026561737,0.0,0.0,0.0
891.68756,532.9783,80799008,0.9125,0.06382979,-8.837283,-0.025135567,-0.005865388,-0.010789439,-0.026561737,0.0,0.0,0.0
891.68756,532.9783,80799025,0.90000004,0.07446808,0.038550317,0.021819845,-0.005865388,-0.010789439,-0.026561737,0.0,0.0,0.0
891.68756,532.9783,80799042,0.90000004,0.07446808,-0.0066845724,-0.0051798406,-0.005865388,-0.010789439,-0.026561737,0.0,0.0,0.0
891.68756,532.9783,80799047,0.90000004,0.06382979,0.021296391,0.012093666,-0.005865388,-0.010789439,-0.026561737,0.0,0.0,0.0
891.68756,532.9783,80799075,0.90000004,0.07446808,0.027608695,0.017898552,-0.005865388,-0.010789439,-0.026561737,0.0,0.0,0.0
891.68756,532.9783,80799092,0.90000004,0.07446808,-0.01678319,-0.010555655,-0.005865388,-0.010789439,-0.026561737,0.0,0.0,0.0
891.68756,532.9783,80799109,0.90000004,0.07446808,0.053263854,0.03464196,-0.005865388,-0.010789439,-0.026561737,0.0,0.0,0.0
891.68756,532.9783,80799125,0.90000004,0.06382979,0.06954804,0.04220179,-0.005865388,-0.010789439,-0.026561737,0.0,0.0,0.0
891.68756,532.9783,80799142,0.90000004,0.07446808,0.03694676,0.019730248,-0.005865388,-0.010789439,-0.026561737,0.0,0.0,0.0
891.68756,532.9783,80799159,0.90000004,0.06382979,0.047946405,0.028676428,-0.005865388,-0.010789439,-0.026561737,0.0,0.0,0.0
891.68756,532.9783,80799175,0.90000004,0.06382979,0.08713303,0.053451378,-0.005865388,-0.010789439,-0.026561737,0.0,0.0,0.0
891.68756,532.9783,80799192,0.875,0.06382979,-0.021801295,-0.011586716,-0.005865388,-0.010789439,-0.026561737,0.0,0.0,0.0
891.68756,532.9783,80799208,0.8875,0.06382979,0.025112085,0.018220294,-0.005865388,-0.010789439,-0.026561737,0.0,0.0,0.0
891.68756,533.8668,80799242,0.83750004,0.06382979,0.056281265,32.420506,-0.005865388,-0.010789439,-0.026561737,0.0,0.0,0.0
891.68756,533.8668,80799259,0.5375,0.08510638,0.006892883,25.719025,-0.005865388,-0.010789439,-0.026561737,0.0,0.0,0.0
891.68756,533.8668,80799260,0.2125,0.07446808,-0.038685933,22.565466,-0.005865388,-0.010789439,-0.026561737,0.0,0.0,0.0
891.68756,533.8668,80799267,0.2125,0.07446808,-0.038685933,22.565466,-0.005865388,-0.010789439,-0.026561737,0.0,0.0,0.0
1048.6365,441.46252,80799469,0.6,0.08510638,0.0,0.0,-0.020692311,-0.008631542,0.010750771,0.0,0.0,0.0
1048.6365,441.46252,80799493,0.71250004,0.06382979,-0.2202263,-0.09546336,-0.020692311,-0.008631542,0.010750771,0.0,0.0,0.0
1048.6365,441.46252,80799510,0.8625,0.07446808,0.034714002,0.014680001,-0.020692311,-0.008631542,0.010750771,0.0,0.0,0.0
1048.6365,441.46252,80799542,0.8625,0.08510638,-0.03709129,-0.014210617,-0.020692311,-0.008631542,0.010750771,0.0,0.0,0.0
1048.6365,441.46252,80799560,0.83750004,0.09574468,-0.027678274,-0.013031656,-0.020692311,-0.008631542,0.010750771,0.0,0.0,0.0
1037.6594,423.16724,80799576,0.8125,0.11702127,-402.94907,-677.2931,-0.020692311,-0.008631542,0.010750771,0.0,0.0,0.0
1030.6241,415.93127,80799593,0.8,0.12765957,-617.2348,-890.5231,-0.020692311,-0.008631542,0.010750771,0.0,0.0,0.0
1021.94556,409.062,80799610,0.825,0.12765957,-623.9641,-543.51245,-0.020692311,-0.008631542,0.010750771,0.0,0.0,0.0
1010.7107,404.87817,80799627,0.83750004,0.10638297,-699.5504,-325.91214,-0.020692311,-0.008631542,0.010750771,0.0,0.0,0.0
999.3064,403.25684,80799643,0.825,0.12765957,-722.18945,-20.93343,-0.020692311,-0.008631542,0.010750771,0.0,0.0,0.0
989.2888,405.47498,80799660,0.8,0.12765957,-752.3998,143.73221,-0.020692311,-0.008631542,0.010750771,0.0,0.0,0.0
980.04346,410.6245,80799677,0.8125,0.09574468,-652.0422,363.7682,-0.020692311,-0.008631542,0.010750771,0.0,0.0,0.0
969.6814,422.1582,80799693,0.8,0.07446808,-559.00867,670.02625,-0.020692311,-0.008631542,0.010750771,0.0,0.0,0.0
958.2471,436.90454,80799710,0.7875,0.08510638,-593.9639,997.5777,-0.020692311,-0.008631542,0.010750771,0.0,0.0,0.0
947.3323,453.55237,80799727,0.7875,0.08510638,-673.15643,1217.1265,-0.020692311,-0.008631542,0.010750771,0.0,0.0,0.0
933.4392,480.34656,80799744,0.7875,0.07446808,-797.532,1573.4237,-0.020692311,-0.008631542,0.010750771,0.0,0.0,0.0
927.6495,492.52832,80799760,0.7875,0.11702127,-636.7679,1423.4727,-0.020692311,-0.008631542,0.010750771,0.0,0.0,0.0
923.7225,504.385,80799777,0.77500004,0.12765957,-341.94556,1005.83435,-0.020692311,-0.008631542,0.010750771,0.0,0.0,0.0
922.48236,516.40125,80799794,0.77500004,0.09574468,-26.696749,630.1606,-0.020692311,-0.008631542,0.010750771,0.0,0.0,0.0
924.8348,530.3755,80799810,0.7875,0.08510638,268.44293,476.36475,-0.032553848,0.033094764,0.008600235,0.0,0.0,0.0
928.7406,541.09045,80799827,0.8,0.08510638,351.57962,693.79675,-0.032553848,0.033094764,0.008600235,0.0,0.0,0.0
938.5646,553.86145,80799844,0.8125,0.10638297,549.0325,703.5813,-0.032553848,0.033094764,0.008600235,0.0,0.0,0.0
953.6675,565.35315,80799861,0.83750004,0.10638297,899.48145,706.1485,-0.032553848,0.033094764,0.008600235,0.0,0.0,0.0
975.4109,573.9236,80799877,0.85,0.09574468,1325.6636,606.5162,-0.032553848,0.033094764,0.008600235,0.0,0.0,0.0
998.4336,575.62646,80799894,0.85,0.09574468,1686.5227,339.69128,-0.032553848,0.033094764,0.008600235,0.0,0.0,0.0
1017.0786,571.3733,80799911,0.83750004,0.11702127,1670.046,-147.2926,-0.032553848,0.033094764,0.008600235,0.0,0.0,0.0
1033.7585,563.1222,80799927,0.85,0.10638297,1239.8005,-655.62134,-0.032553848,0.033094764,0.008600235,0.0,0.0,0.0
1046.7285,551.91235,80799944,0.825,0.06382979,874.9051,-924.4498,-0.032553848,0.033094764,0.008600235,0.0,0.0,0.0
1056.3308,539.0028,80799961,0.8125,0.08510638,533.00745,-1057.0751,-0.032553848,0.033094764,0.008600235,0.0,0.0,0.0
1063.3633,526.13074,80799978,0.8125,0.12765957,331.53073,-1026.2758,-0.032553848,0.033094764,0.008600235,0.0,0.0,0.0
1073.1019,502.55176,80799994,0.825,0.08510638,319.14035,-1255.5559,-0.032553848,0.033094764,0.008600235,0.0,0.0,0.0
1077.028,484.46045,80800011,0.8,0.08510638,228.29053,-1359.2567,-0.032553848,0.033094764,0.008600235,0.0,0.0,0.0
1078.8685,467.8036,80800028,0.8,0.12765957,111.64457,-1263.7877,-0.032553848,0.033094764,0.008600235,0.0,0.0,0.0
1078.8441,450.15613,80800044,0.8,0.09574468,-71.57295,-1083.6418,-0.032553848,0.033094764,0.008600235,0.0,0.0,0.0
1075.8383,431.86475,80800061,0.8125,0.08510638,-268.6628,-979.1407,-0.032553848,0.033094764,0.008600235,0.0,0.0,0.0
1070.9022,416.73047,80800078,0.825,0.12765957,-367.7725,-1006.13116,-0.032553848,0.033094764,0.008600235,0.0,0.0,0.0
1065.3463,407.71875,80800095,0.8125,0.12765957,-460.33185,-770.9262,-0.032553848,0.033094764,0.008600235,0.0,0.0,0.0
1054.943,397.6361,80800111,0.8125,0.08510638,-598.9863,-485.44897,-0.032553848,0.033094764,0.008600235,0.0,0.0,0.0
1041.9281,390.92798,80800128,0.8125,0.09574468,-792.9599,-274.9233,-0.032553848,0.033094764,0.008600235,0.0,0.0,0.0
1028.3828,389.92932,80800145,0.8125,0.08510638,-956.13116,-80.28445,-0.032553848,0.033094764,0.008600235,0.0,0.0,0.0
1016.4269,390.92444,80800161,0.83750004,0.09574468,-962.9465,129.40228,-0.032553848,0.033094764,0.008600235,0.0,0.0,0.0
1006.13794,395.79993,80800178,0.825,0.10638297,-798.6488,382.43668,-0.032553848,0.033094764,0.008600235,0.0,0.0,0.0
998.9761,402.08093,80800195,0.825,0.12765957,-560.3284,593.0598,-0.032553848,0.033094764,0.008600235,0.0,0.0,0.0
989.25684,418.43066,80800211,0.8125,0.07446808,-410.05518,826.4658,-0.032553848,0.033094764,0.008600235,0.0,0.0,0.0
985.5077,432.2201,80800228,0.8,0.07446808,-287.28387,1078.1793,-0.032553848,0.033094764,0.008600235,0.0,0.0,0.0
984.4114,443.28186,80800245,0.8125,0.10638297,-112.97809,1091.9216,-0.032553848,0.033094764,0.008600235,0.0,0.0,0.0
987.27185,454.70447,80800262,0.825,0.12765957,160.33826,868.6411,-0.032553848,0.033094764,0.008600235,0.0,0.0,0.0
993.18164,465.19348,80800278,0.83750004,0.08510638,448.7904,611.5916,-0.032553848,0.033094764,0.008600235,0.0,0.0,0.0
1006.0084,479.64954,80800295,0.85,0.07446808,779.1333,601.2595,-0.032553848,0.033094764,0.008600235,0.0,0.0,0.0
1020.7997,490.4712,80800312,0.8625,0.09574468,1068.1251,750.36255,-0.032553848,0.033094764,0.008600235,0.0,0.0,0.0
1037.4929,496.39636,80800328,0.8625,0.10638297,1253.7496,617.37024,-0.032553848,0.033094764,0.008600235,0.0,0.0,0.0
1052.0289,499.20068,80800345,0.85,0.09574468,1231.8477,265.75647,-0.02604308,-0.029524192,-0.041119576,0.0,0.0,0.0
1061.9286,498.26807,80800362,0.85,0.08510638,885.42035,-126.01872,-0.02604308,-0.029524192,-0.041119576,0.0,0.0,0.0
1067.9935,494.5144,80800379,0.83750004,0.08510638,478.8004,-393.72516,-0.02604308,-0.029524192,-0.041119576,0.0,0.0,0.0
1073.1565,490.84338,80800395,0.83750004,0.08510638,167.61427,-451.63492,-0.02604308,-0.029524192,-0.041119576,0.0,0.0,0.0
1078.2424,485.06726,80800412,0.825,0.09574468,69.15807,-474.25574,-0.02604308,-0.029524192,-0.041119576,0.0,0.0,0.0
1080.061,479.39746,80800429,0.8125,0.11702127,37.39358,-455.4005,-0.02604308,-0.029524192,-0.041119576,0.0,0.0,0.0
1085.0316,466.18542,80800445,0.8125,0.12765957,133.96567,-608.7841,-0.02604308,-0.029524192,-0.041119576,0.0,0.0,0.0
1088.4315,454.58386,80800462,0.8125,0.09574468,185.3977,-849.1128,-0.02604308,-0.029524192,-0.041119576,0.0,0.0,0.0
1091.5463,444.0575,80800479,0.8125,0.07446808,197.0208,-892.2858,-0.02604308,-0.029524192,-0.041119576,0.0,0.0,0.0
1094.6675,434.81042,80800496,0.825,0.07446808,204.88144,-745.1151,-0.02604308,-0.029524192,-0.041119576,0.0,0.0,0.0
1097.0061,428.54236,80800512,0.8125,0.07446808,140.21284,-451.68588,-0.02604308,-0.029524192,-0.041119576,0.0,0.0,0.0
1099.3862,423.21924,80800529,0.8,0.08510638,107.24104,-236.46709,-0.02604308,-0.029524192,-0.041119576,0.0,0.0,0.0
1103.4849,417.65112,80800546,0.8125,0.09574468,160.5491,-194.54662,-0.02604308,-0.029524192,-0.041119576,0.0,0.0,0.0
1108.1401,412.1172,80800562,0.8125,0.12765957,248.56871,-226.1758,-0.02604308,-0.029524192,-0.041119576,0.0,0.0,0.0
1112.2793,408.44263,80800579,0.825,0.12765957,303.69717,-232.90413,-0.02604308,-0.029524192,-0.041119576,0.0,0.0,0.0
1116.4675,404.7201,80800596,0.825,0.12765957,310.7752,-220.65254,-0.02604308,-0.029524192,-0.041119576,0.0,0.0,0.0
1120.665,403.0116,80800613,0.825,0.12765957,267.5392,-120.33564,-0.02604308,-0.029524192,-0.041119576,0.0,0.0,0.0
1124.3638,401.14587,80800629,0.8,0.12765957,227.59172,-55.595592,-0.02604308,-0.029524192,-0.041119576,0.0,0.0,0.0
1127.2246,401.47986,80800646,0.8125,0.12765957,193.62978,14.424578,-0.02604308,-0.029524192,-0.041119576,0.0,0.0,0.0
1129.839,401.47986,80800663,0.7875,0.12765957,154.86395,62.38419,-0.02604308,-0.029524192,-0.041119576,0.0,0.0,0.0
1132.1553,401.96497,80800679,0.8125,0.12765957,122.83551,70.124405,-0.02604308,-0.029524192,-0.041119576,0.0,0.0,0.0
1134.2472,402.93567,80800696,0.8,0.12765957,100.88366,86.03583,-0.02604308,-0.029524192,-0.041119576,0.0,0.0,0.0
1136.2522,404.71777,80800713,0.83750004,0.12765957,91.6549,104.46048,-0.02604308,-0.029524192,-0.041119576,0.0,0.0,0.0
1138.0001,405.0338,80800730,0.825,0.11702127,94.97337,103.22298,-0.02604308,-0.029524192,-0.041119576,0.0,0.0,0.0
1139.037,405.0338,80800746,0.83750004,0.11702127,75.130104,46.01627,-0.02604308,-0.029524192,-0.041119576,0.0,0.0,0.0
1140.0841,405.0338,80800763,0.85,0.12765957,49.956852,-17.567484,-0.02604308,-0.029524192,-0.041119576,0.0,0.0,0.0
1141.1262,405.0338,80800780,0.85,0.11702127,37.41253,-36.332085,-0.02604308,-0.029524192,-0.041119576,0.0,0.0,0.0
1141.1063,405.0338,80800792,0.83750004,0.11702127,20.950836,-32.19521,-0.02604308,-0.029524192,-0.041119576,0.0,0.0,0.0
1141.1063,405.0338,80800813,0.85,0.11702127,-7.727386,0.01426763,-0.02604308,-0.029524192,-0.041119576,0.0,0.0,0.0
1141.1063,405.0338,80800830,0.8625,0.12765957,-26.306856,0.033654608,-0.02604308,-0.029524192,-0.041119576,0.0,0.0,0.0
1141.1063,405.0338,80800842,0.85,0.12765957,-30.887848,0.03114231,-0.02604308,-0.029524192,-0.041119576,0.0,0.0,0.0
1141.1063,405.0338,80800897,0.83750004,0.12765957,-0.017892107,-0.004986702,0.035165533,-0.007619351,-0.016896248,0.0,0.0,0.0
1141.1063,405.0338,80800913,0.83750004,0.12765957,0.020738428,0.0023363181,0.035165533,-0.007619351,-0.016896248,0.0,0.0,0.0
1141.7958,405.0338,80800930,0.8625,0.12765957,45.52735,0.012875452,0.035165533,-0.007619351,-0.016896248,0.0,0.0,0.0
1142.496,405.0338,80800947,0.85,0.12765957,54.241714,0.009954532,0.035165533,-0.007619351,-0.016896248,0.0,0.0,0.0
1143.0488,405.0338,80800963,0.85,0.11702127,52.472908,-0.010070685,0.035165533,-0.007619351,-0.016896248,0.0,0.0,0.0
1144.0927,405.0338,80800980,0.85,0.10638297,63.2816,0.009869346,0.035165533,-0.007619351,-0.016896248,0.0,0.0,0.0
1144.6359,405.97693,80800997,0.85,0.10638297,52.902695,23.83432,0.035165533,-0.007619351,-0.016896248,0.0,0.0,0.0
1145.671,407.8169,80801014,0.85,0.10638297,56.68059,93.01699,0.035165533,-0.007619351,-0.016896248,0.0,0.0,0.0
1146.7103,409.66418,80801030,0.83750004,0.08510638,63.539097,146.59813,0.035165533,-0.007619351,-0.016896248,0.0,0.0,0.0
1147.1722,410.4856,80801047,0.83750004,0.08510638,52.640297,131.79807,0.035165533,-0.007619351,-0.016896248,0.0,0.0,0.0
1149.4695,414.89404,80801064,0.8125,0.08510638,83.19233,174.9191,0.035165533,-0.007619351,-0.016896248,0.0,0.0,0.0
1151.0607,420.8761,80801080,0.8125,0.07446808,111.62446,298.50464,0.035165533,-0.007619351,-0.016896248,0.0,0.0,0.0
1152.3716,427.38037,80801097,0.7875,0.07446808,118.82268,456.2809,0.035165533,-0.007619351,-0.016896248,0.0,0.0,0.0
1153.4081,434.75085,80801114,0.7875,0.08510638,89.13047,541.2414,0.035165533,-0.007619351,-0.016896248,0.0,0.0,0.0
1154.773,443.26294,80801131,0.8,0.10638297,43.071922,523.1335,0.035165533,-0.007619351,-0.016896248,0.0,0.0,0.0
1155.9669,454.24377,80801147,0.8,0.10638297,59.040756,622.0878,0.035165533,-0.007619351,-0.016896248,0.0,0.0,0.0
1156.6013,466.17932,80801164,0.8,0.08510638,61.020355,741.754,0.035165533,-0.007619351,-0.016896248,0.0,0.0,0.0
1157.1012,478.36633,80801181,0.7875,0.06382979,40.223835,837.65466,0.035165533,-0.007619351,-0.016896248,0.0,0.0,0.0
1157.6031,490.35327,80801197,0.8125,0.08510638,11.07959,829.4386,0.035165533,-0.007619351,-0.016896248,0.0,0.0,0.0
1157.601,499.5172,80801214,0.8125,0.12765957,-6.470381,688.7274,0.035165533,-0.007619351,-0.016896248,0.0,0.0,0.0
1157.601,508.73828,80801231,0.8125,0.10638297,-8.896643,551.6754,0.035165533,-0.007619351,-0.016896248,0.0,0.0,0.0
1158.1008,515.7698,80801248,0.83750004,0.08510638,2.0926173,423.89285,0.035165533,-0.007619351,-0.016896248,0.0,0.0,0.0
1158.253,520.192,80801264,0.825,0.08510638,8.670713,277.01215,0.035165533,-0.007619351,-0.016896248,0.0,0.0,0.0
1159.3015,522.6736,80801281,0.83750004,0.08510638,37.220238,124.690384,0.035165533,-0.007619351,-0.016896248,0.0,0.0,0.0
1159.6003,524.5166,80801298,0.875,0.08510638,53.708717,-15.721067,0.035165533,-0.007619351,-0.016896248,0.0,0.0,0.0
1159.953,521.68933,80801348,0.8625,0.09574468,-21.096674,-160.08337,0.035165533,-0.007619351,-0.016896248,0.0,0.0,0.0
1160.9852,519.1698,80801364,0.83750004,0.10638297,27.076809,-192.70465,0.035165533,-0.007619351,-0.016896248,0.0,0.0,0.0
1163.3843,511.40186,80801381,0.8125,0.09574468,120.44467,-363.1658,0.035165533,-0.007619351,-0.016896248,0.0,0.0,0.0
1166.9928,499.54236,80801398,0.8,0.08510638,246.83951,-813.1752,0.035165533,-0.007619351,-0.016896248,0.0,0.0,0.0
1170.6702,486.5481,80801415,0.8,0.07446808,282.18793,-972.6403,0.0041324273,-0.03809549,-0.02951622,0.0,0.0,0.0
1173.7025,478.49512,80801431,0.7875,0.10638297,278.8994,-899.4384,0.0041324273,-0.03809549,-0.02951622,0.0,0.0,0.0
1178.57,469.93762,80801448,0.8,0.12765957,277.18723,-662.50964,0.0041324273,-0.03809549,-0.02951622,0.0,0.0,0.0
1185.5055,460.7384,80801465,0.7875,0.11702127,345.0927,-469.26276,0.0041324273,-0.03809549,-0.02951622,0.0,0.0,0.0
1193.4705,451.47913,80801481,0.8,0.09574468,469.39072,-441.4828,0.0041324273,-0.03809549,-0.02951622,0.0,0.0,0.0
1201.088,444.76172,80801498,0.8,0.07446808,559.34235,-459.18942,0.0041324273,-0.03809549,-0.02951622,0.0,0.0,0.0
1207.6045,439.6737,80801515,0.8,0.06382979,523.551,-382.48782,0.0041324273,-0.03809549,-0.02951622,0.0,0.0,0.0
1213.5338,437.3927,80801532,0.8,0.06382979,401.19418,-154.17822,0.0041324273,-0.03809549,-0.02951622,0.0,0.0,0.0
1218.228,437.0199,80801548,0.8125,0.08510638,287.2348,35.352543,0.0041324273,-0.03809549,-0.02951622,0.0,0.0,0.0
1222.4674,438.5249,80801565,0.8,0.08510638,207.76717,175.27753,0.0041324273,-0.03809549,-0.02951622,0.0,0.0,0.0
1226.2766,440.39502,80801582,0.8,0.10638297,178.94484,249.4309,0.0041324273,-0.03809549,-0.02951622,0.0,0.0,0.0
1228.8975,443.02576,80801598,0.8,0.10638297,144.26828,252.1652,0.0041324273,-0.03809549,-0.02951622,0.0,0.0,0.0
1232.4434,450.0631,80801615,0.7875,0.12765957,133.79085,324.86652,0.0041324273,-0.03809549,-0.02951622,0.0,0.0,0.0
1235.6488,461.31287,80801632,0.7875,0.08510638,167.06357,600.8249,0.0041324273,-0.03809549,-0.02951622,0.0,0.0,0.0
1237.138,479.00708,80801649,0.77500004,0.07446808,140.15662,1010.3517,0.0041324273,-0.03809549,-0.02951622,0.0,0.0,0.0
1237.0752,499.68103,80801665,0.75,0.12765957,51.340546,1392.7393,0.0041324273,-0.03809549,-0.02951622,0.0,0.0,0.0
1236.0754,520.8783,80801682,0.7625,0.08510638,-75.46856,1584.235,0.0041324273,-0.03809549,-0.02951622,0.0,0.0,0.0
1236.2568,540.00037,80801699,0.7625,0.07446808,-123.8939,1520.9005,0.0041324273,-0.03809549,-0.02951622,0.0,0.0,0.0
1238.7395,555.676,80801715,0.75,0.12765957,-17.249325,1226.9336,0.0041324273,-0.03809549,-0.02951622,0.0,0.0,0.0
1242.8984,568.6786,80801732,0.7625,0.09574468,209.87091,815.2305,0.0041324273,-0.03809549,-0.02951622,0.0,0.0,0.0
1247.8749,575.9856,80801749,0.7875,0.08510638,366.8867,453.404,0.0041324273,-0.03809549,-0.02951622,0.0,0.0,0.0
1256.645,583.38696,80801766,0.8,0.07446808,513.88995,231.76082,0.0041324273,-0.03809549,-0.02951622,0.0,0.0,0.0
1266.7117,586.95825,80801782,0.7875,0.06382979,654.41815,105.843575,0.0041324273,-0.03809549,-0.02951622,0.0,0.0,0.0
1277.7112,586.4396,80801799,0.7875,0.06382979,765.7475,-75.3398,0.0041324273,-0.03809549,-0.02951622,0.0,0.0,0.0
1297.9431,578.71545,80801816,0.7625,0.09574468,990.2845,-355.15,0.0041324273,-0.03809549,-0.02951622,0.0,0.0,0.0
1320.548,564.0759,80801824,0.275,0.10638297,1389.8688,-713.10406,0.0041324273,-0.03809549,-0.02951622,0.0,0.0,0.0
1320.548,564.0759,80801832,0.275,0.10638297,1389.8688,-713.10406,0.0041324273,-0.03809549,-0.02951622,0.0,0.0,0.0
