x,y,timestamp,pressure,fingerarea,velocityx,velocityy,accelx,accely,accelz,gyrox,gyroy,gyroz
588.7862,254.87683,127544337,0.725,0.11702127,0.0,0.0,-0.01575286,5.842149E-4,0.008143425,0.0,0.0,0.0
588.7862,254.87683,127544390,0.8,0.12765957,-0.0041582533,-0.0020766694,-0.01575286,5.842149E-4,0.008143425,0.0,0.0,0.0
584.7259,244.8833,127544406,0.7875,0.12765957,-130.90567,-322.2221,-0.01575286,5.842149E-4,0.008143425,0.0,0.0,0.0
573.85547,228.92163,127544423,0.8,0.08510638,-524.2974,-978.2594,-0.01575286,5.842149E-4,0.008143425,0.0,0.0,0.0
552.21173,214.8927,127544440,0.7875,0.08510638,-1184.1273,-1280.75,-0.01575286,5.842149E-4,0.008143425,0.0,0.0,0.0
522.9654,207.0846,127544456,0.8,0.08510638,-1883.2786,-1037.7017,-0.01575286,5.842149E-4,0.008143425,0.0,0.0,0.0
492.5639,208.70789,127544473,0.85,0.09574468,-2322.0227,-206.39648,-0.01575286,5.842149E-4,0.008143425,0.0,0.0,0.0
467.0218,220.02332,127544490,0.83750004,0.09574468,-2220.5818,542.12933,-0.01575286,5.842149E-4,0.008143425,0.0,0.0,0.0
441.00104,235.0039,127544507,0.85,0.12765957,-1821.6082,1156.0784,-0.01575286,5.842149E-4,0.008143425,0.0,0.0,0.0
430.48486,248.62866,127544523,0.85,0.11702127,-1132.5168,1431.3372,-0.01575286,5.842149E-4,0.008143425,0.0,0.0,0.0
420.84296,275.3048,127544540,0.8625,0.11702127,-509.81924,1657.7683,-0.01575286,5.842149E-4,0.008143425,0.0,0.0,0.0
422.12695,291.78455,127544557,0.875,0.12765957,74.35873,1545.7743,-0.01575286,5.842149E-4,0.008143425,0.0,0.0,0.0
429.45172,308.44275,127544573,0.875,0.11702127,704.17224,1260.2678,-0.01575286,5.842149E-4,0.008143425,0.0,0.0,0.0
453.42426,325.94824,127544590,0.85,0.09574468,1357.7062,985.1901,-0.01575286,5.842149E-4,0.008143425,0.0,0.0,0.0
486.5879,337.6371,127544607,0.85,0.12765957,2206.0466,750.3809,-0.01575286,5.842149E-4,0.008143425,0.0,0.0,0.0
524.0969,344.75598,127544623,0.83750004,0.12765957,2873.0566,537.37616,-0.01575286,5.842149E-4,0.008143425,0.0,0.0,0.0
554.7405,351.88525,127544640,0.825,0.10638297,2865.2288,250.0025,-0.01575286,5.842149E-4,0.008143425,0.0,0.0,0.0
574.3971,360.88635,127544657,0.8125,0.10638297,2049.6262,192.38148,-0.01575286,5.842149E-4,0.008143425,0.0,0.0,0.0
583.6122,374.43433,127544674,0.85,0.11702127,841.76184,430.23828,-0.01575286,5.842149E-4,0.008143425,0.0,0.0,0.0
583.74005,391.96106,127544690,0.825,0.12765957,-168.56789,971.8685,-0.01575286,5.842149E-4,0.008143425,0.0,0.0,0.0
572.02673,411.4104,127544707,0.85,0.09574468,-941.8393,1302.1617,-0.01575286,5.842149E-4,0.008143425,0.0,0.0,0.0
544.52826,438.1505,127544724,0.83750004,0.12765957,-1770.276,1622.6515,0.019397706,0.024467364,0.0065145493,0.0,0.0,0.0
516.768,456.2954,127544740,0.8625,0.12765957,-2311.4192,1580.817,0.019397706,0.024467364,0.0065145493,0.0,0.0,0.0
495.2915,462.94214,127544757,0.85,0.12765957,-2300.3374,1017.78937,0.019397706,0.024467364,0.0065145493,0.0,0.0,0.0
483.5583,461.16724,127544774,0.8625,0.12765957,-1597.6188,179.96208,0.019397706,0.024467364,0.0065145493,0.0,0.0,0.0
473.0453,455.656,127544791,0.8625,0.12765957,-559.6531,-716.47485,0.019397706,0.024467364,0.0065145493,0.0,0.0,0.0
464.39478,442.6859,127544807,0.825,0.08510638,-167.35388,-1058.3759,0.019397706,0.024467364,0.0065145493,0.0,0.0,0.0
459.1671,423.73523,127544824,0.8125,0.10638297,-102.848465,-1388.2595,0.019397706,0.024467364,0.0065145493,0.0,0.0,0.0
461.31677,410.17676,127544841,0.825,0.12765957,42.820934,-1408.7565,0.019397706,0.024467364,0.0065145493,0.0,0.0,0.0
466.5551,401.61865,127544857,0.77500004,0.10638297,396.9509,-1032.0675,0.019397706,0.024467364,0.0065145493,0.0,0.0,0.0
481.50244,390.172,127544874,0.5625,0.08510638,915.09906,-665.27716,0.019397706,0.024467364,0.0065145493,0.0,0.0,0.0
481.82098,389.92932,127544875,0.275,0.08510638,932.79553,-643.1155,0.019397706,0.024467364,0.0065145493,0.0,0.0,0.0
481.82098,389.92932,127544882,0.275,0.08510638,932.79553,-643.1155,0.019397706,0.024467364,0.0065145493,0.0,0.0,0.0
613.7781,421.02686,127545060,0.7625,0.08510638,0.0,0.0,0.019397706,0.024467364,0.0065145493,0.0,0.0,0.0
613.7781,421.02686,127545091,0.8,0.09574468,-0.034139853,-0.022126291,0.019397706,0.024467364,0.0065145493,0.0,0.0,0.0
613.7781,421.02686,127545108,0.825,0.09574468,-0.016223362,-0.010910789,0.019397706,0.024467364,0.0065145493,0.0,0.0,0.0
613.7781,421.02686,127545120,0.8,0.09574468,-0.03586513,-0.024185328,0.019397706,0.024467364,0.0065145493,0.0,0.0,0.0
613.7781,421.02686,127545140,0.7875,0.09574468,0.019921636,0.015031843,0.019397706,0.024467364,0.0065145493,0.0,0.0,0.0
613.7781,421.02686,127545158,0.8,0.10638297,0.033061475,0.02351504,0.019397706,0.024467364,0.0065145493,0.0,0.0,0.0
618.5131,400.58557,127545175,0.7875,0.09574468,110.24571,-476.186,0.019397706,0.024467364,0.0065145493,0.0,0.0,0.0
617.77673,396.00525,127545192,0.8,0.08510638,151.0952,-883.3415,0.019397706,0.024467364,0.0065145493,0.0,0.0,0.0
617.54767,391.7804,127545208,0.8125,0.08510638,86.92744,-807.1534,0.019397706,0.024467364,0.0065145493,0.0,0.0,0.0
616.50696,389.4491,127545225,0.8,0.08510638,-80.16024,-201.46754,0.019397706,0.024467364,0.0065145493,0.0,0.0,0.0
614.0148,389.60193,127545242,0.8125,0.10638297,-179.17657,163.23737,0.019397706,0.024467364,0.0065145493,0.0,0.0,0.0
609.5192,392.06897,127545258,0.825,0.12765957,-279.1789,357.16476,0.019397706,0.024467364,0.0065145493,0.0,0.0,0.0
604.42773,398.5537,127545275,0.8125,0.12765957,-355.8189,388.84497,0.019397706,0.024467364,0.0065145493,0.0,0.0,0.0
600.85114,411.16284,127545292,0.83750004,0.11702127,-385.14935,692.40704,-4.8182905E-4,-0.004426092,0.069211006,0.0,0.0,0.0
604.63416,425.104,127545309,0.83750004,0.10638297,-125.18353,1013.4472,-4.8182905E-4,-0.004426092,0.069211006,0.0,0.0,0.0
612.92,434.49182,127545325,0.8125,0.09574468,387.5022,982.3406,-4.8182905E-4,-0.004426092,0.069211006,0.0,0.0,0.0
627.1487,444.71094,127545342,0.7625,0.12765957,893.2676,794.0809,-4.8182905E-4,-0.004426092,0.069211006,0.0,0.0,0.0
637.3221,447.85193,127545359,0.7625,0.12765957,1081.6492,406.07632,-4.8182905E-4,-0.004426092,0.069211006,0.0,0.0,0.0
644.1209,446.5409,127545375,0.7875,0.10638297,865.9205,-23.73387,-4.8182905E-4,-0.004426092,0.069211006,0.0,0.0,0.0
651.0752,438.02356,127545392,0.7625,0.08510638,520.8813,-463.6662,-4.8182905E-4,-0.004426092,0.069211006,0.0,0.0,0.0
661.2626,422.80396,127545406,0.3,0.10638297,423.59653,-919.24695,-4.8182905E-4,-0.004426092,0.069211006,0.0,0.0,0.0
661.2626,422.80396,127545413,0.3,0.10638297,423.59653,-919.24695,-4.8182905E-4,-0.004426092,0.069211006,0.0,0.0,0.0
618.7764,326.84558,127545526,0.825,0.08510638,0.0,0.0,-4.8182905E-4,-0.004426092,0.069211006,0.0,0.0,0.0
618.7764,326.84558,127545559,0.77500004,0.08510638,0.03459814,0.019314954,-4.8182905E-4,-0.004426092,0.069211006,0.0,0.0,0.0
618.7764,326.84558,127545566,0.175,0.07446808,-0.0134522505,-0.009181978,-4.8182905E-4,-0.004426092,0.069211006,0.0,0.0,0.0
618.7764,326.84558,127545574,0.175,0.07446808,-0.0134522505,-0.009181978,-4.8182905E-4,-0.004426092,0.069211006,0.0,0.0,0.0
632.27203,347.28113,127546042,0.8125,0.12765957,0.0,0.0,-0.016385473,-0.0035408735,0.03936863,0.0,0.0,0.0
632.27203,347.28113,127546074,0.4375,0.12765957,-0.09657287,-0.050830916,-0.016385473,-0.0035408735,0.03936863,0.0,0.0,0.0
632.27203,347.28113,127546081,0.4375,0.12765957,-0.09657287,-0.050830916,-0.016385473,-0.0035408735,0.03936863,0.0,0.0,0.0
633.2717,337.50757,127546502,0.825,0.10638297,0.0,0.0,0.002891615,-0.0028326958,-5.054474E-4,0.0,0.0,0.0
633.2717,337.50757,127546528,0.83750004,0.10638297,0.3334522,0.17765686,0.002891615,-0.0028326958,-5.054474E-4,0.0,0.0,0.0
633.2717,337.50757,127546545,0.825,0.10638297,-0.047448292,-0.023879917,0.002891615,-0.0028326958,-5.054474E-4,0.0,0.0,0.0
633.2717,337.50757,127546549,0.5,0.12765957,0.05216179,0.029358415,0.002891615,-0.0028326958,-5.054474E-4,0.0,0.0,0.0
633.2717,337.50757,127546557,0.5,0.12765957,0.05216179,0.029358415,0.002891615,-0.0028326958,-5.054474E-4,0.0,0.0,0.0
632.27203,342.83862,127546921,0.825,0.12765957,0.0,0.0,-0.013686709,0.0057338476,-0.016404152,0.0,0.0,0.0
632.27203,342.83862,127546946,0.825,0.12765957,-0.050287653,-0.026857935,-0.013686709,0.0057338476,-0.016404152,0.0,0.0,0.0
632.27203,342.83862,127546960,0.77500004,0.12765957,-0.057024688,-0.030050596,-0.013686709,0.0057338476,-0.016404152,0.0,0.0,0.0
632.27203,342.83862,127546968,0.77500004,0.12765957,-0.057024688,-0.030050596,-0.013686709,0.0057338476,-0.016404152,0.0,0.0,0.0
640.2694,348.16968,127547316,0.83750004,0.12765957,0.0,0.0,-0.013686709,0.0057338476,-0.016404152,0.0,0.0,0.0
640.2694,348.16968,127547347,0.85,0.12765957,0.021657616,0.014393656,-0.013686709,0.0057338476,-0.016404152,0.0,0.0,0.0
640.2694,348.16968,127547360,0.83750004,0.12765957,-0.0546396,-0.03125089,-0.013686709,0.0057338476,-0.016404152,0.0,0.0,0.0
646.5294,352.21606,127547381,0.5,0.10638297,276.98352,179.03682,-0.013686709,0.0057338476,-0.016404152,0.0,0.0,0.0
646.5294,352.21606,127547388,0.5,0.10638297,276.98352,179.03682,-0.013686709,0.0057338476,-0.016404152,0.0,0.0,0.0
658.7634,450.34753,127548201,0.75,0.10638297,0.0,0.0,-0.011959501,0.0036696643,-0.032899857,0.0,0.0,0.0
658.7634,450.34753,127548233,0.8,0.10638297,-9.698622E-4,-3.59265E-4,-0.011959501,0.0036696643,-0.032899857,0.0,0.0,0.0
658.7634,450.34753,127548250,0.8125,0.10638297,0.0058066007,0.0053636897,-0.011959501,0.0036696643,-0.032899857,0.0,0.0,0.0
658.7634,450.34753,127548266,0.8125,0.10638297,-0.02320272,-0.015017125,-0.011959501,0.0036696643,-0.032899857,0.0,0.0,0.0
658.7634,450.34753,127548283,0.8,0.08510638,3.0762618E-4,3.290759E-4,-0.011959501,0.0036696643,-0.032899857,0.0,0.0,0.0
667.3299,424.5863,127548316,0.8,0.10638297,254.26945,-777.90356,-0.011959501,0.0036696643,-0.032899857,0.0,0.0,0.0
672.026,414.333,127548333,0.8,0.12765957,400.42465,-1080.7753,-0.011959501,0.0036696643,-0.032899857,0.0,0.0,0.0
680.4016,402.26624,127548350,0.8125,0.10638297,496.8774,-937.72614,-0.011959501,0.0036696643,-0.032899857,0.0,0.0,0.0
689.75037,390.52454,127548367,0.8,0.09574468,600.6515,-731.97125,-0.011959501,0.0036696643,-0.032899857,0.0,0.0,0.0
699.977,382.68677,127548383,0.77500004,0.08510638,709.45233,-569.0274,-0.011959501,0.0036696643,-0.032899857,0.0,0.0,0.0
709.3083,381.0443,127548400,0.8125,0.08510638,704.98004,-296.35022,-0.011959501,0.0036696643,-0.032899857,0.0,0.0,0.0
717.24756,384.2672,127548417,0.8,0.09574468,593.77594,127.06564,-0.011959501,0.0036696643,-0.032899857,0.0,0.0,0.0
721.2096,389.86987,127548433,0.8125,0.10638297,380.77707,556.8718,-0.011959501,0.0036696643,-0.032899857,0.0,0.0,0.0
726.28485,409.8623,127548450,0.825,0.10638297,223.84746,1072.8789,-0.011959501,0.0036696643,-0.032899857,0.0,0.0,0.0
726.7413,431.3081,127548467,0.8125,0.09574468,39.51907,1528.797,-0.011959501,0.0036696643,-0.032899857,0.0,0.0,0.0
725.6273,445.7527,127548484,0.825,0.10638297,-125.60842,1544.9897,-0.011959501,0.0036696643,-0.032899857,0.0,0.0,0.0
726.4097,455.39697,127548500,0.825,0.10638297,-162.46297,1130.693,-0.011959501,0.0036696643,-0.032899857,0.0,0.0,0.0
727.4448,459.9569,127548517,0.8,0.09574468,-91.46867,480.9307,-0.011959501,0.0036696643,-0.032899857,0.0,0.0,0.0
729.1654,461.00952,127548534,0.8,0.10638297,87.163994,-120.96778,-0.011959501,0.0036696643,-0.032899857,0.0,0.0,0.0
733.5308,459.20288,127548550,0.7875,0.12765957,223.16774,-310.58786,-0.011959501,0.0036696643,-0.032899857,0.0,0.0,0.0
739.00226,452.5421,127548567,0.7875,0.10638297,345.20776,-492.86874,-0.011959501,0.0036696643,-0.032899857,0.0,0.0,0.0
749.61597,427.09778,127548584,0.7625,0.09574468,575.5865,-1134.9718,-0.011959501,0.0036696643,-0.032899857,0.0,0.0,0.0
755.0983,408.83777,127548601,0.7625,0.12765957,633.6074,-1673.0071,0.006432399,-0.005064264,-0.058320045,0.0,0.0,0.0
758.054,397.66663,127548617,0.7875,0.11702127,429.0672,-1573.3094,0.006432399,-0.005064264,-0.058320045,0.0,0.0,0.0
758.73083,392.7511,127548634,0.8,0.09574468,114.6088,-849.638,0.006432399,-0.005064264,-0.058320045,0.0,0.0,0.0
758.73083,390.82983,127548651,0.8125,0.11702127,-144.00188,16.76949,0.006432399,-0.005064264,-0.058320045,0.0,0.0,0.0
758.73083,390.81775,127548667,0.8125,0.12765957,-175.50395,378.9176,0.006432399,-0.005064264,-0.058320045,0.0,0.0,0.0
760.87445,399.5835,127548684,0.825,0.12765957,-38.856613,536.92004,0.006432399,-0.005064264,-0.058320045,0.0,0.0,0.0
763.0137,418.47375,127548701,0.8125,0.08510638,93.913315,972.928,0.006432399,-0.005064264,-0.058320045,0.0,0.0,0.0
764.3941,435.8131,127548718,0.8125,0.10638297,156.40036,1418.7893,0.006432399,-0.005064264,-0.058320045,0.0,0.0,0.0
766.7595,446.27527,127548734,0.8125,0.12765957,161.40588,1379.0942,0.006432399,-0.005064264,-0.058320045,0.0,0.0,0.0
769.66473,451.18042,127548751,0.825,0.12765957,151.60419,707.4854,0.006432399,-0.005064264,-0.058320045,0.0,0.0,0.0
775.86395,454.38684,127548768,0.8125,0.10638297,273.6373,50.17666,0.006432399,-0.005064264,-0.058320045,0.0,0.0,0.0
782.61273,454.23035,127548784,0.7875,0.12765957,441.23193,-272.84497,0.006432399,-0.005064264,-0.058320045,0.0,0.0,0.0
789.5112,448.13696,127548801,0.77500004,0.10638297,519.3125,-403.02734,0.006432399,-0.005064264,-0.058320045,0.0,0.0,0.0
799.3044,430.14417,127548818,0.77500004,0.09574468,574.91187,-841.132,0.006432399,-0.005064264,-0.058320045,0.0,0.0,0.0
805.3588,412.36316,127548834,0.77500004,0.12765957,554.0631,-1385.3696,0.006432399,-0.005064264,-0.058320045,0.0,0.0,0.0
807.67676,401.81873,127548851,0.77500004,0.11702127,351.09998,-1406.4988,0.006432399,-0.005064264,-0.058320045,0.0,0.0,0.0
808.2147,396.9995,127548868,0.7875,0.11702127,60.18129,-791.1036,0.006432399,-0.005064264,-0.058320045,0.0,0.0,0.0
808.2147,395.19983,127548885,0.8,0.12765957,-149.46893,-107.46006,0.006432399,-0.005064264,-0.058320045,0.0,0.0,0.0
808.2147,395.26025,127548901,0.825,0.12765957,-189.21628,304.05313,0.006432399,-0.005064264,-0.058320045,0.0,0.0,0.0
811.23157,402.8601,127548918,0.83750004,0.12765957,-16.925291,475.85153,0.006432399,-0.005064264,-0.058320045,0.0,0.0,0.0
812.37775,422.75452,127548935,0.8125,0.11702127,107.31369,968.1233,0.006432399,-0.005064264,-0.058320045,0.0,0.0,0.0
812.91925,437.80554,127548951,0.83750004,0.12765957,120.090355,1366.1254,0.006432399,-0.005064264,-0.058320045,0.0,0.0,0.0
814.70184,448.53223,127548968,0.8,0.12765957,89.82188,1317.7661,0.006432399,-0.005064264,-0.058320045,0.0,0.0,0.0
817.268,454.8899,127548985,0.8,0.12765957,98.89378,739.1963,0.006432399,-0.005064264,-0.058320045,0.0,0.0,0.0
821.9656,460.06165,127549002,0.7625,0.09574468,203.71532,141.98848,0.006432399,-0.005064264,-0.058320045,0.0,0.0,0.0
830.4115,465.77478,127549018,0.6625,0.08510638,449.97043,29.238106,0.006432399,-0.005064264,-0.058320045,0.0,0.0,0.0
831.2073,466.34058,127549020,0.3125,0.12765957,471.93692,43.078587,0.006432399,-0.005064264,-0.058320045,0.0,0.0,0.0
831.2073,466.34058,127549028,0.3125,0.12765957,471.93692,43.078587,0.006432399,-0.005064264,-0.058320045,0.0,0.0,0.0
885.6895,422.80396,127549222,0.7625,0.08510638,0.0,0.0,0.02114591,-0.004051402,-0.014656067,0.0,0.0,0.0
885.6895,422.80396,127549252,0.7875,0.10638297,-0.0504334,-0.023304394,0.02114591,-0.004051402,-0.014656067,0.0,0.0,0.0
885.6895,422.80396,127549269,0.7875,0.09574468,-0.048710953,-0.022742063,0.02114591,-0.004051402,-0.014656067,0.0,0.0,0.0
885.6895,422.80396,127549286,0.7625,0.09574468,0.028151717,0.014781942,0.02114591,-0.004051402,-0.014656067,0.0,0.0,0.0
885.6895,422.80396,127549302,0.77500004,0.10638297,-0.0074689924,-0.004190859,0.02114591,-0.004051402,-0.014656067,0.0,0.0,0.0
885.6895,422.80396,127549315,0.77500004,0.12765957,-0.015783817,-0.007991683,0.02114591,-0.004051402,-0.014656067,0.0,0.0,0.0
885.6895,422.80396,127549334,0.8,0.12765957,-0.06587205,-0.034111746,0.02114591,-0.004051402,-0.014656067,0.0,0.0,0.0
885.6895,422.80396,127549347,0.7875,0.12765957,0.061613653,0.02899977,0.02114591,-0.004051402,-0.014656067,0.0,0.0,0.0
863.08405,418.10974,127549369,0.8,0.10638297,-700.63544,-173.00533,0.02114591,-0.004051402,-0.014656067,0.0,0.0,0.0
855.0882,424.3838,127549386,0.7875,0.08510638,-1050.4641,70.43946,0.02114591,-0.004051402,-0.014656067,0.0,0.0,0.0
847.8854,438.0974,127549403,0.7875,0.10638297,-814.95056,596.6764,0.02114591,-0.004051402,-0.014656067,0.0,0.0,0.0
845.5025,450.87964,127549419,0.8125,0.12765957,-189.44241,1171.9478,0.02114591,-0.004051402,-0.014656067,0.0,0.0,0.0
847.7196,461.35815,127549436,0.825,0.10638297,209.92711,1165.4431,0.02114591,-0.004051402,-0.014656067,0.0,0.0,0.0
851.6882,468.32312,127549453,0.8,0.10638297,401.5121,719.136,0.02114591,-0.004051402,-0.014656067,0.0,0.0,0.0
858.5267,473.15027,127549469,0.7875,0.09574468,568.3489,314.51984,0.02114591,-0.004051402,-0.014656067,0.0,0.0,0.0
866.79803,474.33704,127549486,0.77500004,0.08510638,666.31415,5.2314515,0.02114591,-0.004051402,-0.014656067,0.0,0.0,0.0
876.6609,471.68408,127549503,0.7625,0.09574468,707.7069,-200.20175,0.02114591,-0.004051402,-0.014656067,0.0,0.0,0.0
883.9317,465.16577,127549520,0.77500004,0.10638297,654.4765,-455.9067,0.02114591,-0.004051402,-0.014656067,0.0,0.0,0.0
890.8379,451.7135,127549536,0.7625,0.08510638,516.2047,-786.5383,0.02114591,-0.004051402,-0.014656067,0.0,0.0,0.0
890.95166,433.3545,127549553,0.77500004,0.08510638,226.63106,-1201.5739,0.02114591,-0.004051402,-0.014656067,0.0,0.0,0.0
886.55066,423.1626,127549570,0.77500004,0.10638297,-188.6978,-1220.6282,0.02114591,-0.004051402,-0.014656067,0.0,0.0,0.0
881.3193,417.31677,127549586,0.7875,0.12765957,-486.857,-837.1401,0.02114591,-0.004051402,-0.014656067,0.0,0.0,0.0
873.78595,413.49512,127549603,0.7875,0.12765957,-669.09186,-199.48277,0.02114591,-0.004051402,-0.014656067,0.0,0.0,0.0
867.04285,413.5199,127549620,0.8125,0.11702127,-638.0374,184.40868,0.02114591,-0.004051402,-0.014656067,0.0,0.0,0.0
860.6509,418.23352,127549637,0.83750004,0.08510638,-501.8017,349.74734,0.02114591,-0.004051402,-0.014656067,0.0,0.0,0.0
856.03986,425.45374,127549653,0.83750004,0.08510638,-372.26608,541.66296,0.02114591,-0.004051402,-0.014656067,0.0,0.0,0.0
853.4148,433.5913,127549670,0.825,0.10638297,-194.4901,734.0231,0.02114591,-0.004051402,-0.014656067,0.0,0.0,0.0
854.12683,437.7788,127549687,0.8125,0.11702127,-0.7203603,630.5647,0.02114591,-0.004051402,-0.014656067,0.0,0.0,0.0
858.4953,440.47083,127549703,0.8,0.11702127,227.73683,332.36737,0.02114591,-0.004051402,-0.014656067,0.0,0.0,0.0
869.27466,441.46252,127549720,0.77500004,0.10638297,598.2701,46.417767,-0.11908327,0.18075886,0.27627563,0.0,0.0,0.0
885.50806,436.7472,127549737,0.77500004,0.08510638,1022.9376,-241.40991,-0.11908327,0.18075886,0.27627563,0.0,0.0,0.0
900.97015,429.25928,127549754,0.7375,0.08510638,1266.9843,-488.89026,-0.11908327,0.18075886,0.27627563,0.0,0.0,0.0
910.8756,424.99768,127549770,0.7625,0.11702127,1125.537,-567.53033,-0.11908327,0.18075886,0.27627563,0.0,0.0,0.0
918.3265,423.69238,127549787,0.7625,0.08510638,712.95593,-420.93237,-0.11908327,0.18075886,0.27627563,0.0,0.0,0.0
921.5851,424.94275,127549804,0.7875,0.10638297,241.05222,-74.07949,-0.11908327,0.18075886,0.27627563,0.0,0.0,0.0
923.42175,430.30737,127549820,0.8,0.11702127,-74.955826,342.32758,-0.11908327,0.18075886,0.27627563,0.0,0.0,0.0
922.6119,440.42126,127549837,0.7875,0.12765957,-170.82419,648.691,-0.11908327,0.18075886,0.27627563,0.0,0.0,0.0
920.0274,449.10693,127549854,0.7875,0.12765957,-273.03207,803.7999,-0.11908327,0.18075886,0.27627563,0.0,0.0,0.0
918.3134,454.312,127549871,0.8,0.12765957,-285.7072,681.91296,-0.11908327,0.18075886,0.27627563,0.0,0.0,0.0
917.2764,457.28284,127549887,0.7875,0.12765957,-210.29353,358.0874,-0.11908327,0.18075886,0.27627563,0.0,0.0,0.0
917.17926,457.45557,127549904,0.8,0.12765957,-88.292435,-2.1577556,-0.11908327,0.18075886,0.27627563,0.0,0.0,0.0
917.636,456.6438,127549921,0.7625,0.12765957,40.4192,-193.85583,-0.11908327,0.18075886,0.27627563,0.0,0.0,0.0
924.84814,449.2898,127549937,0.75,0.10638297,265.004,-392.62152,-0.11908327,0.18075886,0.27627563,0.0,0.0,0.0
936.333,437.16223,127549954,0.75,0.08510638,628.5863,-715.0465,-0.11908327,0.18075886,0.27627563,0.0,0.0,0.0
946.6526,428.15015,127549971,0.7625,0.08510638,869.2245,-877.07245,-0.11908327,0.18075886,0.27627563,0.0,0.0,0.0
952.52527,424.96143,127549987,0.7625,0.08510638,778.69135,-671.6101,-0.11908327,0.18075886,0.27627563,0.0,0.0,0.0
955.5082,424.88416,127550004,0.7875,0.08510638,438.66968,-239.91956,-0.11908327,0.18075886,0.27627563,0.0,0.0,0.0
957.8108,427.88574,127550021,0.8,0.11702127,64.0397,231.29471,-0.11908327,0.18075886,0.27627563,0.0,0.0,0.0
960.4158,438.36035,127550038,0.7875,0.10638297,-40.644012,640.305,-0.11908327,0.18075886,0.27627563,0.0,0.0,0.0
960.87305,449.90735,127550054,0.8,0.12765957,-13.201294,910.09174,-0.11908327,0.18075886,0.27627563,0.0,0.0,0.0
960.1653,463.97266,127550071,0.8,0.10638297,-51.98853,1078.6404,-0.11908327,0.18075886,0.27627563,0.0,0.0,0.0
961.03674,478.0736,127550088,0.8,0.08510638,-67.14672,1106.5867,-0.11908327,0.18075886,0.27627563,0.0,0.0,0.0
962.0773,487.9314,127550104,0.7625,0.10638297,-26.489658,901.91235,-0.11908327,0.18075886,0.27627563,0.0,0.0,0.0
964.10986,492.011,127550121,0.77500004,0.11702127,88.23922,505.4525,-0.11908327,0.18075886,0.27627563,0.0,0.0,0.0
968.62256,495.6327,127550138,0.7375,0.11702127,221.01065,125.81547,-0.11908327,0.18075886,0.27627563,0.0,0.0,0.0
982.6426,495.6073,127550155,0.725,0.08510638,579.41766,-144.91609,-0.11908327,0.18075886,0.27627563,0.0,0.0,0.0
993.15454,491.21863,127550162,0.475,0.08510638,808.15607,-283.84854,-0.11908327,0.18075886,0.27627563,0.0,0.0,0.0
993.15454,491.21863,127550169,0.475,0.08510638,808.15607,-283.84854,-0.11908327,0.18075886,0.27627563,0.0,0.0,0.0
