x,y,timestamp,pressure,fingerarea,velocityx,velocityy,accelx,accely,accelz,gyrox,gyroy,gyroz
555.79694,293.97095,13722647,0.8125,0.10638297,0.0,0.0,-0.0060920864,-0.010256469,-0.020612717,0.0,0.0,0.0
555.79694,293.97095,13722672,0.85,0.10638297,-0.010880522,-0.0053611128,-0.0060920864,-0.010256469,-0.020612717,0.0,0.0,0.0
555.79694,293.97095,13722689,0.8875,0.10638297,-0.0059203194,-0.0030360608,-0.0060920864,-0.010256469,-0.020612717,0.0,0.0,0.0
555.79694,293.97095,13722720,0.8875,0.09574468,-0.024711533,-0.013064289,-0.0060920864,-0.010256469,-0.020612717,0.0,0.0,0.0
555.79694,293.97095,13722739,0.875,0.09574468,0.01580301,0.008892125,-0.0060920864,-0.010256469,-0.020612717,0.0,0.0,0.0
553.6457,285.47314,13722756,0.8875,0.08510638,-44.955616,-177.3977,-0.0060920864,-0.010256469,-0.020612717,0.0,0.0,0.0
547.682,268.49194,13722772,0.90000004,0.08510638,-298.8991,-988.61615,-0.0060920864,-0.010256469,-0.020612717,0.0,0.0,0.0
538.3477,261.5,13722789,0.875,0.09574468,-615.7297,-1019.95056,-0.0060920864,-0.010256469,-0.020612717,0.0,0.0,0.0
518.5873,257.54236,13722806,0.90000004,0.09574468,-1044.7148,-643.77313,-0.0060920864,-0.010256469,-0.020612717,0.0,0.0,0.0
492.5053,262.10913,13722823,0.90000004,0.08510638,-1609.3854,18.643448,-0.0060920864,-0.010256469,-0.020612717,0.0,0.0,0.0
472.68866,270.15662,13722839,0.90000004,0.08510638,-1817.0931,720.44556,-0.0060920864,-0.010256469,-0.020612717,0.0,0.0,0.0
456.2497,280.32324,13722856,0.9375,0.09574468,-1595.98,886.2648,-0.0060920864,-0.010256469,-0.020612717,0.0,0.0,0.0
445.21515,291.44495,13722873,0.9125,0.10638297,-904.78284,982.5733,-0.0060920864,-0.010256469,-0.020612717,0.0,0.0,0.0
435.70087,311.46887,13722889,0.9125,0.09574468,-397.36737,1097.6758,-0.0060920864,-0.010256469,-0.020612717,0.0,0.0,0.0
434.8363,327.55347,13722906,0.925,0.10638297,-47.861015,1226.5631,-0.0060920864,-0.010256469,-0.020612717,0.0,0.0,0.0
438.28946,336.53784,13722923,0.9125,0.10638297,282.99774,1077.8832,-0.0060920864,-0.010256469,-0.020612717,0.0,0.0,0.0
460.25732,353.91492,13722939,0.9125,0.10638297,971.8584,929.2525,-0.0060920864,-0.010256469,-0.020612717,0.0,0.0,0.0
493.10394,360.45105,13722956,0.90000004,0.08510638,1930.6326,624.2362,-0.0060920864,-0.010256469,-0.020612717,0.0,0.0,0.0
523.4366,364.14783,13722973,0.9125,0.09574468,2668.0344,224.01657,-0.0060920864,-0.010256469,-0.020612717,0.0,0.0,0.0
551.2895,367.85217,13722990,0.90000004,0.08510638,2550.3657,69.30467,-0.0060920864,-0.010256469,-0.020612717,0.0,0.0,0.0
570.7075,371.474,13723006,0.90000004,0.08510638,1792.1747,-46.651337,-0.0060920864,-0.010256469,-0.020612717,0.0,0.0,0.0
584.2748,377.40112,13723023,0.90000004,0.09574468,882.44763,107.71013,-0.0060920864,-0.010256469,-0.020612717,0.0,0.0,0.0
593.0777,385.65723,13723040,0.90000004,0.10638297,279.08902,402.97418,-0.0060920864,-0.010256469,-0.020612717,0.0,0.0,0.0
599.8553,401.1344,13723056,0.875,0.12765957,38.185787,698.7704,-0.0060920864,-0.010256469,-0.020612717,0.0,0.0,0.0
599.80695,422.52258,13723073,0.8625,0.08510638,-125.90286,1200.2312,-0.0060920864,-0.010256469,-0.020612717,0.0,0.0,0.0
593.5992,440.12476,13723090,0.85,0.12765957,-401.69763,1489.2035,-0.0060920864,-0.010256469,-0.020612717,0.0,0.0,0.0
586.3468,451.88782,13723107,0.8625,0.10638297,-681.80005,1256.2136,-0.020873666,-0.008205175,-0.016489983,0.0,0.0,0.0
573.8317,464.18286,13723123,0.875,0.08510638,-914.823,839.48145,-0.020873666,-0.008205175,-0.016489983,0.0,0.0,0.0
555.5573,476.0553,13723140,0.8875,0.08510638,-1173.0669,519.92896,-0.020873666,-0.008205175,-0.016489983,0.0,0.0,0.0
541.3267,480.8756,13723157,0.9125,0.09574468,-1223.6002,336.5231,-0.020873666,-0.008205175,-0.016489983,0.0,0.0,0.0
530.5569,481.04553,13723173,0.9125,0.08510638,-1031.9635,117.18831,-0.020873666,-0.008205175,-0.016489983,0.0,0.0,0.0
520.2103,477.38147,13723190,0.8875,0.08510638,-685.2665,-302.01755,-0.020873666,-0.008205175,-0.016489983,0.0,0.0,0.0
513.8054,471.84375,13723207,0.8875,0.09574468,-349.15662,-606.62317,-0.020873666,-0.008205175,-0.016489983,0.0,0.0,0.0
510.2915,465.09595,13723224,0.875,0.10638297,-149.119,-644.6351,-0.020873666,-0.008205175,-0.016489983,0.0,0.0,0.0
509.31207,457.44128,13723240,0.8875,0.09574468,20.099983,-622.6314,-0.020873666,-0.008205175,-0.016489983,0.0,0.0,0.0
511.14526,450.7904,13723257,0.875,0.08510638,210.11784,-553.1622,-0.020873666,-0.008205175,-0.016489983,0.0,0.0,0.0
519.3491,441.01953,13723274,0.825,0.08510638,442.42523,-532.9519,-0.020873666,-0.008205175,-0.016489983,0.0,0.0,0.0
530.8323,433.44983,13723290,0.38750002,0.09574468,785.26416,-554.82166,-0.020873666,-0.008205175,-0.016489983,0.0,0.0,0.0
532.30457,431.68896,13723299,0.275,0.09574468,832.73456,-507.28848,-0.020873666,-0.008205175,-0.016489983,0.0,0.0,0.0
532.30457,431.68896,13723306,0.275,0.09574468,832.73456,-507.28848,-0.020873666,-0.008205175,-0.016489983,0.0,0.0,0.0
636.77057,397.03735,13723500,0.71250004,0.10638297,0.0,0.0,-0.020873666,-0.008205175,-0.016489983,0.0,0.0,0.0
636.77057,397.03735,13723524,0.825,0.10638297,0.046937708,0.027599536,-0.020873666,-0.008205175,-0.016489983,0.0,0.0,0.0
636.77057,397.03735,13723536,0.8875,0.10638297,0.019518787,0.011596418,-0.020873666,-0.008205175,-0.016489983,0.0,0.0,0.0
636.77057,397.03735,13723556,0.8875,0.12765957,0.019169033,0.014049147,-0.020873666,-0.008205175,-0.016489983,0.0,0.0,0.0
636.77057,397.03735,13723572,0.875,0.12765957,-0.034209434,-0.0189947,-0.020873666,-0.008205175,-0.016489983,0.0,0.0,0.0
637.95575,415.66833,13723591,0.8875,0.09574468,32.92687,520.9588,-0.020873666,-0.008205175,-0.016489983,0.0,0.0,0.0
639.2176,430.03162,13723608,0.8625,0.09574468,80.03607,1133.978,-0.020873666,-0.008205175,-0.016489983,0.0,0.0,0.0
641.3038,441.17236,13723624,0.85,0.11702127,128.94322,1225.112,-0.020873666,-0.008205175,-0.016489983,0.0,0.0,0.0
644.18726,449.85962,13723641,0.8625,0.12765957,183.11674,923.9752,-6.9893897E-4,0.009435862,0.0028076172,0.0,0.0,0.0
646.45874,455.12988,13723658,0.8625,0.12765957,191.0755,216.81084,-6.9893897E-4,0.009435862,0.0028076172,0.0,0.0,0.0
647.9978,457.21643,13723674,0.8625,0.10638297,149.70084,-48.057365,-6.9893897E-4,0.009435862,0.0028076172,0.0,0.0,0.0
650.08167,459.0686,13723691,0.83750004,0.10638297,111.86247,-83.03223,-6.9893897E-4,0.009435862,0.0028076172,0.0,0.0,0.0
656.4082,460.1211,13723708,0.8,0.10638297,185.83598,-103.02186,-6.9893897E-4,0.009435862,0.0028076172,0.0,0.0,0.0
658.7634,460.1211,13723717,0.375,0.10638297,272.2997,-105.11932,-6.9893897E-4,0.009435862,0.0028076172,0.0,0.0,0.0
658.7634,460.1211,13723724,0.375,0.10638297,272.2997,-105.11932,-6.9893897E-4,0.009435862,0.0028076172,0.0,0.0,0.0
657.2639,349.94666,13723917,0.8875,0.12765957,0.0,0.0,-6.9893897E-4,0.009435862,0.0028076172,0.0,0.0,0.0
657.2639,349.94666,13723942,0.90000004,0.12765957,2.1833865E-4,-1.6183076E-4,-6.9893897E-4,0.009435862,0.0028076172,0.0,0.0,0.0
657.2639,349.94666,13723959,0.90000004,0.12765957,0.03942383,0.020321796,-6.9893897E-4,0.009435862,0.0028076172,0.0,0.0,0.0
657.2639,349.94666,13723974,0.4875,0.12765957,0.052614875,0.027465643,-6.9893897E-4,0.009435862,0.0028076172,0.0,0.0,0.0
657.2639,349.94666,13723981,0.4875,0.12765957,0.052614875,0.027465643,-6.9893897E-4,0.009435862,0.0028076172,0.0,0.0,0.0
627.7735,362.38574,13724394,0.975,0.10638297,0.0,0.0,0.015440851,0.00754869,-0.013753891,0.0,0.0,0.0
627.7735,362.38574,13724425,0.9875,0.12765957,-1.8318479E-4,-4.716237E-4,0.015440851,0.00754869,-0.013753891,0.0,0.0,0.0
627.7735,362.38574,13724443,0.9875,0.10638297,-0.0016550499,3.838939E-4,0.015440851,0.00754869,-0.013753891,0.0,0.0,0.0
630.2727,365.05115,13724457,0.4,0.09574468,117.63915,125.45935,0.015440851,0.00754869,-0.013753891,0.0,0.0,0.0
630.2727,365.05115,13724465,0.4,0.09574468,117.63915,125.45935,0.015440851,0.00754869,-0.013753891,0.0,0.0,0.0
672.25903,471.67163,13725177,0.7375,0.09574468,0.0,0.0,-0.019647315,-0.009961069,0.0049962997,0.0,0.0,0.0
672.25903,471.67163,13725195,0.8,0.09574468,-0.009323831,-0.011215342,-0.019647315,-0.009961069,0.0049962997,0.0,0.0,0.0
672.25903,471.67163,13725212,0.83750004,0.09574468,-0.021562586,-0.018208532,-0.019647315,-0.009961069,0.0049962997,0.0,0.0,0.0
672.25903,471.67163,13725229,0.8625,0.10638297,0.008625723,0.0056486707,-0.01571785,-0.007968873,0.051997185,0.0,0.0,0.0
672.25903,471.67163,13725245,0.8875,0.10638297,-0.023808174,-0.014103392,-0.01571785,-0.007968873,0.051997185,0.0,0.0,0.0
672.25903,471.67163,13725279,0.8875,0.10638297,-0.065787844,-0.04677462,-0.01571785,-0.007968873,0.051997185,0.0,0.0,0.0
671.17957,458.23987,13725295,0.875,0.09574468,-20.101936,-250.04796,-0.01571785,-0.007968873,0.051997185,0.0,0.0,0.0
670.7595,439.10107,13725312,0.8625,0.08510638,-59.727505,-1129.9052,-0.01571785,-0.007968873,0.051997185,0.0,0.0,0.0
671.6666,426.85132,13725329,0.8625,0.08510638,-28.209751,-1435.2996,-0.01571785,-0.007968873,0.051997185,0.0,0.0,0.0
675.23804,415.74927,13725346,0.875,0.10638297,161.04384,-972.82776,-0.01571785,-0.007968873,0.051997185,0.0,0.0,0.0
677.8241,408.40955,13725362,0.85,0.12765957,239.92612,-654.2546,-0.01571785,-0.007968873,0.051997185,0.0,0.0,0.0
681.06775,402.84155,13725379,0.85,0.10638297,280.5603,-170.10834,-0.01571785,-0.007968873,0.051997185,0.0,0.0,0.0
685.2291,399.28125,13725396,0.875,0.11702127,275.65543,-107.69736,-0.01571785,-0.007968873,0.051997185,0.0,0.0,0.0
689.8987,397.63904,13725412,0.8625,0.12765957,287.14084,-3.2517989,-0.01571785,-0.007968873,0.051997185,0.0,0.0,0.0
694.064,399.17517,13725429,0.90000004,0.12765957,294.68823,124.39233,-0.01571785,-0.007968873,0.051997185,0.0,0.0,0.0
699.1678,404.47974,13725446,0.8875,0.10638297,318.48712,311.96045,-0.01571785,-0.007968873,0.051997185,0.0,0.0,0.0
705.8349,421.33533,13725463,0.875,0.08510638,349.17877,769.1881,-0.01571785,-0.007968873,0.051997185,0.0,0.0,0.0
710.6616,440.12122,13725479,0.8625,0.10638297,380.72235,1336.4248,-0.01571785,-0.007968873,0.051997185,0.0,0.0,0.0
713.792,455.30664,13725496,0.85,0.12765957,300.35553,1498.8986,-0.01571785,-0.007968873,0.051997185,0.0,0.0,0.0
716.9136,464.66797,13725513,0.8625,0.08510638,171.96263,1141.9707,-0.01571785,-0.007968873,0.051997185,0.0,0.0,0.0
718.6727,467.9911,13725529,0.875,0.08510638,74.09568,442.79123,-0.01571785,-0.007968873,0.051997185,0.0,0.0,0.0
720.17773,469.0061,13725546,0.875,0.08510638,20.12247,-155.8564,-0.01571785,-0.007968873,0.051997185,0.0,0.0,0.0
722.20685,468.1494,13725563,0.8625,0.08510638,52.39657,-341.0266,-0.01571785,-0.007968873,0.051997185,0.0,0.0,0.0
726.44336,462.4276,13725580,0.83750004,0.10638297,144.81232,-451.77252,-0.01571785,-0.007968873,0.051997185,0.0,0.0,0.0
734.0301,445.80737,13725596,0.85,0.08510638,336.58405,-790.48914,-0.01571785,-0.007968873,0.051997185,0.0,0.0,0.0
739.25543,427.83997,13725613,0.85,0.08510638,474.1848,-1262.5526,-0.01571785,-0.007968873,0.051997185,0.0,0.0,0.0
740.4039,415.39465,13725630,0.875,0.12765957,353.51004,-1371.827,-0.01571785,-0.007968873,0.051997185,0.0,0.0,0.0
740.0375,406.63586,13725646,0.875,0.12765957,89.29236,-1055.563,-0.01571785,-0.007968873,0.051997185,0.0,0.0,0.0
738.99493,401.93774,13725663,0.8875,0.10638297,-160.41467,-474.2645,-0.01571785,-0.007968873,0.051997185,0.0,0.0,0.0
737.95935,400.0968,13725680,0.9375,0.12765957,-233.2762,84.67685,-0.01571785,-0.007968873,0.051997185,0.0,0.0,0.0
737.7377,399.70276,13725696,0.9125,0.12765957,-119.34105,182.55247,-0.01571785,-0.007968873,0.051997185,0.0,0.0,0.0
738.09143,403.99487,13725713,0.8875,0.12765957,-25.32607,310.56696,-0.01571785,-0.007968873,0.051997185,0.0,0.0,0.0
740.01825,417.6952,13725730,0.8875,0.08510638,80.49254,650.0126,-0.01571785,-0.007968873,0.051997185,0.0,0.0,0.0
743.05334,433.489,13725747,0.90000004,0.08510638,187.27455,1103.8009,-0.01571785,-0.007968873,0.051997185,0.0,0.0,0.0
746.09033,443.6996,13725763,0.8625,0.11702127,253.24,1228.4893,-0.01257427,0.009624928,-0.0064029694,0.0,0.0,0.0
749.8173,450.45886,13725780,0.875,0.12765957,270.6016,821.20404,-0.01257427,0.009624928,-0.0064029694,0.0,0.0,0.0
755.02325,454.99695,13725797,0.8875,0.12765957,308.8148,324.957,-0.01257427,0.009624928,-0.0064029694,0.0,0.0,0.0
760.05133,457.56958,13725813,0.8875,0.12765957,339.37897,-8.775008,-0.01257427,0.009624928,-0.0064029694,0.0,0.0,0.0
765.4175,456.32214,13725830,0.875,0.10638297,365.193,-160.2025,-0.01257427,0.009624928,-0.0064029694,0.0,0.0,0.0
769.4175,452.3999,13725847,0.85,0.09574468,327.60977,-301.4545,-0.01257427,0.009624928,-0.0064029694,0.0,0.0,0.0
776.2314,438.4043,13725864,0.83750004,0.08510638,305.18103,-627.8528,-0.01257427,0.009624928,-0.0064029694,0.0,0.0,0.0
786.9864,412.07214,13725880,0.83750004,0.10638297,535.3074,-1450.204,-0.01257427,0.009624928,-0.0064029694,0.0,0.0,0.0
788.22125,400.635,13725897,0.875,0.09574468,469.0656,-1623.1184,-0.01257427,0.009624928,-0.0064029694,0.0,0.0,0.0
787.89984,394.11768,13725914,0.90000004,0.08510638,154.38226,-1093.8431,-0.01257427,0.009624928,-0.0064029694,0.0,0.0,0.0
786.849,391.93262,13725930,0.9125,0.08510638,-197.24536,-233.72409,-0.01257427,0.009624928,-0.0064029694,0.0,0.0,0.0
785.81604,391.7063,13725947,0.9375,0.10638297,-347.13,398.86276,-0.01257427,0.009624928,-0.0064029694,0.0,0.0,0.0
785.2222,397.26318,13725964,0.90000004,0.10638297,-180.08008,483.79874,-0.01257427,0.009624928,-0.0064029694,0.0,0.0,0.0
785.7125,414.63806,13725981,0.90000004,0.08510638,-40.413963,837.6334,-0.01257427,0.009624928,-0.0064029694,0.0,0.0,0.0
788.3175,434.03613,13725997,0.90000004,0.10638297,99.334465,1381.754,-0.01257427,0.009624928,-0.0064029694,0.0,0.0,0.0
791.8506,448.146,13726014,0.8875,0.12765957,227.60464,1484.0121,-0.01257427,0.009624928,-0.0064029694,0.0,0.0,0.0
797.80225,460.44348,13726031,0.875,0.11702127,366.81158,1199.1978,-0.01257427,0.009624928,-0.0064029694,0.0,0.0,0.0
801.94183,466.4828,13726047,0.8875,0.09574468,399.18182,594.91364,-0.01257427,0.009624928,-0.0064029694,0.0,0.0,0.0
808.45685,471.4425,13726064,0.8875,0.08510638,422.80228,166.15396,-0.01257427,0.009624928,-0.0064029694,0.0,0.0,0.0
813.6188,473.4486,13726081,0.875,0.08510638,383.8853,-9.844034,-0.01257427,0.009624928,-0.0064029694,0.0,0.0,0.0
818.3158,474.33704,13726098,0.8125,0.08510638,318.90225,-108.8523,-0.01257427,0.009624928,-0.0064029694,0.0,0.0,0.0
823.7097,470.78308,13726109,0.3,0.10638297,334.15527,-211.07675,-0.01257427,0.009624928,-0.0064029694,0.0,0.0,0.0
823.7097,470.78308,13726117,0.3,0.10638297,334.15527,-211.07675,-0.01257427,0.009624928,-0.0064029694,0.0,0.0,0.0
880.19135,417.4729,13726400,0.65000004,0.08510638,0.0,0.0,-0.010059416,-0.008300066,-0.0051221848,0.0,0.0,0.0
880.19135,417.4729,13726432,0.8125,0.12765957,-0.06242807,-0.029108074,-0.010059416,-0.008300066,-0.0051221848,0.0,0.0,0.0
880.19135,417.4729,13726444,0.85,0.12765957,0.030319445,0.017271338,-0.010059416,-0.008300066,-0.0051221848,0.0,0.0,0.0
880.19135,417.4729,13726464,0.8625,0.12765957,-0.08053026,-0.03615554,-0.010059416,-0.008300066,-0.0051221848,0.0,0.0,0.0
880.19135,417.4729,13726482,0.83750004,0.12765957,-0.016711256,-0.0076947287,-0.010059416,-0.008300066,-0.0051221848,0.0,0.0,0.0
880.19135,417.4729,13726499,0.7875,0.12765957,-0.04083946,-0.018992916,-0.010059416,-0.008300066,-0.0051221848,0.0,0.0,0.0
856.0776,408.75952,13726515,0.8125,0.10638297,-758.4623,-282.54547,-0.010059416,-0.008300066,-0.0051221848,0.0,0.0,0.0
845.58386,410.22937,13726532,0.825,0.09574468,-1139.3815,-274.6416,-0.010059416,-0.008300066,-0.0051221848,0.0,0.0,0.0
837.42914,414.38306,13726549,0.83750004,0.08510638,-1020.2405,71.60746,-0.010059416,-0.008300066,-0.0051221848,0.0,0.0,0.0
830.582,423.5453,13726565,0.8125,0.07446808,-608.4571,448.46097,-0.010059416,-0.008300066,-0.0051221848,0.0,0.0,0.0
824.7137,439.66248,13726582,0.8,0.10638297,-145.30814,1035.6266,-0.010059416,-0.008300066,-0.0051221848,0.0,0.0,0.0
825.6488,456.104,13726599,0.8125,0.12765957,-48.15275,1263.7039,-0.010059416,-0.008300066,-0.0051221848,0.0,0.0,0.0
830.34094,467.46606,13726616,0.8625,0.08510638,277.9664,1230.931,-0.010059416,-0.008300066,-0.0051221848,0.0,0.0,0.0
839.8989,477.1754,13726632,0.8625,0.08510638,621.2896,849.4537,-0.010059416,-0.008300066,-0.0051221848,0.0,0.0,0.0
850.0809,484.0393,13726649,0.875,0.09574468,891.88605,414.78195,-0.010059416,-0.008300066,-0.0051221848,0.0,0.0,0.0
862.65326,484.99915,13726666,0.83750004,0.08510638,939.2536,74.86863,-0.010059416,-0.008300066,-0.0051221848,0.0,0.0,0.0
872.97144,480.1797,13726682,0.85,0.08510638,870.2722,-278.0162,-0.010059416,-0.008300066,-0.0051221848,0.0,0.0,0.0
880.46155,471.58228,13726699,0.83750004,0.10638297,682.9314,-619.8435,-0.010059416,-0.008300066,-0.0051221848,0.0,0.0,0.0
887.5025,456.31482,13726716,0.8625,0.09574468,441.94504,-1005.96094,-0.010059416,-0.008300066,-0.0051221848,0.0,0.0,0.0
887.63184,436.15735,13726733,0.85,0.08510638,163.47829,-1367.539,-0.010059416,-0.008300066,-0.0051221848,0.0,0.0,0.0
883.8105,425.18555,13726749,0.85,0.10638297,-241.79916,-1323.7439,-0.010059416,-0.008300066,-0.0051221848,0.0,0.0,0.0
877.1034,418.28235,13726766,0.8625,0.12765957,-538.00006,-829.1338,-0.010059416,-0.008300066,-0.0051221848,0.0,0.0,0.0
868.29236,412.85132,13726783,0.875,0.12765957,-760.2279,-268.59576,-0.010059416,-0.008300066,-0.0051221848,0.0,0.0,0.0
859.81287,410.36487,13726799,0.8875,0.12765957,-784.2673,104.48734,-0.010059416,-0.008300066,-0.0051221848,0.0,0.0,0.0
854.702,411.03015,13726816,0.8875,0.10638297,-571.4329,172.9928,-0.010059416,-0.008300066,-0.0051221848,0.0,0.0,0.0
850.2099,415.83093,13726833,0.875,0.08510638,-336.06165,279.2668,-0.016047537,-0.02264005,-0.0040979385,0.0,0.0,0.0
845.9302,428.21423,13726850,0.8625,0.08510638,-164.85861,654.811,-0.016047537,-0.02264005,-0.0040979385,0.0,0.0,0.0
844.7029,440.52686,13726866,0.8625,0.09574468,-77.18791,998.70526,-0.016047537,-0.02264005,-0.0040979385,0.0,0.0,0.0
845.2371,448.75415,13726883,0.85,0.12765957,31.177301,964.57336,-0.016047537,-0.02264005,-0.0040979385,0.0,0.0,0.0
847.3538,452.2594,13726900,0.85,0.12765957,164.2773,593.53467,-0.016047537,-0.02264005,-0.0040979385,0.0,0.0,0.0
852.6387,454.17944,13726916,0.83750004,0.12765957,332.69534,114.30045,-0.016047537,-0.02264005,-0.0040979385,0.0,0.0,0.0
865.6625,452.60754,13726933,0.83750004,0.12765957,618.93567,-224.51888,-0.016047537,-0.02264005,-0.0040979385,0.0,0.0,0.0
884.2704,442.07532,13726950,0.83750004,0.08510638,1082.466,-539.38367,-0.016047537,-0.02264005,-0.0040979385,0.0,0.0,0.0
898.01373,432.6996,13726967,0.83750004,0.08510638,1354.7948,-808.19543,-0.016047537,-0.02264005,-0.0040979385,0.0,0.0,0.0
906.82355,427.16296,13726983,0.825,0.09574468,1058.7388,-790.29517,-0.016047537,-0.02264005,-0.0040979385,0.0,0.0,0.0
912.4373,425.46936,13727000,0.875,0.09574468,442.56622,-418.21347,-0.016047537,-0.02264005,-0.0040979385,0.0,0.0,0.0
916.57074,426.08752,13727017,0.875,0.09574468,0.06218904,77.5496,-0.016047537,-0.02264005,-0.0040979385,0.0,0.0,0.0
920.2368,430.90442,13727033,0.875,0.09574468,-40.78414,378.16324,-0.016047537,-0.02264005,-0.0040979385,0.0,0.0,0.0
922.6107,443.29724,13727050,0.875,0.11702127,32.477657,685.3328,-0.016047537,-0.02264005,-0.0040979385,0.0,0.0,0.0
921.7336,457.94727,13727067,0.8625,0.12765957,-10.509659,1029.7854,-0.016047537,-0.02264005,-0.0040979385,0.0,0.0,0.0
918.1447,470.9048,13727084,0.875,0.09574468,-200.52399,1157.2738,-0.016047537,-0.02264005,-0.0040979385,0.0,0.0,0.0
916.13354,479.0255,13727100,0.8625,0.09574468,-305.43863,928.1193,-0.016047537,-0.02264005,-0.0040979385,0.0,0.0,0.0
915.09076,481.60352,13727117,0.90000004,0.09574468,-253.78314,405.085,-0.016047537,-0.02264005,-0.0040979385,0.0,0.0,0.0
915.17993,481.44507,13727134,0.85,0.09574468,-87.82031,-91.51874,-0.016047537,-0.02264005,-0.0040979385,0.0,0.0,0.0
915.87134,479.3275,13727150,0.825,0.09574468,61.090855,-361.3588,-0.016047537,-0.02264005,-0.0040979385,0.0,0.0,0.0
923.42993,466.6194,13727167,0.825,0.12765957,276.08725,-654.5822,-0.016047537,-0.02264005,-0.0040979385,0.0,0.0,0.0
935.641,449.0664,13727184,0.83750004,0.08510638,674.58636,-1096.6918,-0.016047537,-0.02264005,-0.0040979385,0.0,0.0,0.0
944.9466,435.76318,13727201,0.85,0.08510638,900.37946,-1329.722,-0.016047537,-0.02264005,-0.0040979385,0.0,0.0,0.0
951.47076,427.28735,13727217,0.83750004,0.08510638,789.14966,-1079.4335,-0.016047537,-0.02264005,-0.0040979385,0.0,0.0,0.0
953.8638,423.96216,13727234,0.85,0.08510638,347.3378,-426.43655,-0.016047537,-0.02264005,-0.0040979385,0.0,0.0,0.0
955.06744,422.80396,13727251,0.8625,0.08510638,-44.971222,115.74531,-0.016047537,-0.02264005,-0.0040979385,0.0,0.0,0.0
955.60614,424.36548,13727267,0.8625,0.08510638,-170.51506,314.68683,-0.016047537,-0.02264005,-0.0040979385,0.0,0.0,0.0
956.64966,433.28687,13727284,0.875,0.08510638,-126.681366,507.57504,-0.016047537,-0.02264005,-0.0040979385,0.0,0.0,0.0
957.67224,447.76953,13727301,0.875,0.12765957,-11.421521,888.17035,-0.016047537,-0.02264005,-0.0040979385,0.0,0.0,0.0
960.3552,461.79724,13727317,0.875,0.08510638,94.11722,1152.2568,-0.016047537,-0.02264005,-0.0040979385,0.0,0.0,0.0
964.0928,471.73523,13727334,0.875,0.09574468,198.69801,1085.4342,-0.016047537,-0.02264005,-0.0040979385,0.0,0.0,0.0
968.0842,476.20813,13727351,0.875,0.09574468,264.90384,628.0205,-0.016047537,-0.02264005,-0.0040979385,0.0,0.0,0.0
977.42224,479.1277,13727368,0.85,0.08510638,447.96368,169.41336,0.02716197,-0.0021120608,-0.019277573,0.0,0.0,0.0
993.6057,474.19763,13727384,0.85,0.09574468,840.18414,-269.1064,0.02716197,-0.0021120608,-0.019277573,0.0,0.0,0.0
1009.5232,461.78052,13727401,0.825,0.12765957,1178.9369,-722.0059,0.02716197,-0.0021120608,-0.019277573,0.0,0.0,0.0
1024.921,445.57703,13727418,0.7375,0.09574468,1296.9554,-1214.6858,0.02716197,-0.0021120608,-0.019277573,0.0,0.0,0.0
1026.1438,444.12793,13727421,0.425,0.08510638,1243.8915,-1234.8076,0.02716197,-0.0021120608,-0.019277573,0.0,0.0,0.0
1026.1438,444.12793,13727429,0.425,0.08510638,1243.8915,-1234.8076,0.02716197,-0.0021120608,-0.019277573,0.0,0.0,0.0
