x,y,timestamp,pressure,fingerarea,velocityx,velocityy,accelx,accely,accelz,gyrox,gyroy,gyroz
449.3316,118.04724,72117697,0.90000004,0.08510638,0.0,0.0,0.009886563,0.024895668,-0.022315979,0.0,0.0,0.0
449.3316,118.04724,72117715,0.9125,0.08510638,-0.46632975,-0.12179515,0.009886563,0.024895668,-0.022315979,0.0,0.0,0.0
449.3316,118.04724,72117731,0.975,0.09574468,-0.022792185,-0.005681058,0.009886563,0.024895668,-0.022315979,3.0198984E-5,0.0,0.0
449.3316,118.04724,72117748,1.0,0.12765957,0.0031462936,9.1078655E-5,0.009886563,0.024895668,-0.022315979,3.0198984E-5,0.0,0.0
429.02026,139.14026,72117765,0.975,0.11702127,-865.1643,884.0755,0.009886563,0.024895668,-0.022315979,3.0198984E-5,0.0,0.0
414.8011,159.80139,72117782,0.9875,0.09574468,-1278.9182,1511.7874,0.009886563,0.024895668,-0.022315979,3.0198984E-5,0.0,0.0
397.98837,191.39551,72117798,0.975,0.10638297,-1510.5986,2226.1443,-0.0080907345,0.019916534,-0.065852165,3.355443E-6,0.0,0.0
390.56894,217.16211,72117815,0.9875,0.08510638,-1151.0192,2358.0984,-0.0080907345,0.019916534,-0.065852165,3.355443E-6,0.0,0.0
387.45648,241.79492,72117832,0.9375,0.10638297,-372.32788,1948.3774,-0.0080907345,0.019916534,-0.065852165,3.355443E-6,0.0,0.0
387.72113,271.02368,72117848,0.9375,0.08510638,221.10368,1646.1361,-0.0080907345,0.019916534,-0.065852165,3.355443E-6,0.0,0.0
391.77084,298.77222,72117865,0.925,0.10638297,475.58203,1630.1421,-0.0080907345,0.019916534,-0.065852165,3.183252E-5,0.0,0.0
398.46313,327.28357,72117882,0.90000004,0.09574468,611.4612,1692.7034,-0.0080907345,0.019916534,-0.065852165,3.183252E-5,0.0,0.0
404.7003,352.40857,72117899,0.875,0.08510638,609.7298,1661.2247,-0.0080907345,0.019916534,-0.065852165,3.183252E-5,0.0,0.0
410.84875,379.82178,72117915,0.875,0.08510638,566.80585,1594.6194,-0.0080907345,0.019916534,-0.065852165,3.183252E-5,0.0,0.0
414.7435,407.05396,72117932,0.8625,0.10638297,407.87747,1558.9406,-0.0080907345,0.019916534,-0.065852165,3.183252E-5,0.0,0.0
415.8425,435.21558,72117949,0.83750004,0.08510638,173.10406,1656.176,-0.0080907345,0.019916534,-0.065852165,3.183252E-5,0.0,0.0
414.19388,461.8307,72117965,0.825,0.10638297,-70.10521,1652.606,-0.0080907345,0.019916534,-0.065852165,3.183252E-5,0.0,0.0
410.06366,486.43018,72117982,0.825,0.06382979,-318.17728,1572.8914,-0.0080907345,0.019916534,-0.065852165,3.183252E-5,0.0,0.0
402.18683,505.35596,72117999,0.825,0.10638297,-514.21155,1299.5132,-0.0080907345,0.019916534,-0.065852165,1.5005995E-5,0.0,0.0
394.01257,518.1752,72118016,0.85,0.08510638,-649.16547,830.87366,-0.0080907345,0.019916534,-0.065852165,1.5005995E-5,0.0,0.0
381.8748,532.9531,72118032,0.875,0.08510638,-783.0688,568.9957,-0.0080907345,0.019916534,-0.065852165,1.5005995E-5,0.0,0.0
368.14825,543.70996,72118049,0.90000004,0.08510638,-899.70197,439.03253,-0.0080907345,0.019916534,-0.065852165,1.5005995E-5,0.0,0.0
352.26282,550.4486,72118066,0.95,0.09574468,-1024.5049,397.02457,-0.0080907345,0.019916534,-0.065852165,0.0,0.0,0.0
335.97375,551.63684,72118082,0.96250004,0.10638297,-1122.6047,142.32117,-0.0080907345,0.019916534,-0.065852165,0.0,0.0,0.0
321.93878,546.0685,72118099,0.95,0.09574468,-1049.7172,-309.7877,-0.0080907345,0.019916534,-0.065852165,0.0,0.0,0.0
309.9742,535.7302,72118116,0.96250004,0.08510638,-851.75183,-766.12744,-0.0080907345,0.019916534,-0.065852165,0.0,0.0,0.0
301.17578,523.53613,72118133,0.9125,0.10638297,-593.73083,-1019.4263,-0.0080907345,0.019916534,-0.065852165,1.342177E-5,0.0,0.0
292.66904,502.3916,72118149,0.925,0.06382979,-420.3753,-1332.3331,-0.0080907345,0.019916534,-0.065852165,1.342177E-5,0.0,0.0
288.80063,479.96497,72118166,0.9125,0.08510638,-240.91489,-1568.4509,-0.0080907345,0.019916534,-0.065852165,1.342177E-5,0.0,0.0
291.07074,460.00928,72118183,0.9125,0.10638297,67.476135,-1592.9177,-0.0080907345,0.019916534,-0.065852165,1.342177E-5,0.0,0.0
295.4582,441.60083,72118199,0.8875,0.07446808,396.428,-1403.5927,-0.0080907345,0.019916534,-0.065852165,3.0198984E-5,0.0,0.0
299.60376,427.5393,72118216,0.8875,0.08510638,556.64294,-1011.3007,-0.0080907345,0.019916534,-0.065852165,3.0198984E-5,0.0,0.0
302.0768,420.9453,72118233,0.875,0.10638297,440.5885,-542.6356,-0.0080907345,0.019916534,-0.065852165,3.0198984E-5,0.0,0.0
309.65875,414.12085,72118249,0.8,0.12765957,330.05026,-163.77267,-0.0080907345,0.019916534,-0.065852165,3.0198984E-5,0.0,0.0
314.37552,411.25342,72118260,0.38750002,0.12765957,396.4149,-56.542057,-0.0080907345,0.019916534,-0.065852165,3.0198984E-5,0.0,0.0
314.37552,411.25342,72118267,0.38750002,0.12765957,396.4149,-56.542057,-0.0080907345,0.019916534,-0.065852165,3.0198984E-5,0.0,0.0
533.30426,414.80737,72118476,0.7625,0.11702127,0.0,0.0,0.033527434,-6.723404E-5,-0.03668213,-1.342177E-5,0.0,0.0
533.30426,414.80737,72118500,0.8125,0.10638297,-0.061237227,-0.0520257,0.033527434,-6.723404E-5,-0.03668213,-1.342177E-5,0.0,0.0
533.30426,414.80737,72118513,0.875,0.08510638,-0.039493024,-0.030422073,0.033527434,-6.723404E-5,-0.03668213,-1.342177E-5,0.0,0.0
507.6933,431.30835,72118534,0.8875,0.08510638,-1366.1417,872.7363,0.033527434,-6.723404E-5,-0.03668213,5.3687072E-5,0.0,0.0
498.28833,441.79102,72118550,0.85,0.12765957,-1180.2004,943.43756,0.033527434,-6.723404E-5,-0.03668213,5.3687072E-5,0.0,0.0
485.81073,467.2483,72118567,0.8625,0.09574468,-1010.8575,1316.5919,0.033527434,-6.723404E-5,-0.03668213,5.3687072E-5,0.0,0.0
481.82104,490.7744,72118582,0.85,0.09574468,-526.87866,1650.1483,0.033527434,-6.723404E-5,-0.03668213,5.3687072E-5,0.0,0.0
482.2401,502.1953,72118600,0.85,0.12765957,-89.147255,1529.0216,0.033527434,-6.723404E-5,-0.03668213,4.2707805E-5,0.0,0.0
486.02863,512.94324,72118617,0.875,0.10638297,267.2859,1064.5333,0.033527434,-6.723404E-5,-0.03668213,4.2707805E-5,0.0,0.0
497.57404,520.7517,72118634,0.875,0.08510638,720.38416,376.67902,0.033527434,-6.723404E-5,-0.03668213,4.2707805E-5,0.0,0.0
517.9701,525.5602,72118650,0.85,0.08510638,1258.732,7.504472,0.033527434,-6.723404E-5,-0.03668213,4.2707805E-5,0.0,0.0
541.9733,523.944,72118667,0.85,0.08510638,1728.7825,-134.85269,0.033527434,-6.723404E-5,-0.03668213,-0.0,0.0,0.0
566.30615,511.46643,72118684,0.8125,0.10638297,1949.0541,-594.08514,0.033527434,-6.723404E-5,-0.03668213,-0.0,0.0,0.0
578.2896,499.2152,72118694,0.35,0.09574468,1914.4192,-966.9153,0.033527434,-6.723404E-5,-0.03668213,-0.0,0.0,0.0
578.2896,499.2152,72118701,0.35,0.09574468,1914.4192,-966.9153,0.033527434,-6.723404E-5,-0.03668213,-0.0,0.0,0.0
545.30035,341.95007,72118870,0.9125,0.10638297,0.0,0.0,0.018821895,0.015946388,0.07465458,-1.8981249E-5,0.0,0.0
545.30035,341.95007,72118899,0.95,0.10638297,0.030249672,0.020065617,0.018821895,0.015946388,0.07465458,-1.8981249E-5,0.0,0.0
545.30035,341.95007,72118918,0.9375,0.10638297,-0.044516753,-0.029835382,0.018821895,0.015946388,0.07465458,-1.8981249E-5,0.0,0.0
545.30035,341.95007,72118935,0.85,0.12765957,-0.006468975,-0.0030365104,0.018821895,0.015946388,0.07465458,8.388603E-5,0.0,0.0
550.7985,348.16968,72118943,0.26250002,0.09574468,158.33269,179.1248,0.018821895,0.015946388,0.07465458,8.388603E-5,0.0,0.0
550.7985,348.16968,72118950,0.26250002,0.09574468,158.33269,179.1248,0.018821895,0.015946388,0.07465458,8.388603E-5,0.0,0.0
600.7823,511.65417,72119184,0.85,0.12765957,0.0,0.0,0.018821895,0.015946388,0.07465458,-8.388603E-5,0.0,0.0
600.7823,511.65417,72119202,0.875,0.12765957,0.09665591,0.079097696,0.018821895,0.015946388,0.07465458,0.0,0.0,0.0
600.7823,511.65417,72119219,0.90000004,0.12765957,-0.011756954,-0.0090726325,0.018821895,0.015946388,0.07465458,0.0,0.0,0.0
600.7823,511.65417,72119235,0.8875,0.10638297,0.00555979,0.003777438,0.018821895,0.015946388,0.07465458,0.0,0.0,0.0
600.7823,511.65417,72119252,0.8625,0.08510638,0.015741441,0.0124503495,0.018821895,0.015946388,0.07465458,0.0,0.0,0.0
612.49805,493.64575,72119269,0.825,0.06382979,367.4941,-568.75885,0.018821895,0.015946388,0.07465458,4.060077E-4,0.0,0.0
621.59436,480.57874,72119285,0.83750004,0.09574468,766.0893,-1145.7009,0.018821895,0.015946388,0.07465458,4.060077E-4,0.0,0.0
627.61646,471.06213,72119302,0.8125,0.12765957,788.3353,-1177.8171,0.018821895,0.015946388,0.07465458,4.060077E-4,0.0,0.0
631.5046,464.15076,72119319,0.825,0.12765957,465.19614,-735.1324,0.018821895,0.015946388,0.07465458,4.060077E-4,0.0,0.0
633.66785,460.30542,72119336,0.825,0.12765957,132.20839,-261.56216,0.018821895,0.015946388,0.07465458,-3.183252E-5,0.0,0.0
635.74786,457.47607,72119352,0.83750004,0.12765957,-80.932236,66.186905,0.018821895,0.015946388,0.07465458,-3.183252E-5,0.0,0.0
636.8002,455.62585,72119369,0.85,0.12765957,-23.53963,29.270771,0.018821895,0.015946388,0.07465458,-3.183252E-5,0.0,0.0
637.8402,455.67847,72119386,0.825,0.12765957,-4.3983474,74.08423,0.018821895,0.015946388,0.07465458,-3.183252E-5,0.0,0.0
638.8585,456.7246,72119402,0.8125,0.11702127,19.410599,110.57987,0.015057504,-0.019242764,0.0037240982,4.7453127E-6,0.0,0.0
641.68744,464.2738,72119419,0.77500004,0.09574468,84.14518,312.27756,0.015057504,-0.019242764,0.0037240982,4.7453127E-6,0.0,0.0
644.1133,475.28833,72119436,0.75,0.08510638,149.96318,636.5978,0.015057504,-0.019242764,0.0037240982,4.7453127E-6,0.0,0.0
645.7112,483.9099,72119453,0.75,0.08510638,163.50177,836.3458,0.015057504,-0.019242764,0.0037240982,4.7453127E-6,0.0,0.0
647.02844,489.48145,72119469,0.75,0.08510638,112.62517,685.35944,0.015057504,-0.019242764,0.0037240982,0.0,0.0,0.0
648.06946,491.21863,72119486,0.77500004,0.08510638,46.760124,274.28867,0.015057504,-0.019242764,0.0037240982,0.0,0.0,0.0
650.2964,491.21863,72119503,0.8,0.08510638,57.60964,-94.69991,0.015057504,-0.019242764,0.0037240982,0.0,0.0,0.0
654.7938,489.86,72119519,0.8,0.06382979,178.15656,-244.54608,0.015057504,-0.019242764,0.0037240982,0.0,0.0,0.0
660.7831,485.4253,72119536,0.8,0.06382979,340.00427,-330.40094,0.015057504,-0.019242764,0.0037240982,0.0,0.0,0.0
667.03784,479.8661,72119553,0.7875,0.06382979,465.91745,-421.37866,0.015057504,-0.019242764,0.0037240982,0.0,0.0,0.0
672.7559,475.22766,72119570,0.7875,0.08510638,479.77066,-455.91492,0.015057504,-0.019242764,0.0037240982,0.0,0.0,0.0
678.0172,471.51758,72119586,0.8,0.08510638,383.82422,-367.20984,0.015057504,-0.019242764,0.0037240982,0.0,0.0,0.0
682.0656,469.75696,72119603,0.7875,0.08510638,286.02142,-194.0403,0.015057504,-0.019242764,0.0037240982,8.388603E-5,0.0,0.0
686.20526,470.09485,72119620,0.8,0.08510638,220.37703,-7.027465,0.015057504,-0.019242764,0.0037240982,8.388603E-5,0.0,0.0
690.3337,472.1875,72119636,0.8125,0.09574468,204.98961,148.92612,0.015057504,-0.019242764,0.0037240982,8.388603E-5,0.0,0.0
694.4912,476.21118,72119653,0.8,0.08510638,216.3579,283.459,0.015057504,-0.019242764,0.0037240982,8.388603E-5,0.0,0.0
698.1877,481.80566,72119670,0.7875,0.07446808,224.12941,407.49142,0.015057504,-0.019242764,0.0037240982,-1.342177E-5,0.0,0.0
702.3541,487.36023,72119686,0.8,0.08510638,231.37367,455.1352,0.015057504,-0.019242764,0.0037240982,-1.342177E-5,0.0,0.0
706.00195,492.88977,72119703,0.8,0.10638297,224.2343,435.99484,0.015057504,-0.019242764,0.0037240982,-1.342177E-5,0.0,0.0
710.1643,498.4391,72119720,0.8125,0.10638297,230.19041,382.75247,0.015057504,-0.019242764,0.0037240982,-1.342177E-5,0.0,0.0
712.5403,502.4037,72119737,0.8,0.10638297,201.77615,301.27792,0.015057504,-0.019242764,0.0037240982,0.0,0.0,0.0
715.54785,506.08972,72119753,0.8125,0.10638297,156.74385,224.06163,0.015057504,-0.019242764,0.0037240982,0.0,0.0,0.0
718.6628,509.78113,72119770,0.8,0.09574468,144.42381,176.76521,0.015057504,-0.019242764,0.0037240982,0.0,0.0,0.0
721.26917,513.4778,72119787,0.8125,0.09574468,151.01971,175.41382,0.015057504,-0.019242764,0.0037240982,0.0,0.0,0.0
724.4059,517.1793,72119803,0.83750004,0.08510638,169.53693,198.73499,0.015057504,-0.019242764,0.0037240982,0.0,0.0,0.0
726.43335,518.93274,72119820,0.85,0.08510638,156.5077,167.70494,0.015057504,-0.019242764,0.0037240982,0.0,0.0,0.0
728.49756,520.7676,72119837,0.8625,0.08510638,118.070564,103.37566,0.015057504,-0.019242764,0.0037240982,0.0,0.0,0.0
729.5468,521.42773,72119854,0.8625,0.08510638,75.073746,31.200867,0.015057504,-0.019242764,0.0037240982,0.0,0.0,0.0
730.94653,521.42773,72119870,0.8625,0.08510638,53.534958,-25.59336,0.015057504,-0.019242764,0.0037240982,0.0,0.0,0.0
731.6161,521.42773,72119887,0.8875,0.08510638,35.402233,-42.438824,0.015057504,-0.019242764,0.0037240982,0.0,0.0,0.0
732.5278,521.42773,72119904,0.8875,0.08510638,26.510187,-43.392727,0.015057504,-0.019242764,0.0037240982,0.0,0.0,0.0
733.15466,521.42773,72119920,0.8875,0.08510638,27.316675,-27.725851,0.015057504,-0.019242764,0.0037240982,0.0,0.0,0.0
733.23914,521.42773,72119937,0.8875,0.08510638,9.725875,-10.770586,0.052046,0.040605545,0.0029792786,3.0198984E-5,0.0,0.0
733.6361,520.72217,72119954,0.8625,0.09574468,3.188254,-12.768294,0.052046,0.040605545,0.0029792786,3.0198984E-5,0.0,0.0
734.17914,518.8684,72119971,0.825,0.10638297,8.765823,-75.49968,0.052046,0.040605545,0.0029792786,3.0198984E-5,0.0,0.0
736.1973,513.5281,72119987,0.825,0.12765957,57.404648,-216.5859,0.052046,0.040605545,0.0029792786,3.0198984E-5,0.0,0.0
738.28687,504.32715,72120004,0.825,0.07446808,140.52849,-497.18372,0.052046,0.040605545,0.0029792786,0.0,0.0,0.0
740.3688,494.18652,72120021,0.8125,0.07446808,173.53853,-721.1173,0.052046,0.040605545,0.0029792786,0.0,0.0,0.0
742.46594,486.8479,72120037,0.8,0.07446808,166.9052,-726.0864,0.052046,0.040605545,0.0029792786,0.0,0.0,0.0
743.383,480.66052,72120054,0.8125,0.08510638,112.83528,-568.3612,0.052046,0.040605545,0.0029792786,0.0,0.0,0.0
743.2359,478.5808,72120071,0.825,0.08510638,23.301378,-257.99765,0.052046,0.040605545,0.0029792786,1.342177E-5,0.0,0.0
743.2359,476.61414,72120088,0.825,0.08510638,-40.29789,-5.021018,0.052046,0.040605545,0.0029792786,1.342177E-5,0.0,0.0
743.2359,474.77368,72120104,0.825,0.08510638,-53.780434,40.14898,0.052046,0.040605545,0.0029792786,1.342177E-5,0.0,0.0
743.5224,473.4486,72120121,0.83750004,0.09574468,-23.804535,16.052694,0.052046,0.040605545,0.0029792786,1.342177E-5,0.0,0.0
744.2356,473.4486,72120138,0.8625,0.09574468,28.025166,-8.415333,0.052046,0.040605545,0.0029792786,0.0,0.0,0.0
744.2356,473.4486,72120154,0.875,0.09574468,34.8603,23.335161,0.052046,0.040605545,0.0029792786,0.0,0.0,0.0
744.6967,473.4486,72120171,0.8625,0.09574468,28.846874,53.45769,0.052046,0.040605545,0.0029792786,0.0,0.0,0.0
745.2152,473.4486,72120188,0.8625,0.09574468,23.952118,42.84469,0.052046,0.040605545,0.0029792786,0.0,0.0,0.0
745.73517,473.4486,72120205,0.85,0.09574468,25.003511,9.450179,0.052046,0.040605545,0.0029792786,0.0,0.0,0.0
746.2349,473.4486,72120221,0.8625,0.09574468,40.772953,-0.0036393986,0.052046,0.040605545,0.0029792786,0.0,0.0,0.0
747.313,473.4486,72120238,0.83750004,0.09574468,53.830296,0.04660685,0.052046,0.040605545,0.0029792786,0.0,0.0,0.0
748.96576,473.4486,72120255,0.825,0.09574468,82.70623,0.02841333,0.052046,0.040605545,0.0029792786,0.0,0.0,0.0
751.0386,473.4486,72120271,0.83750004,0.09574468,122.95234,-0.008138089,0.052046,0.040605545,0.0029792786,0.0,0.0,0.0
753.31195,473.4486,72120288,0.83750004,0.08510638,152.68005,-0.029654091,0.052046,0.040605545,0.0029792786,0.0,0.0,0.0
755.70105,473.4486,72120305,0.83750004,0.08510638,172.21378,0.016498579,0.052046,0.040605545,0.0029792786,0.0,0.0,0.0
757.78156,473.4486,72120321,0.83750004,0.08510638,154.94801,-0.026789736,0.052046,0.040605545,0.0029792786,0.0,0.0,0.0
759.8502,474.33704,72120338,0.83750004,0.08510638,135.43002,26.250074,0.052046,0.040605545,0.0029792786,0.0,0.0,0.0
761.9387,475.85547,72120355,0.85,0.08510638,119.06663,71.392105,0.052046,0.040605545,0.0029792786,0.0,0.0,0.0
764.0162,476.11414,72120372,0.85,0.08510638,115.62713,87.28279,0.052046,0.040605545,0.0029792786,0.0,0.0,0.0
766.0857,477.76428,72120388,0.83750004,0.08510638,123.862114,85.52607,0.052046,0.040605545,0.0029792786,0.0,0.0,0.0
767.67523,478.7328,72120405,0.83750004,0.08510638,109.96198,73.33294,0.052046,0.040605545,0.0029792786,0.0,0.0,0.0
769.2502,479.68835,72120422,0.825,0.08510638,91.55645,61.432396,0.052046,0.040605545,0.0029792786,0.0,0.0,0.0
771.83325,481.5398,72120438,0.83750004,0.08510638,114.3681,88.195465,0.052046,0.040605545,0.0029792786,0.0,0.0,0.0
774.5088,483.3899,72120455,0.85,0.08510638,147.40608,117.99885,0.052046,0.040605545,0.0029792786,0.0,0.0,0.0
775.9834,484.1106,72120472,0.8625,0.08510638,148.1655,100.53231,0.0016368032,0.08048487,0.050383568,0.0,0.0,0.0
777.3916,484.1106,72120489,0.8625,0.08510638,114.88798,45.06182,0.0016368032,0.08048487,0.050383568,0.0,0.0,0.0
777.7247,484.1106,72120505,0.875,0.08510638,44.293575,-21.723581,0.0016368032,0.08048487,0.050383568,0.0,0.0,0.0
777.7247,484.1106,72120522,0.875,0.08510638,-25.31542,-49.898117,0.0016368032,0.08048487,0.050383568,0.0,0.0,0.0
777.4564,482.74524,72120539,0.875,0.06382979,-50.603935,-62.274094,0.0016368032,0.08048487,0.050383568,3.355443E-6,0.0,0.0
776.40826,482.33362,72120555,0.8625,0.06382979,-75.5842,-64.32043,0.0016368032,0.08048487,0.050383568,3.355443E-6,0.0,0.0
774.4995,482.33362,72120572,0.8625,0.06382979,-110.4946,-43.335167,0.0016368032,0.08048487,0.050383568,3.355443E-6,0.0,0.0
771.5845,483.01025,72120589,0.875,0.07446808,-170.82994,9.567129,0.0016368032,0.08048487,0.050383568,3.355443E-6,0.0,0.0
768.41376,484.88892,72120606,0.8875,0.08510638,-231.049,98.16883,0.0016368032,0.08048487,0.050383568,-1.342177E-5,0.0,0.0
764.7963,489.3617,72120622,0.875,0.08510638,-252.2425,228.92996,0.0016368032,0.08048487,0.050383568,-1.342177E-5,0.0,0.0
762.68005,494.90466,72120639,0.83750004,0.10638297,-216.67691,357.0988,0.0016368032,0.08048487,0.050383568,-1.342177E-5,0.0,0.0
762.79504,501.458,72120656,0.825,0.12765957,-91.38053,461.48245,0.0016368032,0.08048487,0.050383568,-1.342177E-5,0.0,0.0
766.1595,511.72327,72120672,0.83750004,0.09574468,122.004135,603.62085,0.0016368032,0.08048487,0.050383568,3.0198984E-5,0.0,0.0
774.1213,520.25,72120689,0.83750004,0.08510638,408.04846,647.44293,0.0016368032,0.08048487,0.050383568,3.0198984E-5,0.0,0.0
791.17664,530.4551,72120706,0.83750004,0.08510638,870.6678,675.1429,0.0016368032,0.08048487,0.050383568,3.0198984E-5,0.0,0.0
806.0491,532.9783,72120723,0.85,0.09574468,1242.5223,466.90402,0.0016368032,0.08048487,0.050383568,3.0198984E-5,0.0,0.0
818.22345,531.1959,72120739,0.83750004,0.08510638,1212.0566,32.318405,0.0016368032,0.08048487,0.050383568,-5.0331622E-5,0.0,0.0
826.5068,527.4707,72120756,0.825,0.08510638,827.15454,-350.73447,0.0016368032,0.08048487,0.050383568,-5.0331622E-5,0.0,0.0
832.39886,522.2893,72120773,0.825,0.10638297,345.51187,-586.19507,0.0016368032,0.08048487,0.050383568,-5.0331622E-5,0.0,0.0
835.7107,516.308,72120789,0.8125,0.10638297,44.865227,-551.05554,0.0016368032,0.08048487,0.050383568,-5.0331622E-5,0.0,0.0
837.61694,507.10718,72120806,0.825,0.08510638,-50.815407,-567.24036,0.0016368032,0.08048487,0.050383568,1.342177E-5,0.0,0.0
835.8346,496.04272,72120823,0.8125,0.06382979,-138.33363,-696.1777,0.0016368032,0.08048487,0.050383568,1.342177E-5,0.0,0.0
832.2247,487.69617,72120840,0.8125,0.06382979,-287.642,-739.4699,0.0016368032,0.08048487,0.050383568,1.342177E-5,0.0,0.0
828.0575,482.13257,72120856,0.825,0.08510638,-391.55127,-538.50134,0.0016368032,0.08048487,0.050383568,1.342177E-5,0.0,0.0
822.80695,477.6046,72120873,0.85,0.09574468,-436.48886,-298.27625,0.0016368032,0.08048487,0.050383568,0.0,0.0,0.0
819.34186,473.89954,72120890,0.85,0.09574468,-367.87598,-120.890755,0.0016368032,0.08048487,0.050383568,0.0,0.0,0.0
818.0566,472.28467,72120906,0.90000004,0.09574468,-205.78296,-35.244247,0.0016368032,0.08048487,0.050383568,0.0,0.0,0.0
817.01483,472.56006,72120923,0.90000004,0.09574468,-57.635246,36.17698,0.0016368032,0.08048487,0.050383568,0.0,0.0,0.0
817.6703,472.56006,72120940,0.875,0.08510638,79.60695,98.35655,0.0016368032,0.08048487,0.050383568,1.0610839E-5,0.0,0.0
825.5341,470.70056,72120956,0.825,0.08510638,288.24054,53.590874,0.0016368032,0.08048487,0.050383568,1.0610839E-5,0.0,0.0
845.9547,466.45105,72120973,0.8,0.10638297,908.756,-129.4624,0.0016368032,0.08048487,0.050383568,1.0610839E-5,0.0,0.0
868.9064,459.4065,72120990,0.8,0.12765957,1602.6467,-382.8072,0.0016368032,0.08048487,0.050383568,1.0610839E-5,0.0,0.0
890.8218,452.75525,72121007,0.8,0.09574468,1914.6902,-545.6737,-0.046690583,-0.0076122284,-0.10369301,4.2443335E-5,0.0,0.0
907.9819,447.9486,72121023,0.8,0.11702127,1650.7426,-512.24524,-0.046690583,-0.0076122284,-0.10369301,4.2443335E-5,0.0,0.0
923.2839,445.0703,72121040,0.825,0.08510638,1117.5221,-321.89215,-0.046690583,-0.0076122284,-0.10369301,4.2443335E-5,0.0,0.0
932.21484,444.12793,72121057,0.83750004,0.09574468,604.173,-75.873024,-0.046690583,-0.0076122284,-0.10369301,4.2443335E-5,0.0,0.0
937.40173,445.98645,72121073,0.825,0.09574468,226.76498,134.31937,-0.046690583,-0.0076122284,-0.10369301,-2.4196437E-5,0.0,0.0
939.351,447.84106,72121090,0.85,0.10638297,-53.421364,238.19633,-0.046690583,-0.0076122284,-0.10369301,-2.4196437E-5,0.0,0.0
942.2316,454.25806,72121107,0.85,0.10638297,-154.53127,354.8901,-0.046690583,-0.0076122284,-0.10369301,-2.4196437E-5,0.0,0.0
944.5634,462.75586,72121124,0.8625,0.08510638,-85.64512,527.9805,-0.046690583,-0.0076122284,-0.10369301,-2.4196437E-5,0.0,0.0
945.58057,472.97168,72121140,0.83750004,0.06382979,8.059232,709.81213,-0.046690583,-0.0076122284,-0.10369301,1.342177E-5,0.0,0.0
947.4078,483.56287,72121157,0.8125,0.06382979,77.88407,831.7116,-0.046690583,-0.0076122284,-0.10369301,1.342177E-5,0.0,0.0
947.6694,491.42017,72121174,0.825,0.08510638,35.447876,708.83185,-0.046690583,-0.0076122284,-0.10369301,1.342177E-5,0.0,0.0
948.1692,498.8114,72121190,0.825,0.10638297,-7.6443224,488.3297,-0.046690583,-0.0076122284,-0.10369301,1.342177E-5,0.0,0.0
948.1692,503.6609,72121207,0.825,0.10638297,-16.2684,285.6029,-0.046690583,-0.0076122284,-0.10369301,-3.355443E-6,0.0,0.0
948.1692,510.39746,72121224,0.825,0.10638297,-36.009205,255.22433,-0.046690583,-0.0076122284,-0.10369301,-3.355443E-6,0.0,0.0
948.1692,513.31555,72121241,0.8625,0.09574468,-20.275003,208.08517,-0.046690583,-0.0076122284,-0.10369301,-3.355443E-6,0.0,0.0
948.1692,513.4313,72121257,0.8625,0.09574468,-8.876233,72.4854,-0.046690583,-0.0076122284,-0.10369301,-3.355443E-6,0.0,0.0
949.7107,512.5054,72121274,0.85,0.10638297,36.180706,-111.7186,-0.046690583,-0.0076122284,-0.10369301,-7.592496E-5,0.0,0.0
951.28937,509.66187,72121291,0.825,0.10638297,96.0646,-256.58618,-0.046690583,-0.0076122284,-0.10369301,-7.592496E-5,0.0,0.0
954.58075,504.88342,72121307,0.825,0.08510638,177.91937,-345.12384,-0.046690583,-0.0076122284,-0.10369301,-7.592496E-5,0.0,0.0
959.4652,494.84436,72121324,0.77500004,0.08510638,284.06015,-528.6445,-0.046690583,-0.0076122284,-0.10369301,-7.592496E-5,0.0,0.0
965.74146,482.70032,72121341,0.8,0.09574468,400.39285,-776.7755,-0.046690583,-0.0076122284,-0.10369301,7.592496E-5,0.0,0.0
972.9585,473.6886,72121358,0.8125,0.12765957,494.08047,-867.2683,-0.046690583,-0.0076122284,-0.10369301,7.592496E-5,0.0,0.0
979.20215,466.74646,72121374,0.8,0.12765957,498.76398,-678.0237,-0.046690583,-0.0076122284,-0.10369301,7.592496E-5,0.0,0.0
985.1373,462.66968,72121391,0.8,0.10638297,417.18805,-330.22156,-0.046690583,-0.0076122284,-0.10369301,7.592496E-5,0.0,0.0
990.82983,460.4878,72121408,0.83750004,0.10638297,348.8598,-42.315834,-0.046690583,-0.0076122284,-0.10369301,0.0,0.0,0.0
995.0315,460.1211,72121424,0.83750004,0.10638297,271.1859,90.713264,-0.046690583,-0.0076122284,-0.10369301,0.0,0.0,0.0
998.3533,461.7207,72121441,0.85,0.09574468,197.72266,181.8271,-0.046690583,-0.0076122284,-0.10369301,0.0,0.0,0.0
1000.5415,464.36707,72121458,0.85,0.09574468,116.14539,246.30975,-0.046690583,-0.0076122284,-0.10369301,0.0,0.0,0.0
1002.6354,468.08887,72121474,0.85,0.08510638,56.957146,304.85724,-0.046690583,-0.0076122284,-0.10369301,0.0,0.0,0.0
1006.8242,476.48547,72121491,0.83750004,0.08510638,122.50724,439.23526,-0.046690583,-0.0076122284,-0.10369301,0.0,0.0,0.0
1009.86816,483.74133,72121508,0.85,0.08510638,189.44908,560.80963,-0.046690583,-0.0076122284,-0.10369301,0.0,0.0,0.0
1011.8876,489.1902,72121525,0.85,0.08510638,194.5811,542.9122,-0.046690583,-0.0076122284,-0.10369301,0.0,0.0,0.0
1012.791,492.61475,72121541,0.8625,0.10638297,118.74674,379.3666,0.018647552,-0.07008982,-0.1709547,5.3687072E-5,0.0,0.0
1013.8292,495.98364,72121558,0.8625,0.10638297,29.418291,194.05391,0.018647552,-0.07008982,-0.1709547,5.3687072E-5,0.0,0.0
1014.6476,497.8308,72121575,0.875,0.10638297,-4.3282356,45.093475,0.018647552,-0.07008982,-0.1709547,5.3687072E-5,0.0,0.0
1014.6476,498.32666,72121591,0.8875,0.10638297,-3.0442379,9.133234,0.018647552,-0.07008982,-0.1709547,5.3687072E-5,0.0,0.0
1014.6476,498.32666,72121625,0.8875,0.10638297,-29.97692,-85.58137,0.018647552,-0.07008982,-0.1709547,3.355443E-6,0.0,0.0
1014.6476,498.32666,72121642,0.825,0.10638297,-27.302137,-69.21963,0.018647552,-0.07008982,-0.1709547,3.355443E-6,0.0,0.0
1014.6476,498.32666,72121643,0.475,0.12765957,-24.6957,-63.26889,0.018647552,-0.07008982,-0.1709547,3.355443E-6,0.0,0.0
1014.6476,498.32666,72121651,0.475,0.12765957,-24.6957,-63.26889,0.018647552,-0.07008982,-0.1709547,3.355443E-6,0.0,0.0
