x,y,timestamp,pressure,fingerarea,velocityx,velocityy,accelx,accely,accelz,gyrox,gyroy,gyroz
507.81256,147.36792,17038872,0.8125,0.08510638,0.0,0.0,-0.32066005,0.1760664,-0.12847042,6.2637846E-4,3.6538744E-4,0.0
507.81256,147.36792,17038904,0.83750004,0.08510638,-0.013995596,-0.003662395,-0.32066005,0.1760664,-0.12847042,9.110951E-4,9.110951E-4,0.0
507.81256,147.36792,17038921,0.8125,0.08510638,1.00784855E-5,1.1394777E-4,-0.32066005,0.1760664,-0.12847042,9.110951E-4,9.110951E-4,0.0
483.28882,154.3031,17038937,0.7625,0.07446808,-1102.4235,311.7637,-0.32066005,0.1760664,-0.12847042,9.110951E-4,9.110951E-4,0.0
457.7088,167.47144,17038954,0.8,0.08510638,-1891.5223,740.47864,-0.32066005,0.1760664,-0.12847042,9.110951E-4,9.110951E-4,0.0
427.2806,189.44604,17038971,0.77500004,0.10638297,-2338.373,1244.0604,-0.32066005,0.1760664,-0.12847042,-1.5266279E-4,7.124263E-4,0.0
401.3959,213.83704,17038988,0.8,0.07446808,-2422.6567,1808.8579,-0.32066005,0.1760664,-0.12847042,-1.5266279E-4,7.124263E-4,0.0
379.66913,237.75269,17039004,0.77500004,0.11702127,-1536.6482,1849.5796,-0.32066005,0.1760664,-0.12847042,-1.5266279E-4,7.124263E-4,0.0
362.94824,261.8275,17039021,0.7875,0.06382979,-1007.9382,1691.3284,-0.32066005,0.1760664,-0.12847042,-1.5266279E-4,7.124263E-4,0.0
354.46957,282.73804,17039038,0.7875,0.10638297,-550.70197,1468.0021,-0.32066005,0.1760664,-0.12847042,-0.0010435635,0.0047540115,0.0
354.5362,294.89734,17039054,0.8,0.09574468,31.82771,1024.6486,-0.32066005,0.1760664,-0.12847042,-0.0010435635,0.0047540115,0.0
359.98798,305.30225,17039071,0.7875,0.08510638,571.93445,548.97894,-0.32066005,0.1760664,-0.12847042,-0.0010435635,0.0047540115,0.0
377.45566,319.3402,17039088,0.77500004,0.07446808,1129.9047,364.13553,-0.32066005,0.1760664,-0.12847042,-0.0010435635,0.0047540115,0.0
401.86398,331.70007,17039105,0.7625,0.07446808,1720.0839,485.03253,-0.32066005,0.1760664,-0.12847042,0.0,2.8692224E-4,0.0
427.1479,343.6322,17039121,0.7625,0.12765957,2040.3267,715.49927,-0.32066005,0.1760664,-0.12847042,0.0,2.8692224E-4,0.0
448.46503,353.83154,17039138,0.7375,0.08510638,1918.9458,702.2365,-0.32066005,0.1760664,-0.12847042,0.0,2.8692224E-4,0.0
460.97778,363.02747,17039155,0.7375,0.07446808,1349.7509,566.96344,-0.32066005,0.1760664,-0.12847042,0.0,2.8692224E-4,0.0
470.4043,377.6317,17039171,0.75,0.09574468,612.1256,604.5223,-0.32066005,0.1760664,-0.12847042,-0.0010700602,-3.2101807E-4,0.0
468.99738,396.26514,17039188,0.75,0.12765957,-21.868841,911.56836,-0.32066005,0.1760664,-0.12847042,-0.0010700602,-3.2101807E-4,0.0
456.719,419.89746,17039205,0.77500004,0.053191487,-735.5532,1359.4154,-0.32066005,0.1760664,-0.12847042,-0.0010700602,-3.2101807E-4,0.0
429.9978,443.1156,17039222,0.7875,0.11702127,-1587.8771,1675.2075,-0.32066005,0.1760664,-0.12847042,-0.0010700602,-3.2101807E-4,0.0
386.71387,463.93274,17039238,0.77500004,0.09574468,-2708.4277,1609.3911,-0.36852804,0.19685316,-0.13477612,9.4173296E-4,-8.561209E-5,0.0
350.24017,476.15076,17039255,0.7875,0.07446808,-3307.7317,1134.9877,-0.36852804,0.19685316,-0.13477612,9.4173296E-4,-8.561209E-5,0.0
322.70312,482.05176,17039272,0.7875,0.08510638,-2852.1304,484.70663,-0.36852804,0.19685316,-0.13477612,9.4173296E-4,-8.561209E-5,0.0
309.55695,483.22217,17039288,0.6625,0.06382979,-1613.3496,-97.80024,-0.36852804,0.19685316,-0.13477612,9.4173296E-4,-8.561209E-5,0.0
306.87796,483.22217,17039299,0.1875,0.06382979,-802.1534,-332.2797,-0.36852804,0.19685316,-0.13477612,4.4451666E-5,-1.5558084E-4,0.0
306.87796,483.22217,17039306,0.1875,0.06382979,-802.1534,-332.2797,-0.36852804,0.19685316,-0.13477612,4.4451666E-5,-1.5558084E-4,0.0
522.8077,471.67163,17039973,0.7625,0.08510638,0.0,0.0,0.17717758,-0.06651735,0.2761793,-3.3218806E-4,-2.2145871E-4,0.0
522.8077,471.67163,17039990,0.8125,0.08510638,-0.013209474,-0.023540262,0.17717758,-0.06651735,0.2761793,-3.3218806E-4,-2.2145871E-4,0.0
522.8077,471.67163,17040007,0.85,0.08510638,-0.053712048,-0.043516953,0.17717758,-0.06651735,0.2761793,-3.3218806E-4,-2.2145871E-4,0.0
522.8077,471.67163,17040024,0.83750004,0.10638297,0.002095078,0.0010797906,0.17717758,-0.06651735,0.2761793,-3.3218806E-4,-2.2145871E-4,0.0
522.8077,471.67163,17040040,0.8,0.12765957,0.009076549,0.0069149374,0.17717758,-0.06651735,0.2761793,3.1026495E-5,4.6539746E-5,0.0
529.5587,442.78003,17040057,0.7625,0.08510638,220.85956,-938.66547,0.17717758,-0.06651735,0.2761793,3.1026495E-5,4.6539746E-5,0.0
535.07806,416.89856,17040074,0.77500004,0.11702127,443.0759,-1948.9583,0.17717758,-0.06651735,0.2761793,3.1026495E-5,4.6539746E-5,0.0
539.7908,390.8982,17040091,0.7625,0.08510638,500.95682,-2375.5613,0.17717758,-0.06651735,0.2761793,3.1026495E-5,4.6539746E-5,0.0
541.6388,375.07202,17040107,0.7625,0.07446808,309.38507,-1838.4781,0.17717758,-0.06651735,0.2761793,5.9650274E-4,1.3765448E-4,0.0
541.80145,365.6974,17040124,0.77500004,0.10638297,57.90652,-923.7463,0.17717758,-0.06651735,0.2761793,5.9650274E-4,1.3765448E-4,0.0
540.8563,360.80237,17040141,0.7875,0.12765957,-155.60612,-39.472546,0.17717758,-0.06651735,0.2761793,5.9650274E-4,1.3765448E-4,0.0
539.8144,358.8534,17040157,0.7875,0.11702127,-197.0844,266.3417,0.17717758,-0.06651735,0.2761793,5.9650274E-4,1.3765448E-4,0.0
539.8021,358.83167,17040174,0.7875,0.08510638,-125.402336,301.40628,0.17717758,-0.06651735,0.2761793,0.0014983652,0.0017627825,0.0
543.16315,374.72095,17040191,0.675,0.07446808,43.796078,645.472,0.17717758,-0.06651735,0.2761793,0.0014983652,0.0017627825,0.0
548.96765,424.89465,17040208,0.6375,0.06382979,288.4934,2033.1736,0.17717758,-0.06651735,0.2761793,0.0014983652,0.0017627825,0.0
552.5383,456.76172,17040224,0.625,0.09574468,400.3402,3055.5833,0.17717758,-0.06651735,0.2761793,0.0014983652,0.0017627825,0.0
556.83594,480.0459,17040241,0.6,0.053191487,391.1721,3063.561,0.17717758,-0.06651735,0.2761793,2.7532908E-4,0.003303949,0.0
560.2955,486.77612,17040254,0.275,0.09574468,355.90225,2249.2004,0.17717758,-0.06651735,0.2761793,2.7532908E-4,0.003303949,0.0
560.2955,486.77612,17040261,0.275,0.09574468,355.90225,2249.2004,0.17717758,-0.06651735,0.2761793,2.7532908E-4,0.003303949,0.0
581.28864,253.09973,17040367,0.85,0.08510638,0.0,0.0,0.26174206,-0.65321386,1.292944,0.0017551419,-8.7757094E-4,0.0
581.28864,253.09973,17040391,0.825,0.10638297,-0.06243606,-0.02387327,0.26174206,-0.65321386,1.292944,0.0017551419,-8.7757094E-4,0.0
581.28864,253.09973,17040423,0.75,0.08510638,-0.028399084,-0.011778585,0.26174206,-0.65321386,1.292944,0.0017551419,-8.7757094E-4,0.0
581.28864,253.09973,17040430,0.75,0.08510638,-0.028399084,-0.011778585,0.26174206,-0.65321386,1.292944,0.0017551419,-8.7757094E-4,0.0
535.3036,288.6399,17040899,0.95,0.11702127,0.0,0.0,0.14539367,-0.002571106,-0.5016451,-1.1545829E-4,2.0205202E-4,0.0
535.3036,288.6399,17040926,0.95,0.11702127,-0.024849514,-0.012130666,0.14539367,-0.002571106,-0.5016451,-4.4192307E-4,0.0010101098,0.0
535.3036,288.6399,17040943,0.9375,0.11702127,-0.027328154,-0.014753449,0.14539367,-0.002571106,-0.5016451,-4.4192307E-4,0.0010101098,0.0
535.3036,288.6399,17040959,0.96250004,0.11702127,0.0073087565,0.0024393694,0.14539367,-0.002571106,-0.5016451,-4.4192307E-4,0.0010101098,0.0
535.3036,288.6399,17040975,0.925,0.11702127,-0.008260301,-0.004076734,0.14539367,-0.002571106,-0.5016451,0.011746613,0.007271713,0.0
535.3036,288.6399,17040987,0.8625,0.12765957,0.005065856,0.002565754,0.14539367,-0.002571106,-0.5016451,0.011746613,0.007271713,0.0
535.3036,288.6399,17040994,0.8625,0.12765957,0.005065856,0.002565754,0.14539367,-0.002571106,-0.5016451,0.011746613,0.007271713,0.0
530.80505,263.76184,17041358,0.96250004,0.09574468,0.0,0.0,0.14539367,-0.002571106,-0.5016451,-1.8493018E-5,3.6986035E-5,0.0
530.80505,263.76184,17041377,0.95,0.09574468,-0.085456826,-0.04069697,-0.5316851,0.453943,-0.16931629,0.0010251737,3.0152165E-4,0.0
530.80505,263.76184,17041394,0.9375,0.09574468,-0.005696378,-6.368887E-4,-0.5316851,0.453943,-0.16931629,0.0010251737,3.0152165E-4,0.0
530.80505,263.76184,17041411,0.975,0.09574468,0.0035852569,0.0012323539,-0.5316851,0.453943,-0.16931629,0.0010251737,3.0152165E-4,0.0
530.80505,263.76184,17041427,0.925,0.09574468,0.011816967,0.0063639577,-0.5316851,0.453943,-0.16931629,0.0014554055,0.0016266296,0.0
530.80505,263.76184,17041430,0.8625,0.08510638,-0.019489963,-0.010043948,-0.5316851,0.453943,-0.16931629,0.0014554055,0.0016266296,0.0
530.80505,263.76184,17041438,0.8625,0.08510638,-0.019489963,-0.010043948,-0.5316851,0.453943,-0.16931629,0.0014554055,0.0016266296,0.0
555.29706,293.97095,17041785,0.8625,0.10638297,0.0,0.0,-0.5316851,0.453943,-0.16931629,0.0,-1.082422E-4,0.0
555.29706,293.97095,17041828,0.83750004,0.09574468,-0.046734523,-0.023597652,-0.5316851,0.453943,-0.16931629,0.0,-1.082422E-4,0.0
555.29706,293.97095,17041845,0.83750004,0.09574468,0.027642708,0.013827757,-0.5316851,0.453943,-0.16931629,0.014357687,0.014357687,0.0
555.29706,293.97095,17041862,0.8125,0.09574468,1.4398033E-4,3.4954975E-4,-0.5316851,0.453943,-0.16931629,0.014357687,0.014357687,0.0
550.2987,285.08594,17041874,0.375,0.07446808,-111.321526,-197.91258,-0.5316851,0.453943,-0.16931629,0.014357687,0.014357687,0.0
550.2987,285.08594,17041881,0.375,0.07446808,-111.321526,-197.91258,-0.5316851,0.453943,-0.16931629,0.014357687,0.014357687,0.0
633.77155,477.00256,17043307,0.625,0.07446808,0.0,0.0,0.13769722,0.17993903,-0.24252987,0.0,-5.5339362E-5,0.0
633.77155,477.00256,17043332,0.675,0.06382979,0.040703833,0.03588371,0.13769722,0.17993903,-0.24252987,0.0,-5.5339362E-5,0.0
633.77155,477.00256,17043366,0.675,0.06382979,0.0047147106,0.0030665654,0.13769722,0.17993903,-0.24252987,0.0,-5.5339362E-5,0.0
633.77155,477.00256,17043382,0.7,0.08510638,-0.0090563325,-0.007994411,0.13769722,0.17993903,-0.24252987,3.036993E-4,3.036993E-4,0.0
633.77155,477.00256,17043399,0.7,0.10638297,0.024891656,0.02038638,0.13769722,0.17993903,-0.24252987,3.036993E-4,3.036993E-4,0.0
620.0467,452.60547,17043416,0.6875,0.08510638,-394.50046,-701.2609,0.13769722,0.17993903,-0.24252987,3.036993E-4,3.036993E-4,0.0
614.135,438.79675,17043433,0.6875,0.06382979,-774.0304,-1481.9111,0.13769722,0.17993903,-0.24252987,3.036993E-4,3.036993E-4,0.0
608.9278,423.33057,17043449,0.6875,0.08510638,-677.2463,-1465.826,0.13769722,0.17993903,-0.24252987,9.2465074E-5,-3.698603E-5,0.0
608.79175,397.60315,17043466,0.7,0.06382979,-295.70294,-1526.2988,0.13769722,0.17993903,-0.24252987,9.2465074E-5,-3.698603E-5,0.0
610.92615,381.14832,17043483,0.7,0.06382979,156.90413,-1325.4116,0.13769722,0.17993903,-0.24252987,9.2465074E-5,-3.698603E-5,0.0
616.8749,365.46228,17043499,0.7,0.10638297,468.97842,-1124.8092,0.13769722,0.17993903,-0.24252987,9.2465074E-5,-3.698603E-5,0.0
624.8001,345.8263,17043516,0.6875,0.08510638,615.5152,-1123.1096,0.20615779,0.12795115,-0.19402409,8.55473E-5,1.710946E-5,0.0
631.2324,336.17224,17043533,0.6625,0.08510638,645.65485,-760.36035,0.20615779,0.12795115,-0.19402409,8.55473E-5,1.710946E-5,0.0
641.36707,325.86987,17043550,0.6875,0.07446808,652.2355,-535.6021,0.20615779,0.12795115,-0.19402409,8.55473E-5,1.710946E-5,0.0
651.76636,321.07007,17043566,0.7,0.06382979,682.96436,-320.40982,0.20615779,0.12795115,-0.19402409,8.55473E-5,1.710946E-5,0.0
659.40955,321.10278,17043583,0.7,0.06382979,632.3326,49.04286,0.20615779,0.12795115,-0.19402409,-2.4498865E-4,-1.6332578E-4,0.0
667.04785,324.35022,17043600,0.71250004,0.06382979,538.694,306.0498,0.20615779,0.12795115,-0.19402409,-2.4498865E-4,-1.6332578E-4,0.0
673.4939,331.08936,17043616,0.725,0.09574468,366.59128,603.4673,0.20615779,0.12795115,-0.19402409,-2.4498865E-4,-1.6332578E-4,0.0
681.1548,345.8567,17043633,0.71250004,0.12765957,308.2216,849.9068,0.20615779,0.12795115,-0.19402409,-2.4498865E-4,-1.6332578E-4,0.0
686.9333,362.24768,17043650,0.71250004,0.07446808,358.57916,1156.6213,0.20615779,0.12795115,-0.19402409,-0.0012129833,6.3841224E-5,0.0
689.21136,376.30212,17043666,0.71250004,0.07446808,259.60074,1266.2766,0.20615779,0.12795115,-0.19402409,-0.0012129833,6.3841224E-5,0.0
690.27136,390.18823,17043683,0.725,0.12765957,70.82093,1103.4235,0.20615779,0.12795115,-0.19402409,-0.0012129833,6.3841224E-5,0.0
691.34973,402.51392,17043700,0.7,0.08510638,-55.83046,842.24194,0.20615779,0.12795115,-0.19402409,-0.0012129833,6.3841224E-5,0.0
691.2528,411.3506,17043717,0.71250004,0.07446808,-113.24308,583.4112,0.20615779,0.12795115,-0.19402409,-3.2908574E-5,1.0969525E-5,0.0
691.2528,417.56836,17043733,0.71250004,0.07446808,-66.1601,411.13876,0.20615779,0.12795115,-0.19402409,-3.2908574E-5,1.0969525E-5,0.0
691.2528,425.12183,17043750,0.71250004,0.07446808,-38.112682,297.91516,0.20615779,0.12795115,-0.19402409,-3.2908574E-5,1.0969525E-5,0.0
691.2528,428.01453,17043767,0.71250004,0.07446808,-27.184477,170.96138,0.20615779,0.12795115,-0.19402409,-3.2908574E-5,1.0969525E-5,0.0
691.2528,430.36658,17043783,0.7,0.07446808,-4.2741213,87.978134,0.20615779,0.12795115,-0.19402409,-4.885594E-5,-1.709958E-4,0.0
691.2528,432.214,17043800,0.725,0.07446808,0.045030106,15.58833,0.20615779,0.12795115,-0.19402409,-4.885594E-5,-1.709958E-4,0.0
691.2528,433.91016,17043816,0.725,0.07446808,-0.043806393,-7.7783375,0.20615779,0.12795115,-0.19402409,-4.885594E-5,-1.709958E-4,0.0
689.8394,433.46594,17043850,0.725,0.07446808,-40.98729,-52.437897,0.20615779,0.12795115,-0.19402409,7.772931E-5,-2.3318794E-4,0.0
689.27563,433.46594,17043867,0.7,0.07446808,-58.20914,-60.72185,0.20615779,0.12795115,-0.19402409,7.772931E-5,-2.3318794E-4,0.0
689.2535,430.84058,17043884,0.675,0.07446808,-39.192905,-108.59505,0.20615779,0.12795115,-0.19402409,7.772931E-5,-2.3318794E-4,0.0
690.8133,418.82092,17043900,0.6875,0.12765957,40.68535,-444.10324,0.20615779,0.12795115,-0.19402409,7.772931E-5,-2.3318794E-4,0.0
696.15283,398.2754,17043917,0.675,0.08510638,272.02124,-1244.5087,0.20615779,0.12795115,-0.19402409,2.4296233E-4,2.4296233E-4,0.0
701.7905,386.30225,17043934,0.675,0.07446808,402.36948,-1351.6324,0.20615779,0.12795115,-0.19402409,2.4296233E-4,2.4296233E-4,0.0
710.3993,373.42908,17043951,0.6875,0.08510638,543.10474,-1188.1161,0.20615779,0.12795115,-0.19402409,2.4296233E-4,2.4296233E-4,0.0
723.73676,360.68835,17043967,0.6875,0.10638297,769.17883,-893.34686,0.20615779,0.12795115,-0.19402409,2.4296233E-4,2.4296233E-4,0.0
733.76074,354.47925,17043984,0.7,0.12765957,847.07153,-429.7826,0.20615779,0.12795115,-0.19402409,-4.879829E-5,7.3197436E-5,0.0
743.1164,353.08215,17044001,0.6875,0.12765957,778.9162,-198.91724,0.20615779,0.12795115,-0.19402409,-4.879829E-5,7.3197436E-5,0.0
750.0587,356.89917,17044017,0.6875,0.09574468,559.03217,212.96217,0.20615779,0.12795115,-0.19402409,-4.879829E-5,7.3197436E-5,0.0
755.94385,364.53967,17044034,0.71250004,0.07446808,289.3951,673.13574,0.25292623,-0.12963891,-0.051218987,-4.879829E-5,7.3197436E-5,0.0
762.96234,385.85974,17044051,0.6875,0.08510638,261.32245,1140.823,0.25292623,-0.12963891,-0.051218987,-1.5005995E-5,0.0,0.0
764.7289,409.02356,17044068,0.71250004,0.08510638,190.35194,1681.8185,0.25292623,-0.12963891,-0.051218987,-1.5005995E-5,0.0,0.0
764.22906,425.6123,17044084,0.6875,0.07446808,6.5812287,1744.0765,0.25292623,-0.12963891,-0.051218987,-1.5005995E-5,0.0,0.0
762.7293,440.57532,17044101,0.6875,0.12765957,-175.2969,1331.591,0.25292623,-0.12963891,-0.051218987,0.0,4.885594E-5,0.0
760.64,448.89124,17044118,0.7,0.12765957,-284.16827,708.4384,0.25292623,-0.12963891,-0.051218987,0.0,4.885594E-5,0.0
760.23035,452.26038,17044134,0.6875,0.12765957,-221.00977,139.92773,0.25292623,-0.12963891,-0.051218987,0.0,4.885594E-5,0.0
759.7305,452.1245,17044151,0.6875,0.12765957,-83.33144,-169.19453,0.25292623,-0.12963891,-0.051218987,0.0,4.885594E-5,0.0
761.70844,440.97192,17044168,0.65000004,0.07446808,43.21076,-595.75415,0.25292623,-0.12963891,-0.051218987,5.0331633E-5,0.0,0.0
770.22784,427.5869,17044184,0.675,0.08510638,309.13525,-997.6795,0.25292623,-0.12963891,-0.051218987,-6.825788E-4,-6.825788E-4,0.0
785.7849,406.40784,17044201,0.675,0.10638297,839.25226,-1491.5359,0.25292623,-0.12963891,-0.051218987,-6.825788E-4,-6.825788E-4,0.0
800.59546,394.76343,17044218,0.6875,0.09574468,1211.3281,-1461.8662,0.25292623,-0.12963891,-0.051218987,-6.825788E-4,-6.825788E-4,0.0
811.773,392.59485,17044235,0.6875,0.08510638,1177.4446,-774.03973,0.25292623,-0.12963891,-0.051218987,-0.0022830563,-0.0016911528,0.0
820.50775,397.28748,17044251,0.7,0.10638297,787.51416,167.28838,0.25292623,-0.12963891,-0.051218987,-0.0022830563,-0.0016911528,0.0
828.635,407.31665,17044268,0.7,0.08510638,383.18808,966.4125,0.25292623,-0.12963891,-0.051218987,-0.0022830563,-0.0016911528,0.0
840.0949,418.4049,17044285,0.7,0.06382979,367.00714,1171.2214,0.25292623,-0.12963891,-0.051218987,-0.0022830563,-0.0016911528,0.0
860.6331,429.47546,17044301,0.6625,0.08510638,763.70667,1054.4677,0.25292623,-0.12963891,-0.051218987,0.004954163,0.0051089805,0.0
891.4134,428.99915,17044318,0.575,0.06382979,1618.7118,558.33514,0.25292623,-0.12963891,-0.051218987,0.004954163,0.0051089805,0.0
904.68335,425.46936,17044326,0.2125,0.09574468,1909.0516,277.83755,0.25292623,-0.12963891,-0.051218987,0.004954163,0.0051089805,0.0
904.68335,425.46936,17044333,0.2125,0.09574468,1909.0516,277.83755,0.25292623,-0.12963891,-0.051218987,0.004954163,0.0051089805,0.0
985.657,381.0443,17045034,0.7,0.07446808,0.0,0.0,0.538341,-0.4237113,-0.44897556,1.8981249E-5,0.0,0.0
985.657,381.0443,17045053,0.675,0.07446808,-0.24518476,-0.095265925,0.538341,-0.4237113,-0.44897556,-7.5029975E-6,1.5005995E-5,0.0
985.657,381.0443,17045070,0.6875,0.08510638,-0.009948838,-0.003976583,0.538341,-0.4237113,-0.44897556,-7.5029975E-6,1.5005995E-5,0.0
979.90186,391.2744,17045087,0.7,0.11702127,-235.80571,419.10175,0.538341,-0.4237113,-0.44897556,-7.5029975E-6,1.5005995E-5,0.0
971.03625,418.58728,17045104,0.675,0.08510638,-683.1115,1662.9364,0.538341,-0.4237113,-0.44897556,-7.5029975E-6,1.5005995E-5,0.0
971.6926,435.68628,17045120,0.675,0.09574468,-470.6274,1848.8583,0.1106728,-0.090969086,-0.4871807,0.00181608,0.001981178,0.0
977.089,449.13037,17045137,0.6875,0.12765957,41.92469,1587.1262,0.1106728,-0.090969086,-0.4871807,0.00181608,0.001981178,0.0
982.6166,455.2661,17045154,0.675,0.09574468,476.98468,860.66315,0.1106728,-0.090969086,-0.4871807,0.00181608,0.001981178,0.0
993.27905,455.73914,17045170,0.6625,0.10638297,851.898,-73.4169,0.1106728,-0.090969086,-0.4871807,0.00181608,0.001981178,0.0
1003.21423,446.7262,17045187,0.625,0.06382979,809.09546,-592.0431,0.1106728,-0.090969086,-0.4871807,-2.206691E-4,5.2960584E-4,0.0
1012.03796,434.6372,17045204,0.625,0.07446808,737.74915,-1014.37476,0.1106728,-0.090969086,-0.4871807,-2.206691E-4,5.2960584E-4,0.0
1021.59485,411.31116,17045221,0.6375,0.12765957,653.2967,-1458.4878,0.1106728,-0.090969086,-0.4871807,-2.206691E-4,5.2960584E-4,0.0
1021.93713,388.78455,17045237,0.6375,0.07446808,346.3489,-1806.4673,0.1106728,-0.090969086,-0.4871807,-0.0011517947,1.6454209E-4,0.0
1014.5923,377.609,17045254,0.6625,0.06382979,-211.83981,-1548.1024,0.1106728,-0.090969086,-0.4871807,-0.0011517947,1.6454209E-4,0.0
999.1936,365.42603,17045271,0.675,0.09574468,-861.98883,-1023.68207,0.1106728,-0.090969086,-0.4871807,-0.0011517947,1.6454209E-4,0.0
984.9094,361.0902,17045287,0.6625,0.09574468,-1382.4908,-246.5097,0.1106728,-0.090969086,-0.4871807,-0.0011517947,1.6454209E-4,0.0
977.03235,361.1095,17045304,0.675,0.09574468,-1181.7179,215.86783,0.1106728,-0.090969086,-0.4871807,0.0014470168,7.235084E-4,0.0
973.52075,362.38574,17045321,0.7,0.08510638,-538.71246,324.36548,0.1106728,-0.090969086,-0.4871807,-0.0028459209,-0.0018972806,0.0
971.81104,364.51965,17045338,0.71250004,0.08510638,20.415209,403.00262,0.1106728,-0.090969086,-0.4871807,-0.0028459209,-0.0018972806,0.0
972.05835,365.9397,17045354,0.675,0.08510638,279.27975,336.97873,0.1106728,-0.090969086,-0.4871807,-0.0028459209,-0.0018972806,0.0
980.27747,368.4629,17045371,0.6875,0.07446808,419.39355,194.23647,0.1106728,-0.090969086,-0.4871807,0.0010479225,3.274758E-4,0.0
999.78394,363.6599,17045388,0.6625,0.06382979,882.7546,6.130861,0.1106728,-0.090969086,-0.4871807,0.0010479225,3.274758E-4,0.0
1021.57776,350.54236,17045404,0.6625,0.11702127,1549.0896,-527.6261,0.1106728,-0.090969086,-0.4871807,0.0010479225,3.274758E-4,0.0
1041.833,336.3606,17045421,0.6625,0.06382979,1753.3533,-1007.9012,0.1106728,-0.090969086,-0.4871807,0.0010479225,3.274758E-4,0.0
1056.9011,328.72607,17045438,0.65000004,0.06382979,1509.1295,-1073.8746,0.1106728,-0.090969086,-0.4871807,3.5603988E-4,2.7691992E-4,0.0
1074.0648,323.93945,17045454,0.6375,0.08510638,1118.3079,-729.19135,0.1106728,-0.090969086,-0.4871807,3.5603988E-4,2.7691992E-4,0.0
1092.0632,322.0957,17045471,0.6625,0.06382979,943.9999,-172.54117,0.1106728,-0.090969086,-0.4871807,3.5603988E-4,2.7691992E-4,0.0
1103.516,324.04077,17045488,0.65000004,0.06382979,858.0285,203.16531,0.1106728,-0.090969086,-0.4871807,3.5603988E-4,2.7691992E-4,0.0
1108.8567,327.72205,17045505,0.65000004,0.08510638,489.0653,395.2845,0.1106728,-0.090969086,-0.4871807,0.0,6.6033093E-4,0.0
1111.3303,346.77307,17045521,0.7,0.10638297,38.552265,813.467,0.1106728,-0.090969086,-0.4871807,0.0,6.6033093E-4,0.0
1105.8341,364.35815,17045538,0.6625,0.06382979,-416.5152,1363.8212,0.1106728,-0.090969086,-0.4871807,0.0,6.6033093E-4,0.0
1095.5748,383.7921,17045555,0.675,0.08510638,-781.808,1602.5474,0.1106728,-0.090969086,-0.4871807,0.0,6.6033093E-4,0.0
1086.2816,401.92163,17045571,0.675,0.11702127,-957.44885,1538.908,0.1106728,-0.090969086,-0.4871807,-0.002316718,-8.825592E-4,0.0
1081.7965,413.51404,17045588,0.675,0.08510638,-803.48175,1088.0549,0.1106728,-0.090969086,-0.4871807,-0.002316718,-8.825592E-4,0.0
1080.1442,418.2975,17045605,0.6875,0.08510638,-364.19385,459.36417,0.1106728,-0.090969086,-0.4871807,-0.002316718,-8.825592E-4,0.0
1080.65,419.24988,17045622,0.6625,0.08510638,88.66412,-21.097364,0.1106728,-0.090969086,-0.4871807,-0.002316718,-8.825592E-4,0.0
1095.7144,417.4579,17045638,0.65000004,0.08510638,640.87115,-390.7621,-0.09546177,0.30322456,0.6422558,-5.8965376E-5,-1.1793075E-4,0.0
1122.8889,403.51562,17045655,0.625,0.12765957,1441.3893,-774.38184,-0.09546177,0.30322456,0.6422558,-5.8965376E-5,-1.1793075E-4,0.0
1150.335,390.20825,17045672,0.65000004,0.08510638,2137.2314,-1096.7262,-0.09546177,0.30322456,0.6422558,-5.8965376E-5,-1.1793075E-4,0.0
1161.763,389.04077,17045688,0.6625,0.08510638,1953.4865,-904.92334,-0.09546177,0.30322456,0.6422558,-5.8965376E-5,-1.1793075E-4,0.0
1168.4137,393.6554,17045705,0.675,0.10638297,1057.2479,-265.92368,-0.09546177,0.30322456,0.6422558,-5.8965376E-5,-1.1793075E-4,0.0
1177.1482,413.5818,17045722,0.625,0.07446808,18.203815,1022.17065,-0.09546177,0.30322456,0.6422558,7.127359E-4,-3.5636796E-4,0.0
1183.775,428.45935,17045739,0.625,0.08510638,-48.095005,1654.1189,-0.09546177,0.30322456,0.6422558,7.127359E-4,-3.5636796E-4,0.0
1192.2676,437.9204,17045755,0.58750004,0.10638297,288.8367,1388.8861,-0.09546177,0.30322456,0.6422558,7.127359E-4,-3.5636796E-4,0.0
1193.0895,438.797,17045758,0.4125,0.09574468,301.65338,1290.007,-0.09546177,0.30322456,0.6422558,7.127359E-4,-3.5636796E-4,0.0
1193.0895,438.797,17045765,0.4125,0.09574468,301.65338,1290.007,-0.09546177,0.30322456,0.6422558,7.127359E-4,-3.5636796E-4,0.0
